Subject-Id,Activity Label,Time stamp,Accel_x,Accel_y,Accel_z,Gyro_x,Gyro_y,Gyro_z
1602,A,99019527581830,-0.9237366,-11.386169,8.799728,-0.7197418,0.39865112,-0.16711426
1602,A,99019577935834,-2.1854095,-12.316559,8.982025,-0.9578247,1.6152344,-0.111709595
1602,A,99019628289837,4.6159363,-6.947418,1.9848633,-1.8810577,1.4732056,0.83522034
1602,A,99019678643841,6.4730988,-11.660782,-2.8489838,-1.5757904,0.24171448,0.34750366
1602,A,99019728997845,-2.8695984,-3.154541,-8.561188,-1.6394806,1.0971527,0.34846497
1602,A,99019779351849,-5.768936,-14.184891,-2.3460693,-1.4670563,1.2121124,0.29103088
1602,A,99019829705853,1.1438751,-8.927368,0.15438843,-1.6296387,1.3712006,0.15550232
1602,A,99019880059857,-0.30555725,-9.415375,-0.41737366,-1.6983795,1.1256409,-0.088775635
1602,A,99019930413861,-0.8691864,-8.561508,-0.39466858,-1.339325,0.929245,-0.100997925
1602,A,99019980767865,-0.2516632,-8.373291,-0.9316864,-0.65167236,1.2207642,-0.12580872
1602,A,99020031121869,-0.41905212,-8.830048,-1.7586823,-0.018341064,1.2200623,-0.36027527
1602,A,99020081475873,-0.0761261,-9.962524,-0.096191406,1.0926971,0.6909485,-0.60980225
1602,A,99020131829876,-1.5159607,-10.968399,0.12852478,2.7239227,0.5518646,-0.8511658
1602,A,99020182183880,-2.0858917,-13.014847,0.5495758,3.075653,1.5680542,-0.33448792
1602,A,99020232537884,0.94299316,-12.950302,2.7607117,2.1969604,1.0571442,0.82151794
1602,A,99020282891888,1.3936615,-11.954102,-0.045318604,1.897934,-1.0249939,1.1738434
1602,A,99020333245892,2.1922913,-14.67099,-2.6885529,1.8572235,-1.457077,0.62939453
1602,A,99020383599896,1.7769928,-14.787521,-3.3635712,1.3460999,-1.1455536,0.06578064
1602,A,99020433953900,0.009963989,-9.721741,-1.9074097,0.3675995,-0.9688721,0.10572815
1602,A,99020484307904,1.0103455,-5.9333496,-0.7135925,-1.0218964,-0.5307617,0.46279907
1602,A,99020534661908,2.068161,-4.4713593,-1.40242,-1.6278076,-0.23176575,0.43640137
1602,A,99020585015912,1.4176178,-4.091858,-0.50271606,0.11062622,-0.5405884,-0.060531616
1602,A,99020635369916,0.8185425,-4.946747,1.5533295,1.012619,-0.94215393,-0.07501221
1602,A,99020685723919,2.8029938,-9.415329,8.011261,0.59394836,-1.2444916,-0.54759216
1602,A,99020736077923,3.159195,-14.290482,7.5779266,-0.6324158,-0.004119873,-0.07080078
1602,A,99020786431927,2.9522858,-8.679703,4.524948,-1.577301,1.3240509,0.74842834
1602,A,99020836785931,5.457962,-10.285309,4.549774,-1.4427032,0.5082245,0.6794281
1602,A,99020887139935,1.236206,-9.350723,1.7081757,-1.4222565,0.91448975,0.48013306
1602,A,99020937493939,-1.9134064,-11.110718,-2.5448914,-1.3673248,1.1911469,0.4862213
1602,A,99020987847943,0.061813354,-9.828781,-0.8026886,-1.249588,1.0299683,0.24230957
1602,A,99021038201947,0.5440521,-9.594574,0.21803284,-1.2302399,0.6969452,0.145401
1602,A,99021088555951,-1.486908,-8.906235,-0.40385437,-1.3065338,0.8963318,0.07823181
1602,A,99021138909955,-1.43219,-9.00853,-0.036483765,-1.4760437,0.6860504,-0.097839355
1602,A,99021189263959,-1.1083221,-8.938736,0.251297,-1.1557922,0.7667999,0.032592773
1602,A,99021239617962,0.24383545,-7.991989,-1.5196228,-0.7324524,0.9236908,0.15983582
1602,A,99021289971966,0.67318726,-8.659485,-1.3097839,-0.62991333,1.2487488,-0.00869751
1602,A,99021340325970,-1.0718994,-10.477844,-1.2566986,0.023010254,1.1542358,-0.2869568
1602,A,99021390679974,-3.048767,-11.547867,-1.9754028,1.6254272,0.5361786,-0.42695618
1602,A,99021441033978,0.5661621,-12.010071,-0.33610535,3.684433,-0.17352295,-0.7123871
1602,A,99021491387982,-2.9950867,-14.527512,1.1469269,3.2453003,-0.284729,-0.3826294
1602,A,99021541741986,-0.8434143,-13.079193,4.435486,2.522583,-1.0880127,0.81559753
1602,A,99021592095990,-1.1253052,-11.283737,-3.006363,2.6032104,-1.1637726,0.5460663
1602,A,99021642449994,0.503006,-15.753632,-1.6860046,2.0073853,-1.4662018,0.39007568
1602,A,99021692803998,1.3429413,-14.010544,-0.5292511,1.0694427,-1.3148346,0.3519287
1602,A,99021743158001,-1.5676727,-8.989075,-1.8114319,-0.30117798,-1.2831573,0.47496033
1602,A,99021793512005,0.6157837,-5.3004,-1.9562378,-2.0822754,-0.783905,0.70840454
1602,A,99021843866009,0.18301392,-2.1833038,-2.0591125,0.34921265,-1.3199921,-0.40351868
1602,A,99021894220013,0.87072754,-1.8423309,-1.6512146,1.7379456,-1.3073273,-0.576828
1602,A,99021944574017,2.926056,-6.7900543,6.4435425,0.4529724,-1.52034,-1.2775574
1602,A,99021994928021,8.18071,-18.817627,15.427933,-1.3908844,1.0244751,0.87275696
1602,A,99022045282025,1.4717865,-3.307541,4.539566,-2.1977081,1.4992065,1.1257019
1602,A,99022095636029,6.769211,-9.75386,2.1513977,-2.071045,0.81596375,0.5205231
1602,A,99022145990033,-1.4592438,-11.353989,0.981308,-1.9784088,1.4965057,0.556015
1602,A,99022196344037,-2.1604614,-11.988541,-3.038559,-1.5476532,0.89331055,0.35427856
1602,A,99022246698041,1.0772247,-7.3667603,-0.6581421,-1.8556519,1.5529633,0.34918213
1602,A,99022297052044,-1.1365356,-10.326706,-0.451828,-1.9436798,1.5903015,-0.056640625
1602,A,99022347406048,-1.3699951,-7.273773,-1.0321808,-1.54422,0.3202057,-0.12364197
1602,A,99022397760052,0.044006348,-7.669403,-0.7795563,-0.9756317,0.99453735,-0.13528442
1602,A,99022448114056,0.18727112,-8.9300995,-3.4384613,-0.43467712,0.95410156,-0.4045868
1602,A,99022498468060,-1.7599792,-11.446136,1.4337463,0.09420776,0.3493042,-0.46887207
1602,A,99022548822064,1.2027893,-9.788254,0.045013428,1.8258972,0.2185669,-0.44029236
1602,A,99022599176068,-5.0592957,-12.567078,-1.4123688,3.7098083,-0.25964355,-0.59391785
1602,A,99022649530072,0.25164795,-15.206314,1.969101,3.1833954,-0.09361267,-0.038909912
1602,A,99022699884076,1.067749,-11.926392,2.4458008,2.4581146,-1.5730438,0.6088867
1602,A,99022750238080,-0.06387329,-13.4543915,-2.3046265,2.8079834,-1.0688477,0.5258789
1602,A,99022800592084,2.6942902,-16.40802,-2.3358917,2.2722015,-1.4812927,-0.043884277
1602,A,99022850946087,1.0904999,-13.833649,-0.9104767,1.1827393,-1.5491486,-0.04336548
1602,A,99022901300091,-1.6588593,-7.687439,-2.7150726,-0.72265625,-1.5025482,0.44517517
1602,A,99022951654095,1.2377014,-4.3734283,-3.1387024,-1.6590271,-0.6845398,0.5974884
1602,A,99023002008099,0.51626587,-1.9140472,-2.6328583,0.8447418,-0.53977966,-0.5207367
1602,A,99023052362103,1.2263641,-2.4089966,0.8613434,0.8491516,-0.52978516,-0.3592682
1602,A,99023102716107,5.5750275,-9.449326,7.011444,-1.2274933,1.1549072,0.08061218
1602,A,99023153070111,9.1532135,-12.984741,7.1286774,-1.3393707,2.2789154,0.40966797
1602,A,99023203424115,3.857254,-0.7526398,1.1325989,-2.0183258,1.8314514,1.2234497
1602,A,99023253778119,8.229416,-11.271439,-1.1283264,-1.7081451,0.3075714,0.6960907
1602,A,99023304132123,-4.0477295,-4.878174,-4.87088,-1.8105469,1.2279663,0.387146
1602,A,99023354486126,-4.661255,-10.921356,-0.8927307,-1.6573792,1.0737457,0.4637146
1602,A,99023404840130,0.14668274,-8.879913,0.7069092,-1.6139221,0.93081665,0.21708679
1602,A,99023455194134,0.13476563,-9.293243,-0.1281128,-1.6602631,1.1725159,-0.023284912
1602,A,99023505548138,-1.6896362,-8.4552765,-0.4106598,-1.5970917,0.83869934,-0.15991211
1602,A,99023555902142,0.08502197,-8.289459,0.15370178,-1.3148193,0.80163574,-0.1239624
1602,A,99023606256146,0.30064392,-8.508636,-1.6190491,-0.71151733,1.0574799,-0.24493408
1602,A,99023656610150,0.28401184,-9.12709,-2.0541077,0.09364319,0.9433899,-0.42304993
1602,A,99023706964154,-1.3839569,-10.541382,0.5076294,1.8969116,0.23521423,-0.5102234
1602,A,99023757318158,-1.0691681,-12.605179,0.24133301,3.3032837,-0.23542786,-0.49769592
1602,A,99023807672162,0.1736145,-14.992569,1.3815308,3.0385284,-0.24891663,0.056747437
1602,A,99023858026166,-0.47068787,-13.441788,2.8527222,2.8434296,-0.8276825,0.74612427
1602,A,99023908380169,-0.1889801,-12.282227,-0.29536438,2.6734467,-1.4212494,0.78685
1602,A,99023958734173,1.2491913,-14.805237,-3.1964722,1.8762054,-1.3787994,0.44473267
1602,A,99024009088177,1.3483276,-12.354233,-1.4868011,0.8735657,-1.5146332,0.37738037
1602,A,99024059442181,-0.51330566,-7.6292114,-1.3574982,-0.6599579,-1.6252899,0.6331482
1602,A,99024109796185,0.6854248,-4.384964,-2.985382,-1.2795868,-1.3437805,0.31048584
1602,A,99024160150189,0.8368683,-1.9781189,-3.2525177,0.83921814,-1.1877594,-0.28063965
1602,A,99024210504193,0.912796,-2.8712463,-1.1456299,0.99783325,-0.666626,-0.22944641
1602,A,99024260858197,5.368454,-12.816177,11.3246765,-0.23706055,0.36369324,-0.32305908
1602,A,99024311212201,3.973709,-12.19809,9.513718,-1.4468231,1.7558136,0.43162537
1602,A,99024361566205,5.100418,-9.967819,2.0033875,-2.0978394,0.7771301,1.130127
1602,A,99024411920209,2.8691254,-6.320923,-3.1040192,-2.0606384,0.44734192,0.51182556
1602,A,99024462274212,-4.8411255,-8.716873,-4.6925354,-2.0109253,1.1494598,0.38713074
1602,A,99024512628216,-4.116623,-11.318298,-1.4338684,-1.8414154,0.9887848,0.38356018
1602,A,99024562982220,1.7917938,-9.822876,-0.7552948,-1.9210968,1.4708557,0.16975403
1602,A,99024613336224,-0.15042114,-9.289978,-1.2161255,-1.8305969,0.6660614,-0.17797852
1602,A,99024663690228,-1.0609283,-8.597046,0.4061432,-1.5844421,0.71006775,-0.09736633
1602,A,99024714044232,0.054367065,-7.944992,-0.21302795,-0.8601074,0.89302063,-0.2414856
1602,A,99024764398236,1.3232269,-8.772644,-2.7124634,-0.24337769,1.113678,-0.56874084
1602,A,99024814752240,0.7084198,-10.173904,0.35835266,0.932312,0.7503662,-0.49612427
1602,A,99024865106244,-2.8484192,-11.614548,1.9539032,3.0312042,-0.44328308,-0.4927063
1602,A,99024915460248,0.5796509,-14.402878,0.6663971,3.2748413,-0.46728516,-0.013580322
1602,A,99024965814251,-1.1362915,-13.735199,3.1197357,2.35437,-0.52189636,0.99028015
1602,A,99025016168255,-0.9420929,-12.796112,-0.118896484,2.8038483,-1.5834656,0.9887085
1602,A,99025066522259,0.6340332,-16.245987,-1.3515167,2.5182953,-1.8662872,0.7475891
1602,A,99025116876263,1.6377563,-15.948456,-6.413086,1.7581787,-1.776947,0.57518005
1602,A,99025167230267,-0.69189453,-9.144638,-2.29039,0.29670715,-1.6338806,0.61009216
1602,A,99025217584271,-0.30226135,-6.6935883,-3.247116,-1.2653046,-1.1307373,0.69828796
1602,A,99025267938275,0.51693726,-3.4493256,-3.1219177,-1.3910828,-0.8449402,-0.043045044
1602,A,99025318292279,1.5324402,-2.1599884,-2.9775696,1.8025055,-0.85749817,-0.34042358
1602,A,99025368646283,1.5412903,-4.3036957,0.92770386,0.25006104,-0.51631165,-0.33876038
1602,A,99025419000287,5.5368958,-16.07489,16.298752,-0.49404907,1.0910797,-0.39749146
1602,A,99025469354291,0.5308533,-10.750931,5.6003876,-2.1008453,2.882843,0.8877716
1602,A,99025519708294,6.3512726,-12.788559,1.563034,-1.836441,0.27211,0.7969971
1602,A,99025570062298,1.2224121,-2.2441406,-6.03389,-2.011383,0.54615784,0.32577515
1602,A,99025620416302,-5.394577,-12.201706,-4.8478546,-1.739975,1.0526428,0.33146667
1602,A,99025670770306,-0.58158875,-8.090012,-1.2138214,-1.81633,0.9656067,0.3126526
1602,A,99025721124310,1.3287811,-10.149689,-0.23936462,-1.9163971,1.9543304,-0.020263672
1602,A,99025771478314,-1.2436523,-8.511215,-1.4624481,-1.606369,0.2097168,-0.32069397
1602,A,99025821832318,-0.048736572,-7.929657,1.8408661,-1.3312988,1.0461273,-0.042022705
1602,A,99025872186322,0.87275696,-8.470718,-2.5106812,-0.52311707,0.8838959,-0.4405365
1602,A,99025922540326,0.18258667,-9.660843,-0.8461151,0.13615417,0.68214417,-0.7920227
1602,A,99025972894330,0.6908722,-10.028778,0.48568726,1.4730682,0.54138184,-0.49917603
1602,A,99026023248334,-4.755371,-11.536102,1.6404877,3.95195,-0.43878174,-0.61834717
1602,A,99026073602337,0.6561127,-14.2104645,1.1746521,2.9888,0.26208496,0.46157837
1602,A,99026123956341,0.43470764,-12.120773,3.036377,1.7653046,-0.5962982,1.3895569
1602,A,99026174310345,0.29663086,-12.368759,-1.0524292,2.5785217,-1.9350739,1.2573547
1602,A,99026224664349,2.8713074,-18.072983,-1.4463348,2.069641,-1.8876648,0.75045776
1602,A,99026275018353,0.62031555,-15.274261,-6.6497803,1.089447,-1.6457062,0.45152283
1602,A,99026325372357,-1.1622314,-8.249527,-1.9160156,-0.35362244,-1.2193298,0.58535767
1602,A,99026375726361,0.5961151,-4.698181,-3.093521,-1.5214081,-1.1309204,0.70103455
1602,A,99026426080365,1.3123932,-2.1879578,-2.802719,-0.4303589,-1.1484375,0.014862061
1602,A,99026476434369,1.5765839,-2.7875671,-1.3847961,1.8417969,-1.0411377,-0.51493835
1602,A,99026526788373,2.0528107,-8.4170685,5.2697754,-0.282135,-0.7482147,-0.3240204
1602,A,99026577142376,5.1982117,-16.205185,16.15831,-0.17225647,-0.031295776,-0.53860474
1602,A,99026627496380,1.0615997,-7.3187103,2.4187012,-2.038681,1.1918488,1.0401001
1602,A,99026677850384,3.8519135,-9.260422,-3.613388,-2.0561829,0.7552643,0.8771515
1602,A,99026728204388,-5.132492,-8.878891,-6.4219055,-1.9020386,1.3706512,0.32125854
1602,A,99026778558392,-5.7570953,-11.432785,-0.96902466,-1.7411499,1.5925903,0.42503357
1602,A,99026828912396,-0.74476624,-11.3867035,-1.840805,-1.6348419,1.5598602,0.18437195
1602,A,99026879266400,0.15272522,-8.946014,-1.1752319,-1.6154938,1.6447906,-0.14405823
1602,A,99026929620404,-1.106308,-8.553055,-0.84088135,-1.4305725,0.64590454,-0.25387573
1602,A,99026979974408,-0.13894653,-7.9053955,-0.46972656,-1.1888275,0.8762665,-0.22866821
1602,A,99027030328412,-0.2432251,-8.741669,-1.3038788,-0.71313477,0.8393097,-0.3979187
1602,A,99027080682416,-0.51872253,-9.947113,-1.0607758,-0.10662842,0.804657,-0.5428772
1602,A,99027131036419,-0.90940857,-10.440094,0.19290161,1.1942596,0.25749207,-0.5259094
1602,A,99027181390423,-1.9659882,-11.672806,0.5621338,3.0408783,0.0011901855,-0.48545837
1602,A,99027231744427,-1.9323883,-14.928574,0.31655884,3.3087769,0.2460022,-0.07157898
1602,A,99027282098431,-0.12843323,-13.980713,3.2812195,2.4666595,-0.548645,0.73976135
1602,A,99027332452435,0.9795532,-11.917618,-1.8574829,2.3106842,-1.6539612,1.0388489
1602,A,99027382806439,2.4635468,-14.497437,-4.4992065,2.2645874,-1.285614,0.6148529
1602,A,99027433160443,1.361084,-12.748871,-0.47555542,1.4465637,-1.5768738,0.6243286
1602,A,99027483514447,-1.0259094,-8.87085,-1.8982849,-0.07598877,-1.3351898,0.9188385
1602,A,99027533868451,0.30734253,-5.724457,-3.128891,-1.2626648,-0.95181274,1.0467834
1602,A,99027584222455,1.0553589,-3.414627,-2.4716492,-0.13899231,-1.0930023,0.15626526
1602,A,99027634576459,1.221283,-3.2384949,-0.9917755,1.2844543,-1.3845215,-0.39678955
1602,A,99027684930462,2.1778564,-7.217224,5.4040833,0.7108002,-1.2875214,-0.76898193
1602,A,99027735284466,3.514618,-15.317261,11.296112,-0.62820435,-0.062942505,-0.42744446
1602,A,99027785638470,2.3124847,-9.433792,8.457352,-1.8188782,1.6473083,0.80114746
1602,A,99027835992474,4.877762,-9.507874,6.064743,-2.2750397,1.5840149,0.98908997
1602,A,99027886346478,2.3894043,-11.148239,3.8532104,-2.1667175,1.4754791,0.71821594
1602,A,99027936700482,-0.64637756,-11.13797,-1.3231812,-1.8503265,1.4398651,0.27830505
1602,A,99027987054486,0.56085205,-10.109283,-2.0593414,-1.7923431,1.9427643,0.13703918
1602,A,99028037408490,-0.3703308,-7.995453,-0.7575989,-1.663269,1.7780457,-0.12503052
1602,A,99028087762494,-0.9948273,-8.939499,-0.18458557,-1.625061,1.1357574,-0.35038757
1602,A,99028138116498,-0.29084778,-8.267593,1.0579834,-1.292633,0.8341217,-0.31806946
1602,A,99028188470501,1.5431061,-8.034439,-2.9895325,-0.60661316,1.1853333,-0.25804138
1602,A,99028238824505,-0.36761475,-9.553818,-1.1523132,0.15592957,0.96539307,-0.7078705
1602,A,99028289178509,-2.0684204,-11.214737,1.1664124,1.7102356,0.19036865,-0.49423218
1602,A,99028339532513,-1.1350098,-12.44696,0.0743103,3.7311707,-0.3444519,-0.49383545
1602,A,99028389886517,-1.8593597,-14.931976,2.1984253,2.8918457,0.83638,0.12515259
1602,A,99028440240521,0.10609436,-12.255646,3.5016632,2.1689148,-1.9509735,1.4808044
1602,A,99028490594525,1.9389038,-12.593735,-3.445877,2.4674835,-1.9956512,1.0847168
1602,A,99028540948529,0.55737305,-17.81247,-1.9013824,2.1304626,-1.7528229,0.4500122
1602,A,99028591302533,-0.14355469,-13.126419,-1.5322723,1.0207977,-1.3880768,0.30166626
1602,A,99028641656537,0.09106445,-7.7091217,-2.4235992,-0.43391418,-0.96798706,0.5278015
1602,A,99028692010541,0.53196716,-4.3098297,-2.609604,-1.7414398,-0.57774353,0.9238434
1602,A,99028742364544,1.6466675,-2.2147827,-2.6366577,0.45167542,-0.89923096,-0.45428467
1602,A,99028792718548,1.4460754,-2.9699554,-1.1143646,1.4431458,-1.1608734,-0.38456726
1602,A,99028843072552,2.8285828,-7.774124,7.9842987,0.24299622,-1.2626038,-0.6543274
1602,A,99028893426556,6.20961,-17.794205,13.582962,-1.2335815,0.9180603,-0.022354126
1602,A,99028943780560,1.0600891,-2.0371246,5.4405518,-2.2051392,2.7156525,1.0693359
1602,A,99028994134564,7.3641815,-14.513382,6.8663025,-2.1717377,1.208664,0.9241028
1602,A,99029044488568,1.9833069,-6.980438,0.33233643,-2.2122803,1.4923248,0.4980774
1602,A,99029094842572,-0.2503357,-12.452133,-3.9866333,-1.8344116,1.0119476,0.292984
1602,A,99029145196576,0.6114197,-8.71225,-3.0388489,-1.9490967,1.7408905,0.2637329
1602,A,99029195550580,-0.66963196,-10.196548,-0.6482086,-1.8978729,2.0751953,-0.23638916
1602,A,99029245904584,-2.4808044,-7.756958,-0.87779236,-1.5920868,0.50405884,-0.43873596
1602,A,99029296258587,1.0021973,-7.79039,0.8078766,-1.1745453,0.9641266,-0.10247803
1602,A,99029346600553,0.8167267,-7.557556,-3.2272644,-0.42485046,1.1003418,-0.38282776
1602,A,99029396954557,-2.5643158,-10.568848,0.3250122,0.15652466,0.68933105,-0.75335693
1602,A,99029447308561,1.7414856,-9.353973,0.3944702,1.937027,0.17996216,-0.5172272
1602,A,99029497662565,-4.8019104,-12.985336,0.15760803,4.2088013,-0.736145,-0.6240387
1602,A,99029548016569,-0.4590149,-15.556198,2.9972534,2.8725128,0.96829224,0.09075928
1602,A,99029598370573,0.40763855,-13.16153,2.560913,1.9341125,-1.184494,1.3253326
1602,A,99029648724577,2.4126282,-11.06041,-5.4384613,2.6090698,-1.2923126,0.82647705
1602,A,99029699078581,1.8542938,-18.127441,0.892746,2.0285034,-1.5041656,0.43099976
1602,A,99029749432585,0.06745911,-14.629684,-5.59256,1.057251,-1.2410278,0.3104248
1602,A,99029799786588,-0.50079346,-6.6431274,-1.9698639,-0.7407532,-1.0894165,0.60894775
1602,A,99029850140592,1.3848267,-4.50058,-3.1448364,-1.8734131,-0.7978668,0.7270813
1602,A,99029900494596,1.1451416,-1.5324707,-3.2570038,1.3746948,-1.1741333,-0.48223877
1602,A,99029950848600,1.4468384,-2.7455597,0.049438477,0.8504791,-1.2995605,-0.03504944
1602,A,99030001202604,3.2041473,-11.5660095,9.765976,-1.1563263,0.04949951,0.07649231
1602,A,99030051556608,6.0734863,-15.4001465,12.947433,-1.2012329,2.1000214,-0.052734375
1602,A,99030101910612,0.28045654,1.8918152,5.5857086,-2.3184967,3.0118408,1.2123718
1602,A,99030152264616,7.7009277,-15.126663,7.7519226,-1.9350128,0.19430542,0.7998047
1602,A,99030202618620,3.2891388,0.12231445,-7.3035583,-2.1078491,0.9975128,0.28382874
1602,A,99030252972624,-2.8035583,-14.914307,-3.5595398,-1.7880554,1.1651459,0.14537048
1602,A,99030303326628,-0.34939575,-9.260834,1.7511444,-1.8638306,1.8802338,0.042541504
1602,A,99030353680631,0.54397583,-9.027283,-0.2907257,-1.8325653,1.8579712,-0.29525757
1602,A,99030404034635,-0.9270477,-8.386963,-0.2710266,-1.4521484,0.56729126,-0.31497192
1602,A,99030454388639,0.34640503,-8.040024,-0.24119568,-0.6407776,1.2465057,-0.31105042
1602,A,99030504742643,-1.0675812,-9.657135,-2.0084991,0.0075683594,1.126236,-0.6609955
1602,A,99030555096647,-1.6196136,-11.499298,1.6278229,0.97250366,0.32302856,-0.6388855
1602,A,99030605450651,0.023925781,-10.600739,0.26831055,2.7443237,-0.009460449,-0.49972534
1602,A,99030655804655,-3.267273,-13.462051,0.24331665,3.3433228,0.44158936,-0.25178528
1602,A,99030706158659,-0.64608765,-14.464813,2.6294556,2.111908,0.047454834,0.7747803
1602,A,99030756512663,1.8184052,-12.419846,0.51420593,1.9151154,-1.7414703,1.3273468
1602,A,99030806866667,2.468399,-14.368607,-2.7318878,2.2578888,-1.9039764,0.9168854
1602,A,99030857220671,1.3841858,-14.358902,-1.3336945,1.6644897,-1.7185669,0.6346283
1602,A,99030907574674,-0.95492554,-10.587891,-2.0940857,0.48675537,-1.3704529,0.6828308
1602,A,99030957928678,0.03540039,-6.6707153,-2.0439148,-0.82525635,-0.88275146,0.85983276
1602,A,99031008282682,1.9871063,-3.962204,-2.6641235,-0.96673584,-0.60253906,0.5602417
1602,A,99031058636686,1.7698059,-2.894516,-1.7488098,0.7661438,-0.94421387,-0.2756195
1602,A,99031108990690,1.6893616,-4.725708,1.3409271,0.8146515,-0.95692444,-0.47039795
1602,A,99031159344694,5.033081,-12.365952,9.778107,-0.4019928,0.174057,-0.43870544
1602,A,99031209698698,2.8759155,-11.752411,11.762543,-1.3171234,1.9551544,0.30421448
1602,A,99031260052702,3.4340363,-9.591827,2.7533417,-2.1017456,1.8263397,0.93766785
1602,A,99031310406706,5.7312164,-7.699188,-5.4608765,-2.1109161,1.2518463,0.46321106
1602,A,99031360760710,-1.2418671,-7.2788086,-6.0825043,-2.0178986,1.5769348,0.30767822
1602,A,99031411114713,-1.3491211,-11.509216,-2.5416718,-1.781662,1.4082336,0.24890137
1602,A,99031461468717,0.47784424,-9.599564,-1.6690979,-1.6680298,1.7307739,-0.04837036
1602,A,99031511822721,-1.5035858,-9.393478,-1.4683228,-1.6606445,1.3405304,-0.4061432
1602,A,99031562176725,-1.9013824,-9.100754,-0.33372498,-1.604248,0.9606018,-0.38528442
1602,A,99031612530729,0.14456177,-8.543503,-0.11647034,-0.95254517,0.9620056,-0.27989197
1602,A,99031662884733,0.6241455,-8.635635,-2.352539,-0.27894592,1.1560669,-0.58465576
1602,A,99031713238737,-0.5096283,-9.960861,-0.55207825,0.7283478,0.686615,-0.71699524
1602,A,99031763592741,-1.834549,-11.031403,1.9627533,2.9203186,-0.4623413,-0.58010864
1602,A,99031813946745,-0.9699402,-12.919327,1.6929474,3.1376953,-0.21022034,-0.021408081
1602,A,99031864300749,-1.5655212,-14.021652,2.7857208,2.1748352,0.082336426,0.96681213
1602,A,99031914654753,0.4148407,-12.973038,2.674408,2.1463318,-1.4242554,1.2673035
1602,A,99031965008756,2.4831085,-15.606766,-1.6063385,2.4125671,-1.9997101,0.8102875
1602,A,99032015362760,1.6225281,-16.11142,-7.034897,2.05159,-1.8418274,0.40763855
1602,A,99032065716764,0.07525635,-10.935516,-3.399002,0.88041687,-1.6837158,0.41732788
1602,A,99032116070768,-0.23640442,-8.128967,-2.1061707,-0.67448425,-1.1316833,0.64245605
1602,A,99032166424772,1.1196136,-4.348068,-3.1958313,-1.0775146,-1.0395508,0.27719116
1602,A,99032216778776,1.7519531,-2.5506744,-2.1601563,0.99412537,-1.4619293,-0.5034027
1602,A,99032267132780,1.6173096,-3.8137054,0.4077301,0.8982544,-1.1570587,-0.12748718
1602,A,99032317486784,3.8364105,-10.0559845,11.303101,0.628067,-0.99676514,-0.7874298
1602,A,99032367840788,-0.143219,-13.169266,11.278397,-1.2014313,0.48817444,0.39172363
1602,A,99032418194792,5.797531,-10.489105,0.42974854,-2.058319,0.5709076,1.2731476
1602,A,99032468548796,0.43222046,-3.8381348,-7.5351105,-1.8712616,0.77072144,0.30567932
1602,A,99032518902799,-9.150085,-12.149506,-1.5866089,-2.0093231,1.4137573,0.32510376
1602,A,99032569256803,-3.2639923,-12.535217,-0.99935913,-1.7095337,0.59277344,0.2402649
1602,A,99032619610807,3.0384827,-8.207489,-0.8639679,-1.7780609,1.205719,0.10916138
1602,A,99032669964811,-1.0734711,-9.516434,-1.3266449,-1.7442474,1.492157,-0.19787598
1602,A,99032720318815,-2.037262,-8.519699,0.5218353,-1.6146393,0.5802307,-0.35934448
1602,A,99032770672819,1.0544128,-8.340057,0.42085266,-1.2424774,0.93022156,-0.17021179
1602,A,99032821026823,0.2770996,-8.710724,-1.5196075,-0.50642395,1.2271271,-0.38050842
1602,A,99032871380827,0.22137451,-9.1203,-1.674881,0.11407471,0.67878723,-0.85980225
1602,A,99032921734831,-0.15872192,-9.5867,0.2752533,1.6626587,-0.17053223,-0.43341064
1602,A,99032972088835,-1.6819,-12.512421,-1.6640778,3.8697662,-0.3136444,-0.4299469
1602,A,99033022442838,-2.5880585,-16.218307,1.9461365,2.7478638,0.3749237,0.5733032
1602,A,99033072796842,0.6604309,-13.334839,3.7895355,1.6685791,-1.2429504,1.3956757
1602,A,99033123150846,1.132019,-12.166183,-1.688034,2.4746094,-1.7993469,0.89175415
1602,A,99033173504850,2.9921417,-16.690643,-1.4598541,2.2552795,-1.714035,0.5089569
1602,A,99033223858854,-0.2577057,-13.293274,-4.255707,1.4575348,-1.8186035,0.5761261
1602,A,99033274212858,-1.3999634,-7.9933624,-1.3217163,0.14482117,-1.2799225,0.77420044
1602,A,99033324566862,1.2355042,-6.0798035,-3.2553864,-1.1725769,-0.91941833,0.9724426
1602,A,99033374920866,1.3302612,-3.7637177,-2.2612762,-0.47512817,-1.0570374,0.17851257
1602,A,99033425274870,1.1467133,-3.0828705,-1.1202393,0.9100189,-1.1022949,-0.51116943
1602,A,99033475628874,2.0986176,-5.5545197,3.0338287,1.3319397,-1.3256378,-0.57380676
1602,A,99033525982878,4.420044,-10.840393,10.973175,-0.6641693,0.38079834,-0.40400696
1602,A,99033576336881,3.9348145,-16.13588,6.2062836,-1.5394745,1.6027222,0.92485046
1602,A,99033626690885,7.1941833,-11.545059,0.8806305,-2.1674652,0.8868408,1.054596
1602,A,99033677044889,0.19659424,2.901001,-6.7118835,-2.178238,1.1950226,0.28903198
1602,A,99033727398893,-6.61499,-15.202118,-1.9036713,-1.896347,1.0767975,0.4221344
1602,A,99033777752897,0.93026733,-8.470764,0.5124359,-1.6882629,0.4376526,0.37442017
1602,A,99033828106901,0.43077087,-9.715866,-1.7190399,-1.8010712,1.4874573,0.20465088
1602,A,99033878460905,-2.0385284,-9.913132,-0.8207855,-1.6643372,1.317215,-0.21546936
1602,A,99033928814909,-0.5906067,-7.9139404,0.9317322,-1.410141,1.010498,-0.4205017
1602,A,99033979168913,1.180069,-8.250763,-0.42077637,-0.7694855,1.0105438,-0.36494446
1602,A,99034029522917,1.002533,-8.969299,-1.859787,0.11756897,0.88145447,-0.55596924
1602,A,99034079876921,-0.69299316,-10.177856,0.4403534,1.4862518,0.44296265,-0.7662506
1602,A,99034130230924,-2.4475708,-11.737595,1.3283539,2.8936768,0.20932007,-0.29963684
1602,A,99034180584928,-1.8454132,-13.647797,2.440033,2.6823425,0.45306396,0.6714783
1602,A,99034230938932,-0.56526184,-13.714569,2.7163544,2.0364685,-0.0619812,1.4646912
1602,A,99034281292936,0.039779663,-13.810028,-1.364624,2.162033,-1.6379242,1.3398743
1602,A,99034331646940,3.319992,-16.931763,-2.5516052,2.1520386,-1.2611847,0.49995422
1602,A,99034382000944,2.1476746,-14.21405,-3.066101,1.5163879,-1.4998016,0.16459656
1602,A,99034432354948,1.4080505,-8.335342,-1.3526764,0.16447449,-1.3770142,0.27331543
1602,A,99034482708952,2.0697174,-5.227936,-2.843521,-1.3534546,-1.056488,0.56710815
1602,A,99034533062956,1.0021362,-2.5341187,-2.9525146,-0.5090332,-1.0124359,0.04309082
1602,A,99034583416960,0.5196533,-2.418274,-0.31375122,1.2828369,-0.7901459,-0.54164124
1602,A,99034633770963,1.4204865,-5.6283264,4.938217,0.89442444,-1.1620789,-0.8934479
1602,A,99034684124967,3.9413757,-13.438217,9.969849,-0.12095642,-0.9968872,-0.7003937
1602,A,99034734478971,5.5239716,-12.364166,5.96698,-1.5887146,0.7823639,0.81851196
1602,A,99034784832975,0.9554291,-8.361984,6.874466,-2.0393066,1.4372253,0.8670349
1602,A,99034835186979,-3.048294,-12.909561,8.275116,-2.0270996,1.4802856,0.52612305
1602,A,99034885540983,-1.1802063,-12.084274,-0.0892334,-1.8356171,1.2104492,0.3556671
1602,A,99034935894987,0.69540405,-10.021378,-2.1024017,-1.7220612,1.0741425,0.22453308
1602,A,99034986248991,0.3587494,-8.825867,-1.1860352,-1.8124695,1.7147064,0.008834839
1602,A,99035036602995,-2.3051605,-9.401642,-1.2205505,-1.6694641,1.2229156,-0.34236145
1602,A,99035086956999,-0.50808716,-8.126404,0.2985382,-1.5252533,0.77708435,-0.27571106
1602,A,99035137311003,0.3315735,-8.153366,-0.044296265,-0.9873657,1.0444183,-0.1693573
1602,A,99035187665006,-0.61572266,-8.777527,-1.6863403,-0.16781616,1.1419525,-0.5186615
1602,A,99035238019010,-0.454422,-9.257095,-0.7185669,1.07341,0.69802856,-0.6075592
1602,A,99035288373014,-1.207489,-11.518234,0.5161743,3.2095184,-0.27340698,-0.4937744
1602,A,99035338727018,-1.0141449,-14.144653,2.0510712,3.2671204,0.062927246,-0.10307312
1602,A,99035389081022,-0.6800842,-14.175934,2.9660187,1.9586792,-0.78874207,0.9068146
1602,A,99035439435026,1.1237183,-12.142227,-1.4776001,2.2716064,-1.3804321,0.83480835
1602,A,99035489789030,2.4532623,-15.5420685,-0.7731476,2.4921417,-1.6059875,0.40370178
1602,A,99035540143034,1.8330994,-15.59137,-2.517746,1.7285614,-1.6797943,0.36410522
1602,A,99035590497038,-0.61854553,-9.96138,-2.344635,0.35653687,-1.2216339,0.65390015
1602,A,99035640851042,-0.08206177,-6.267975,-2.531845,-1.193161,-0.48365784,0.9860382
1602,A,99035691205046,1.1595459,-3.6152954,-3.10083,-1.0756226,-0.41758728,0.44114685
1602,A,99035741559049,1.5787048,-2.4558868,-1.902298,0.92411804,-0.767395,-0.23956299
1602,A,99035791913053,1.9144135,-4.8291626,1.845108,0.31159973,-0.55952454,-0.087509155
1602,A,99035842267057,5.1407166,-12.656937,12.468018,0.64338684,-1.0228424,-1.0041199
1602,A,99035892621061,0.5729065,-10.00914,9.168106,-1.3057098,0.6518097,0.51727295
1602,A,99035942975065,4.546646,-9.17775,0.14421082,-2.0789185,0.9033203,1.0898132
1602,A,99035993329069,0.18644714,-7.359894,-5.991638,-2.0068054,1.3207245,0.34681702
1602,A,99036043683073,-7.5575256,-11.349655,-0.68673706,-2.0205078,1.7850647,0.3905182
1602,A,99036094037077,-2.0473022,-11.520813,-2.531784,-1.7609711,1.1738586,0.18334961
1602,A,99036144391081,1.8575592,-9.212112,-0.63345337,-1.7552032,1.7449341,0.06713867
1602,A,99036194745085,-1.6869049,-8.773605,-1.5702667,-1.4839935,0.6671753,-0.3614807
1602,A,99036245099088,-2.2074432,-9.031631,0.1819458,-1.4475403,0.76023865,-0.2649231
1602,A,99036295453092,-0.31114197,-8.189346,0.31904602,-0.9189453,0.5748596,-0.26031494
1602,A,99036345807096,1.2645569,-8.756653,-2.8359528,-0.4248047,1.4281769,-0.33732605
1602,A,99036396161100,-1.3800049,-10.242462,0.12860107,0.43974304,0.8808136,-0.7462311
1602,A,99036446515104,-1.5262756,-10.647293,1.3919067,2.4355927,0.034057617,-0.47964478
1602,A,99036496869108,2.3494415,-13.140808,-1.0853729,4.04187,-0.48387146,-0.60601807
1602,A,99036547223112,-3.133728,-15.874512,2.8175354,2.4999542,0.79367065,0.42903137
1602,A,99036597577116,0.94615173,-10.882767,3.084076,2.3762665,-2.743927,1.5015869
1602,A,99036647931120,0.6383667,-12.910492,-5.3818054,2.6298676,-1.7572784,0.7850189
1602,A,99036698285124,0.36332703,-17.454865,-2.406311,2.0259552,-1.7900543,0.55981445
1602,A,99036748639128,-0.41560364,-9.304443,-0.21202087,0.8592529,-1.5587311,0.6038513
1602,A,99036798993131,-0.18241882,-7.7248993,-3.2085571,-0.5390167,-0.7090759,0.7295532
1602,A,99036849347135,0.87080383,-4.777008,-2.6145935,-1.6053619,-0.5821991,0.5882263
1602,A,99036899701139,1.5217743,-2.6009674,-2.2793274,0.13941956,-1.1876526,-0.27238464
1602,A,99036950055143,1.9299774,-3.04953,-0.7459717,1.3344727,-0.618927,-0.28398132
1602,A,99037000409147,3.6004639,-8.972412,7.1148987,0.1027832,-0.8893738,-0.44903564
1602,A,99037050763151,4.2796783,-17.770874,14.660446,-1.1661987,1.4060669,-0.038589478
1602,A,99037101117155,0.18933105,-5.3948975,6.468109,-2.0086517,2.6760406,1.1287994
1602,A,99037151471159,7.754898,-13.654251,2.366211,-1.9497833,0.54211426,0.6533661
1602,A,99037201825163,3.1203003,-5.01886,0.5240631,-2.0743408,1.5329895,0.37384033
1602,A,99037252179167,-0.8648834,-12.652573,-4.455246,-1.7884674,1.2781982,0.33532715
1602,A,99037302533171,2.2013855,-8.320358,-1.4970856,-1.8164063,1.5361481,0.19897461
1602,A,99037352887174,-0.26428223,-10.179626,-0.6699219,-1.7819061,1.7315979,-0.1793518
1602,A,99037403241178,-3.310318,-8.965744,-0.22305298,-1.4704437,0.7444458,-0.3790741
1602,A,99037453595182,0.6535034,-8.201035,0.9233856,-1.3092194,0.8676605,-0.08514404
1602,A,99037503949186,0.08288574,-7.9762573,-0.7120514,-0.5933533,1.0699005,-0.2770691
1602,A,99037554303190,0.17564392,-8.729553,-2.335434,-0.030212402,1.1192017,-0.50320435
1602,A,99037604657194,-1.1195679,-10.200287,0.9515991,1.5701752,0.32318115,-0.66767883
1602,A,99037655011198,-3.3269653,-12.954468,0.30526733,3.3995667,-0.32852173,-0.5285187
1602,A,99037705365202,0.87745667,-14.044662,1.8709412,3.1082306,0.035232544,0.09576416
1602,A,99037755719206,-0.9793854,-13.612534,2.2905884,2.196518,-0.500473,1.0577698
1602,A,99037806073210,1.7818604,-11.600006,0.5482178,2.5965118,-2.1850128,1.0128326
1602,A,99037856427213,1.4692993,-15.964172,-4.8221893,2.216446,-1.8816986,0.5413513
1602,A,99037906781217,0.73402405,-13.726196,-3.3379211,1.4030304,-1.4892883,0.37631226
1602,A,99037957135221,-1.2677155,-7.5644073,-0.13449097,0.2060852,-1.2472839,0.4765625
1602,A,99038007489225,0.9492035,-5.582596,-2.939743,-1.1064758,-0.88908386,0.63438416
1602,A,99038057843229,1.6168213,-3.058731,-2.6932373,-0.62413025,-0.9724884,0.10005188
1602,A,99038108197233,1.8386383,-2.2356567,-1.3572083,1.0652161,-0.9045105,-0.43850708
1602,A,99038158551237,2.4565887,-5.47287,3.7018433,0.6699066,-1.1198273,-0.5116272
1602,A,99038208905241,3.7184448,-13.410492,9.670425,-0.5810089,-0.56114197,-0.43032837
1602,A,99038259259245,3.2988281,-12.317413,8.113937,-1.7555237,1.278244,0.7671509
1602,A,99038309613249,3.8293762,-8.8237,7.520279,-2.1166534,1.3061829,1.0245209
1602,A,99038359967253,1.339386,-12.723099,6.555008,-2.0232544,0.8575287,0.47410583
1602,A,99038410321256,-2.7434082,-9.949493,-1.1474304,-1.8977051,1.0623932,0.270401
1602,A,99038460675260,0.49380493,-10.513336,-2.7317963,-1.8161621,1.22406,0.24285889
1602,A,99038511029264,1.1129608,-8.50737,-0.88912964,-1.8908844,1.5565186,-0.014724731
1602,A,99038561383268,-1.2167511,-9.426117,-0.90856934,-1.7834015,0.94036865,-0.35263062
1602,A,99038611737272,-0.46903992,-8.008545,0.15457153,-1.3939819,0.5452118,-0.2574463
1602,A,99038662091276,0.76420593,-8.101944,-1.4378357,-0.775177,0.94636536,-0.3555298
1602,A,99038712445280,-0.7486725,-9.662506,-1.4411316,-0.08227539,0.80877686,-0.76667786
1602,A,99038762799284,-2.4335175,-10.500076,0.9944153,1.1934662,0.05342102,-0.51898193
1602,A,99038813153288,-1.010788,-11.567261,0.26332092,3.144104,-0.2549286,-0.4239807
1602,A,99038863507292,-1.7093658,-14.919189,0.7067566,3.1553192,0.58761597,0.008163452
1602,A,99038913861296,0.17112732,-14.175629,1.9032593,2.037445,-1.0931396,1.2100983
1602,A,99038964215299,2.360855,-12.675629,-0.5434265,2.3746338,-1.9429626,1.1801758
1602,A,99039014569303,2.837082,-14.655716,-2.1358337,2.635437,-1.7187347,0.608963
1602,A,99039064923307,0.79833984,-14.278,-1.6239929,1.7210693,-1.6764832,0.45228577
1602,A,99039115277311,-0.8499298,-10.625916,-2.1504364,0.3412323,-1.2269745,0.63056946
1602,A,99039165631315,0.6554718,-6.6387634,-3.1471863,-1.1900787,-0.48684692,0.9001465
1602,A,99039215985319,1.6785278,-3.38385,-3.0976715,-1.1712952,-0.5585785,0.4558258
1602,A,99039266339323,1.226944,-2.2333221,-1.6784363,1.1592865,-0.7218323,-0.3677826
1602,A,99039316693327,1.5571289,-4.24704,2.4871368,0.26922607,-0.7244873,0.023910522
1602,A,99039367055101,5.965561,-14.337067,12.888672,0.83226013,-1.0634003,-0.7939148
1602,A,99039417409105,1.2476196,-9.492767,8.825836,-1.2753601,0.03387451,0.5226593
1602,A,99039467763108,2.3933258,-6.7009277,0.17790222,-2.1125946,0.66630554,0.9359741
1602,A,99039518117112,2.0184937,-13.726318,-5.176819,-2.0429688,1.5401764,0.28952026
1602,A,99039568471116,-6.9460297,-10.980133,2.0522308,-2.0609894,1.8929291,0.3671112
1602,A,99039618825120,-2.091919,-11.78215,-1.3285828,-1.7203522,1.3263855,0.14537048
1602,A,99039669179124,2.5525513,-9.013245,-2.0451813,-1.7448883,1.7885742,0.009475708
1602,A,99039719533128,-2.2419739,-9.035309,-1.6853333,-1.5406799,0.80278015,-0.45532227
1602,A,99039769887132,-2.6838226,-9.8563385,0.54486084,-1.500351,0.7030945,-0.34239197
1602,A,99039820241136,-0.073516846,-7.96109,0.5043793,-0.7651367,0.77124023,-0.28201294
1602,A,99039870595140,1.1040955,-8.658752,-2.6768494,-0.23577881,1.3697815,-0.5602875
1602,A,99039920949144,-1.7108917,-10.8172,0.8813782,0.96798706,0.62094116,-0.70492554
1602,A,99039971303148,-1.6798401,-11.232941,1.6764984,3.4921722,-0.3280182,-0.6637726
1602,A,99040021657151,0.72476196,-13.202972,0.78315735,3.7036438,-0.32913208,-0.39019775
1602,A,99040072011155,-1.7881012,-15.132462,3.1560516,1.6506805,0.8590851,1.0529938
1602,A,99040122365159,2.3140106,-10.734299,1.8130951,2.8030396,-2.021103,0.90289307
1602,A,99040172719163,2.0082397,-17.139969,-2.0227814,2.5127716,-1.7919312,0.5460205
1602,A,99040223073167,1.6092987,-16.95198,-6.7802124,1.6875916,-1.6075897,0.36842346
1602,A,99040273427171,-1.8604431,-8.171646,0.18173218,0.44714355,-1.4774475,0.540329
1602,A,99040323781175,0.6630249,-6.286194,-3.2486267,-1.0993042,-0.51460266,0.8121033
1602,A,99040374135179,0.8700104,-3.4008026,-3.2060242,-1.3307648,-0.70428467,0.3900299
1602,A,99040424489183,1.4471893,-1.9548798,-2.4933167,1.2853546,-1.0575714,-0.43891907
1602,A,99040474843187,1.7453461,-3.2625275,0.16656494,0.87939453,-1.0826416,-0.26454163
1602,A,99040525197191,3.8144684,-13.6058655,11.82608,1.2072296,-2.3236237,-1.0892029
1602,A,99040575551194,2.7110748,-13.8663025,8.36763,-1.3425903,-0.2995453,0.81832886
1602,A,99040625905198,3.3685913,-5.8606873,3.8567505,-2.171997,0.7222748,1.2217255
1602,A,99040676259202,-3.3103027,-6.6426544,-1.7546234,-2.1142273,1.0458679,0.37231445
1602,A,99040726613206,-11.151794,-12.282028,6.60997,-2.1610107,1.9325256,0.5084839
1602,A,99040776967210,-0.9958496,-13.0585785,-2.6890106,-1.6854095,1.1691589,0.20030212
1602,A,99040827321214,2.3990784,-7.9848022,-1.118515,-1.8248444,1.8751984,0.032592773
1602,A,99040877675218,-2.2295227,-9.799835,-1.5055542,-1.6240997,1.4046783,-0.40745544
1602,A,99040928029222,-1.277008,-8.236984,0.4313507,-1.53862,0.7652588,-0.39149475
1602,A,99040978383226,1.0627747,-7.4372864,-0.11380005,-0.85398865,0.97454834,-0.29670715
1602,A,99041028737230,1.5797272,-8.659241,-3.7738953,-0.13943481,1.239624,-0.55851746
1602,A,99041079091233,-1.7969818,-10.953186,1.13797,0.8848572,0.315094,-0.5743561
1602,A,99041129445237,-0.29283142,-11.846542,1.1880646,2.8323822,-0.1600647,-0.33622742
1602,A,99041179799241,-1.5352478,-13.600128,0.5549469,3.4910126,0.42333984,-0.20431519
1602,A,99041230153245,-1.9985504,-15.710815,2.681839,2.434433,-0.15296936,0.7962494
1602,A,99041280507249,1.691391,-11.864166,0.38079834,2.258606,-2.5147858,1.4343109
1602,A,99041330861253,2.0888824,-14.062271,-4.833069,2.6074982,-1.9263,0.7416992
1602,A,99041381215257,1.3381653,-13.621109,-1.1233826,1.9349213,-1.7595825,0.46020508
1602,A,99041431569261,-0.40029907,-9.519211,-1.4248657,0.6124115,-1.4813538,0.5177002
1602,A,99041481923265,0.4057312,-7.034439,-2.6452026,-0.8679352,-0.8156128,0.6714783
1602,A,99041532277269,1.1852112,-3.5854492,-2.797058,-1.1499634,-0.82328796,0.31607056
1602,A,99041582631273,1.4918213,-2.2384796,-1.9451904,0.77204895,-1.1480713,-0.46543884
1602,A,99041632985276,2.2764587,-4.422104,2.3542328,0.5506439,-0.7954254,-0.33584595
1602,A,99041683339280,4.508774,-12.293091,11.3263855,-1.0235596,0.19029236,-0.17408752
1602,A,99041733693284,4.2597656,-11.699112,11.808792,-1.2041016,1.3854828,0.41426086
1602,A,99041784047288,3.473175,-3.339676,1.8573761,-2.131363,1.2288666,1.2728729
1602,A,99041834401292,4.5592957,-8.306473,-4.0480347,-2.013565,0.78048706,0.61680603
1602,A,99041884755296,-3.9815826,-7.6717377,-3.325821,-1.9592896,1.5591125,0.26565552
1602,A,99041935109300,-2.5043182,-11.1692505,-1.0910645,-1.828186,1.6578522,0.3513794
1602,A,99041985463304,1.433609,-9.612534,-1.9394379,-1.7219696,1.7288818,0.1599884
1602,A,99042035817308,-0.30488586,-9.371094,-1.3762665,-1.512085,1.0693359,-0.20059204
1602,A,99042086171312,-2.133194,-8.551758,-0.04484558,-1.3596344,0.61672974,-0.29370117
1602,A,99042136525316,-0.038772583,-8.318176,0.10507202,-1.0460052,0.78977966,-0.2523346
1602,A,99042186879319,0.28457642,-8.781052,-0.9263458,-0.3184204,1.096756,-0.46984863
1602,A,99042237233323,-0.25801086,-9.763794,-0.44726563,0.8255615,0.97406006,-0.6819763
1602,A,99042287587327,-1.8505096,-11.219116,0.7188873,2.9472046,0.057388306,-0.5869751
1602,A,99042337941331,-0.50717163,-13.338242,1.6633301,3.6619415,-0.2502594,-0.2492218
1602,A,99042388295335,-0.16577148,-14.245178,3.272583,2.3829193,-0.01914978,0.72224426
1602,A,99042438649339,-0.30239868,-12.796646,0.48023987,2.35849,-1.1639404,1.1416473
1602,A,99042489003343,1.6319427,-15.68396,-0.5246887,2.5184937,-1.9285583,0.8078308
1602,A,99042539357347,1.0384216,-17.422073,-3.9464111,1.7548981,-1.9136353,0.57948303
1602,A,99042589711351,-0.8445587,-11.291702,-3.3198547,0.5331726,-1.3551178,0.50346375
1602,A,99042640065355,-0.13491821,-6.569214,-1.9862823,-0.8411865,-0.76231384,0.6721802
1602,A,99042690419358,1.3480988,-3.6189575,-2.6680908,-1.4162292,-0.58843994,0.40777588
1602,A,99042740773362,1.8698273,-1.8125305,-2.1871338,0.7239227,-0.83950806,-0.33728027
1602,A,99042791127366,1.8842468,-3.1978912,-0.04298401,0.87120056,-0.6593933,-0.12110901
1602,A,99042841481370,4.9501953,-10.284622,9.088699,0.7030029,-1.0926971,-0.73716736
1602,A,99042891835374,1.6871796,-14.850128,9.868881,-0.7949829,-0.4146576,-0.05001831
1602,A,99042942189378,2.5497437,-6.531479,1.6268158,-1.9668121,1.1372223,0.9329529
1602,A,99042992543382,4.6846924,-13.28717,4.802887,-1.9441223,0.8439789,0.60194397
1602,A,99043042897386,-3.5856323,-10.446304,5.6877136,-2.0671844,1.4152527,0.5623932
1602,A,99043093251390,-2.7359314,-13.030975,-2.4921722,-1.8121033,1.1646118,0.32878113
1602,A,99043143605394,1.8824463,-8.968887,-1.2357941,-1.879242,1.6824799,0.13972473
1602,A,99043193959398,-0.37356567,-9.531937,-1.1798859,-1.7542572,1.6613159,-0.26574707
1602,A,99043244313401,-1.0549469,-8.501953,-0.25099182,-1.6258545,0.62661743,-0.40940857
1602,A,99043294667405,0.49179077,-7.6965027,0.34580994,-1.115036,0.7857361,-0.19812012
1602,A,99043345021409,0.20924377,-8.257919,-2.075409,-0.4395752,1.225357,-0.4216919
1602,A,99043395375413,-1.6339874,-10.311737,-0.32437134,0.2348938,0.7076416,-0.6502533
1602,A,99043445729417,0.26748657,-10.731415,0.56993103,2.062561,-0.06666565,-0.49343872
1602,A,99043496083421,-1.2310028,-12.418121,-0.5975189,3.940689,-0.5540161,-0.5068054
1602,A,99043546437425,-2.5084534,-15.8710785,1.9212189,2.6698914,0.7502899,0.37696838
1602,A,99043596791429,0.9173279,-12.224258,3.4459076,1.8310242,-2.1026,1.5125885
1602,A,99043647145433,0.8360596,-12.764786,-4.5668945,2.4100494,-1.3145447,0.84498596
1602,A,99043697499437,2.1782532,-17.551086,-0.716629,2.1203918,-1.6692047,0.5071411
1602,A,99043747853441,0.3758545,-12.162903,-1.7495728,1.0580139,-1.4747772,0.397583
1602,A,99043798207444,-0.21299744,-8.602966,-2.7157288,-0.40011597,-0.937027,0.5671387
1602,A,99043848561448,0.8794708,-4.876343,-3.1573792,-1.7157745,-0.56663513,0.766098
1602,A,99043898915452,1.8663025,-1.7862854,-3.1341553,0.1111145,-0.9188843,-0.177948
1602,A,99043949269456,1.1620178,-2.4075165,-1.2602997,1.3377686,-0.87815857,-0.3501587
1602,A,99043999623460,3.0509644,-8.519897,6.7065735,-0.6663666,-0.63842773,0.0155181885
1602,A,99044049977464,6.9845734,-18.877228,16.237122,0.5534668,-0.9216614,-0.98742676
1602,A,99044100331468,-0.9928589,-1.6487274,5.08934,-2.022461,0.26913452,1.0217285
1602,A,99044150685472,8.7435,-9.347717,-6.718338,-2.0834808,0.21064758,0.8768921
1602,A,99044201039476,-6.9994354,-6.7704315,-10.712265,-1.9132233,1.1793671,0.2868042
1602,A,99044251393480,-10.029999,-11.688431,2.9885254,-1.7685242,1.3144684,0.37251282
1602,A,99044301747483,0.0052337646,-11.962631,-2.9500732,-1.7400513,1.5787354,0.20353699
1602,A,99044352101487,1.632721,-8.674057,-0.095336914,-1.7089691,1.7608643,-0.13801575
1602,A,99044402455491,-2.2554474,-9.12088,-0.8566742,-1.4779053,0.37617493,-0.38479614
1602,A,99044452809495,0.49630737,-8.291336,-0.10913086,-1.2874451,0.7957001,-0.15174866
1602,A,99044503163499,-0.103012085,-8.219742,-1.1007385,-0.5312195,0.8358307,-0.38824463
1602,A,99044553517503,-0.6427002,-9.839157,-1.1824799,0.18078613,1.1692657,-0.68437195
1602,A,99044603871507,-0.5184479,-10.590408,0.2949524,1.6015625,0.34378052,-0.6061554
1602,A,99044654225511,-2.2591858,-12.046631,1.7019958,3.4473724,-0.3627777,-0.46166992
1602,A,99044704579515,1.0505829,-13.713074,0.8209686,3.0388794,0.017974854,0.11766052
1602,A,99044754933519,-1.0511017,-13.324005,2.7595215,1.9528961,-0.016113281,1.1015778
1602,A,99044805287523,1.7248077,-11.474228,0.6075592,2.418869,-2.155548,1.0778046
1602,A,99044855641526,2.0915222,-16.35408,-2.5788574,2.10289,-1.4991608,0.668396
1602,A,99044905995530,1.5244598,-13.540039,-3.2472382,1.2623749,-1.2996216,0.49517822
1602,A,99044956349534,-1.1029358,-8.177673,-0.19247437,-0.04118347,-1.1515503,0.55963135
1602,A,99045006703538,1.2859955,-6.365799,-3.0985718,-1.3309174,-0.8879547,0.6312866
1602,A,99045057057542,1.5952454,-2.6555023,-2.834671,-0.56521606,-0.98791504,0.08206177
1602,A,99045107411546,1.4823456,-2.261139,-1.4939728,1.7342834,-1.093811,-0.6195526
1602,A,99045157765550,2.6315613,-6.8657837,4.5259705,0.5043335,-0.49404907,-0.5271759
1602,A,99045208119554,4.2757874,-14.535843,11.120102,-1.0608673,1.2602539,-0.13954163
1602,A,99045258473558,3.2174835,-13.975342,6.606247,-1.9517975,1.9158173,0.98828125
1602,A,99045308827562,5.7827454,-7.135315,0.7615051,-2.0750122,0.97073364,0.8276367
1602,A,99045359181566,0.3400421,-5.5013275,-5.0290833,-2.0535889,1.3152313,0.43318176
1602,A,99045409535569,-2.7482605,-12.674103,-3.8747253,-1.8622742,1.1822052,0.47221375
1602,A,99045459889573,0.6840668,-9.826675,-0.7201538,-1.8656311,1.4137878,0.25608826
1602,A,99045510243577,-0.8333435,-9.736481,-0.8725891,-1.7848358,1.6722107,-0.123031616
1602,A,99045560597581,-1.1017914,-8.382843,-0.93478394,-1.5860901,0.9374542,-0.36450195
1602,A,99045610951585,0.86587524,-7.846512,0.6244812,-1.3132019,0.52970886,-0.26010132
1602,A,99045661305589,0.8314514,-8.525131,-1.3089905,-0.5923004,1.0729828,-0.3595581
1602,A,99045711659593,-0.6654663,-9.889221,-1.152359,0.47706604,1.0703888,-0.6030426
1602,A,99045762013597,-1.7860718,-11.251663,1.3666229,2.5737,-0.36050415,-0.74479675
1602,A,99045812367601,0.018203735,-12.331543,1.1237946,3.590744,-0.44132996,-0.6462555
1602,A,99045862721605,-0.17854309,-14.25531,2.4169006,2.6119232,0.3048706,0.135849
1602,A,99045913075608,0.63345337,-12.307846,1.3275299,2.1892242,-0.58695984,0.936615
1602,A,99045963429612,2.3388062,-13.954056,0.4163208,2.322281,-1.1571503,0.7732544
1602,A,99046013783616,2.193756,-17.173233,-1.2316895,1.750534,-0.9842682,0.45329285
1602,A,99046064137620,0.083999634,-11.785355,-1.624054,0.63964844,-0.93110657,0.5070038
1602,A,99046114491624,0.014755249,-7.087448,-2.092041,-0.66700745,-1.281601,0.6997986
1602,A,99046164845628,1.122757,-4.0270233,-3.1325378,-0.96365356,-1.5014038,0.55522156
1602,A,99046215199632,1.204834,-1.8592072,-2.445465,0.9264679,-1.0970154,-0.26708984
1602,A,99046265553636,1.3938599,-3.5634613,0.24307251,0.75354004,-0.60432434,-0.288208
1602,A,99046315907640,3.778656,-10.278381,11.799942,0.84135437,-1.35466,-1.2598572
1602,A,99046366261644,2.8813171,-12.041794,9.525833,-0.3500824,-0.9275818,-0.13661194
1602,A,99046416615648,4.064331,-5.141556,1.2071686,-1.8594055,0.90097046,1.1165161
1602,A,99046466969651,3.521408,-13.611908,8.62088,-1.9886932,0.6000366,0.90296936
1602,A,99046517323655,-3.6732483,-10.302872,7.283081,-1.9841461,1.0135651,0.56300354
1602,A,99046567677659,-2.1662292,-12.978622,-2.5703735,-1.9178314,1.1930084,0.502121
1602,A,99046618031663,2.1087189,-9.378387,-2.1555176,-1.9693756,1.6119232,0.27540588
1602,A,99046668385667,0.62568665,-9.575287,-1.0708618,-1.8697815,1.5786896,-0.10731506
1602,A,99046718739671,-0.35160828,-8.037048,-0.6640625,-1.7278748,0.8126068,-0.2626648
1602,A,99046769093675,0.56658936,-7.786026,0.25506592,-1.2072906,0.8211365,-0.21226501
1602,A,99046819447679,0.14538574,-8.690018,-1.6837158,-0.45845032,1.2495728,-0.40428162
1602,A,99046869801683,-0.16139221,-9.571503,-0.3976593,0.3519745,0.7393799,-0.69007874
1602,A,99046920155687,-1.8494263,-10.71228,0.6487732,2.4693756,-0.3586731,-0.6320648
1602,A,99046970509691,-0.045135498,-12.161148,0.54582214,3.102188,0.44163513,-0.1852417
1602,A,99047020863694,-2.2217865,-15.994186,2.899826,2.4604645,0.38168335,0.7259064
1602,A,99047071217698,1.5754089,-11.980621,1.1671295,2.1271057,-1.7812958,1.2953186
1602,A,99047121571702,1.8408203,-14.576508,-2.6487732,2.521881,-1.3042145,0.57865906
1602,A,99047171925706,2.666504,-14.754822,-3.8638458,2.1570435,-1.2548676,0.14048767
1602,A,99047222279710,0.14250183,-10.042801,-0.5156555,1.2030029,-1.6750946,0.012481689
1602,A,99047272633714,0.72792053,-7.870468,-2.4723816,-0.37965393,-1.3569183,0.33280945
1602,A,99047322987718,1.5939789,-4.460449,-3.0953217,-2.0366821,-0.5556183,0.7801361
1602,A,99047373341722,1.4216156,-2.1352844,-2.259018,1.0353851,-0.66815186,-0.63726807
1602,A,99047423695726,0.43901062,-2.74234,0.08847046,1.5250854,-0.3625183,-0.33952332
1602,A,99047474049730,4.282898,-6.9298706,7.121475,0.88505554,-1.9273529,-1.4500885
1602,A,99047524403733,6.911804,-19.095703,12.033356,-0.8282623,-0.5758362,0.2432251
1602,A,99047574757737,2.6023865,1.0387878,2.4711761,-1.9730835,1.5725708,0.84936523
1602,A,99047625111741,1.2433167,-14.418579,9.580887,-2.0118256,0.98861694,0.67852783
1602,A,99047675465745,-4.1850433,-10.165115,7.1545105,-2.0110931,1.3222656,0.48101807
1602,A,99047725819749,-0.13761902,-12.69574,-2.0660248,-1.9178619,0.8314667,0.4410553
1602,A,99047776173753,0.73713684,-9.10202,-0.8384857,-1.9240112,1.0629425,0.20587158
1602,A,99047826527757,-0.6143341,-9.811249,0.5319214,-1.9252472,1.157547,-0.032302856
1602,A,99047876881761,-2.057495,-8.434326,-0.41114807,-1.7597198,0.66719055,-0.28486633
1602,A,99047927235765,0.43821716,-8.626389,0.018966675,-1.4081268,0.23612976,-0.27946472
1602,A,99047977589769,0.45996094,-8.180527,-0.47872925,-0.6019287,1.1598206,-0.28878784
1602,A,99048027943773,0.7256012,-8.672989,-1.9433899,0.12400818,1.0687561,-0.6587982
1602,A,99048078297776,-0.33638,-11.15152,2.658722,1.73703,0.33529663,-0.5609436
1602,A,99048128651780,-2.090561,-12.71283,-0.3660431,3.574585,-0.4626007,-0.3039856
1602,A,99048179005784,0.022384644,-14.917557,2.6703033,2.864685,-0.31845093,0.6092529
1602,A,99048229359788,-0.7256775,-13.240463,2.341507,1.8318481,-0.63404846,1.2432709
1602,A,99048279713792,0.31974792,-12.227127,0.10972595,2.6712494,-1.1710205,0.78845215
1602,A,99048330067796,2.7445526,-17.877747,-1.3642273,2.11586,-1.4656677,0.54689026
1602,A,99048380421800,1.4299927,-14.84845,-4.198715,1.29216,-1.5690308,0.41882324
1602,A,99048430775804,-0.6311493,-8.68631,-1.809967,-0.14834595,-1.5799255,0.58088684
1602,A,99048481129808,1.2531128,-5.1270294,-3.3854675,-1.3732605,-1.128891,0.6111603
1602,A,99048531483812,1.2749023,-1.8283234,-3.6997528,-0.07911682,-0.9210663,-0.16329956
1602,A,99048581837816,1.0494537,-1.9780731,-1.7612762,1.6366577,-1.0344849,-0.5547943
1602,A,99048632191819,2.8713684,-7.985306,5.4596863,-0.1322937,-0.74479675,-0.42651367
1602,A,99048682545823,5.094513,-15.893585,14.533783,-0.17860413,0.07962036,-0.4736023
1602,A,99048732899827,1.0721436,-7.8728027,3.5319061,-2.0259552,1.2431946,1.1862946
1602,A,99048783253831,4.8987885,-8.115372,-3.684433,-2.2679443,0.7342529,1.0717926
1602,A,99048833607835,-3.4298096,-6.6960144,-7.29245,-2.0966034,1.0793762,0.47729492
1602,A,99048883961839,-6.2790527,-12.806213,-1.2590942,-1.9708862,1.490799,0.43136597
1602,A,99048934315843,-0.28419495,-11.2642975,-2.5213776,-1.8203583,1.6054382,0.18084717
1602,A,99048984669847,0.91778564,-8.58934,-1.2223358,-1.8419952,1.7593536,-0.18467712
1602,A,99049035023851,-1.0449982,-9.209869,-0.9538269,-1.6801758,1.01268,-0.35523987
1602,A,99049085377855,-0.46469116,-8.859375,0.11898804,-1.242157,1.0017853,-0.20248413
1602,A,99049135731858,1.1447144,-8.178467,-2.0939484,-0.48120117,1.1161499,-0.4043274
1602,A,99049186085862,0.6223602,-9.484207,-2.0279388,0.24060059,0.9581909,-0.5842285
1602,A,99049236439866,-1.7078552,-11.055481,1.2789917,1.8865356,0.030670166,-0.4946289
1602,A,99049286793870,-1.4043121,-12.244415,0.96035767,3.4010925,-0.24191284,-0.333313
1602,A,99049337146173,-0.49072266,-14.093185,1.1287689,2.8737335,0.5556183,0.3045807
1602,A,99049387500177,0.20170593,-13.1689,2.2504883,2.221939,-0.5437012,1.0585785
1602,A,99049437854181,2.3496857,-13.112991,-1.1033783,2.4122314,-1.9156799,0.98558044
1602,A,99049488208185,2.3982391,-16.037659,-4.3405914,2.2019196,-1.4430695,0.4295349
1602,A,99049538562189,0.5480194,-12.3940735,-1.768692,1.3687897,-1.5419922,0.30807495
1602,A,99049588916193,-0.38058472,-7.637024,-1.2812805,-0.11425781,-1.1466522,0.5204315
1602,A,99049639270197,1.1964111,-5.1361084,-3.230072,-1.5345306,-0.7615814,0.7032318
1602,A,99049689624200,1.3574219,-2.5323792,-2.5454407,0.23246765,-0.9119415,-0.28259277
1602,A,99049739978204,1.0299683,-2.3851318,-1.059967,1.4416504,-0.7713318,-0.5151825
1602,A,99049790332208,3.4783783,-7.056778,6.512741,0.59046936,-1.2516174,-0.54763794
1602,A,99049840686212,5.639206,-15.532791,11.411743,-0.756958,-0.47572327,-0.14401245
1602,A,99049891040216,4.151596,-8.710556,4.0030975,-1.9607086,1.6951141,0.89112854
1602,A,99049941394220,3.345459,-10.072815,7.5221252,-2.1384735,1.1443024,0.8663635
1602,A,99049991748224,0.60795593,-11.6128845,7.3386536,-2.0809479,0.90689087,0.48236084
1602,A,99050042102228,-1.5207825,-11.49263,-2.3896332,-1.9132385,1.0140076,0.39779663
1602,A,99050092456232,0.10179138,-10.00119,-3.6204681,-1.8405304,1.5150757,0.31555176
1602,A,99050142810236,0.6957092,-9.691345,-1.0619812,-1.7027283,1.9112549,-0.037261963
1602,A,99050193164240,-1.1010742,-8.869736,-0.121017456,-1.6710205,0.80418396,-0.47547913
1602,A,99050243518243,-0.126297,-8.068665,0.7077484,-1.5906525,0.74098206,-0.3375702
1602,A,99050293872247,0.44654846,-8.328125,-1.4034271,-0.76467896,0.9875488,-0.260437
1602,A,99050344226251,-0.6651306,-9.246506,-1.0952148,-0.019851685,0.9010925,-0.71669006
1602,A,99050394580255,-0.7132263,-9.613815,0.02015686,1.3435364,0.23947144,-0.428833
1602,A,99050444934259,-1.7971649,-11.779358,1.3138885,3.4128723,-0.51049805,-0.53015137
1602,A,99050495288263,-1.8545532,-15.603622,1.49469,3.1351013,0.5205841,0.39375305
1602,A,99050545642267,0.32061768,-13.775833,1.6721802,1.9705505,-0.58795166,1.4812317
1602,A,99050595996271,0.8657837,-11.455353,0.24461365,2.658493,-1.9256439,1.2656403
1602,A,99050646350275,2.7689514,-16.675476,-2.5678864,2.459549,-1.8078156,0.72891235
1602,A,99050696704279,0.45448303,-15.971542,-5.441223,1.5731506,-1.7211456,0.41001892
1602,A,99050747058282,-0.4940796,-10.639023,-1.324295,0.38830566,-1.1777649,0.36172485
1602,A,99050797412286,1.6319733,-6.6717834,-2.5509033,-1.013382,-0.8274994,0.54341125
1602,A,99050847766290,1.9933167,-3.0999146,-2.8913116,-1.3224182,-1.0930634,0.08924866
1602,A,99050898120294,1.2817383,-1.7190552,-1.7404022,1.3883972,-1.0807037,-0.6670685
1602,A,99050948474298,1.8225708,-3.700821,1.1116791,0.74845886,-0.49604797,-0.058059692
1602,A,99050998828302,4.9319,-11.277115,10.8059845,-0.22569275,-0.5498047,-0.9095764
1602,A,99051049182306,2.0353088,-16.249817,8.740906,-1.2483063,1.7084045,0.13761902
1602,A,99051099536310,3.9019318,-0.37727356,-0.6785736,-2.1048126,2.776413,1.2663879
1602,A,99051149890314,9.372986,-18.670547,14.87999,-1.8990784,0.5670929,0.70791626
1602,A,99051200244318,1.3268127,-2.200241,-1.7240448,-2.1155548,1.3788147,0.38581848
1602,A,99051250598322,-0.6332855,-14.619522,-6.9392242,-1.7753754,0.9222107,0.23350525
1602,A,99051300952325,1.5995636,-7.7015076,-1.9843903,-1.9387512,1.5576019,0.25401306
1602,A,99051351306329,0.8549347,-9.727234,-0.8777008,-1.9734192,2.0345154,-0.15525818
1602,A,99051401660333,-2.755066,-8.877365,-0.95072937,-1.6271973,0.6173248,-0.47624207
1602,A,99051452014337,0.12889099,-7.8773804,0.69299316,-1.2362976,0.8663788,-0.06568909
1602,A,99051502368341,0.18136597,-8.152206,-1.0385284,-0.33602905,1.175415,-0.5351715
1602,A,99051552722345,0.021652222,-9.522156,-1.9563293,0.52027893,0.49028015,-0.5518036
1602,A,99051603076349,-0.7451782,-10.072815,3.1382751,2.3258972,-0.18399048,-0.38650513
1602,A,99051653430353,-2.3490753,-12.983002,0.16082764,3.8052368,0.17172241,-0.3056488
1602,A,99051703784357,-1.5738525,-15.971436,1.8190765,2.4398956,0.04373169,0.6963196
1602,A,99051754138361,1.7287598,-11.527832,2.975525,1.7801971,-1.9059753,1.3656006
1602,A,99051804492365,1.2334137,-14.510727,-4.2909393,2.5348969,-1.1296692,0.6338959
1602,A,99051854846368,3.4889984,-15.028656,-0.9599304,2.1220398,-1.609909,0.33976746
1602,A,99051905200372,0.10044861,-11.237061,-1.2668915,1.0458221,-1.4842529,0.33662415
1602,A,99051955554376,-0.04298401,-7.9399567,-3.2726898,-0.57185364,-1.1111603,0.6826019
1602,A,99052005908380,0.91033936,-4.32399,-2.7090912,-1.5364685,-0.68455505,0.72084045
1602,A,99052056262384,1.1859436,-1.9119263,-2.4076233,0.4559784,-0.8864441,-0.29167175
1602,A,99052106616388,0.8373871,-2.8098755,-0.09283447,1.3966217,-0.9478302,-0.48414612
1602,A,99052156970392,3.609375,-9.282272,7.8608246,-0.8231354,0.037322998,-0.46714783
1602,A,99052207324396,6.491577,-14.459274,13.524292,-1.1038971,1.8217926,0.023132324
1602,A,99052257678400,2.207016,-3.2507782,4.6575165,-2.1502228,2.1017761,1.1996765
1602,A,99052308032404,8.123962,-11.6185,0.50761414,-2.0702057,0.6953583,0.85513306
1602,A,99052358386407,0.27140808,-4.2628174,-6.4086456,-2.1088562,1.3023987,0.39579773
1602,A,99052408740411,-2.3590698,-12.481613,-1.8442993,-1.9765167,1.4284363,0.4747162
1602,A,99052459094415,0.5346985,-9.507431,-0.48503113,-1.7889557,1.5745239,0.2569275
1602,A,99052509448419,0.10391235,-8.822388,-0.6246033,-1.6877289,1.6075134,-0.17050171
1602,A,99052559802423,-2.3740082,-8.984863,-0.7943573,-1.5617828,0.90016174,-0.4055786
1602,A,99052610156427,-0.39334106,-8.826874,0.039108276,-1.3217773,1.0779877,-0.263443
1602,A,99052660510431,0.9250641,-8.157135,-1.4625092,-0.4622345,1.1287231,-0.46069336
1602,A,99052710864435,0.3907013,-9.247253,-1.7780457,0.5125122,0.9274597,-0.7327728
1602,A,99052761218439,-1.9291534,-10.757446,1.2806396,2.4094543,-0.0020141602,-0.65856934
1602,A,99052811572443,-1.9902039,-13.154739,2.0883484,3.6356354,-0.5467529,-0.3155365
1602,A,99052861926447,-0.35650635,-14.184677,2.7744293,2.5400848,-0.14550781,0.42341614
1602,A,99052912280450,-0.41662598,-13.260559,1.2771454,2.1969147,-0.6803894,1.0317993
1602,A,99052962634454,1.8066406,-14.260483,-0.7486572,2.711258,-1.7496033,0.8339691
1602,A,99053012988458,2.0459747,-17.429276,-2.5614624,2.098755,-1.672348,0.539505
1602,A,99053063342462,-0.19978333,-12.777924,-4.0665283,0.9388428,-1.3852081,0.49227905
1602,A,99053113696466,-0.6924286,-7.0290985,-1.8665771,-0.67233276,-0.79525757,0.67889404
1602,A,99053164050470,1.0677948,-4.1035004,-3.4367828,-1.5005188,-0.61979675,0.60510254
1602,A,99053214404474,1.4834747,-1.5770569,-2.9204712,0.48771667,-0.63768005,-0.09576416
1602,A,99053264758478,1.3412933,-2.4810944,-0.58236694,0.83921814,-0.58551025,-0.3304901
1602,A,99053315112482,3.4162598,-10.848587,8.952515,-0.066085815,-0.14283752,-0.7569885
1602,A,99053365466486,1.5952301,-11.930115,10.795624,-1.064209,1.556427,0.04446411
1602,A,99053415820490,3.89682,-10.211273,3.6730804,-1.8417511,1.1554718,0.97828674
1602,A,99053466174493,3.7430725,-5.1757965,-5.038452,-1.9763947,0.6812134,0.6569519
1602,A,99053516528497,-4.4306946,-8.279999,-6.4388123,-2.1213074,1.1767578,0.39944458
1602,A,99053566882501,-3.3005524,-12.341156,-1.1860809,-2.0467834,1.3647308,0.20361328
1602,A,99053617236505,1.1703949,-9.645813,0.22218323,-2.1151428,2.0652008,0.052642822
1602,A,99053667590509,-0.91978455,-8.708679,-1.6082611,-1.8596802,1.5218201,-0.34544373
1602,A,99053717944513,-0.88327026,-8.627502,0.07911682,-1.5735474,0.6647186,-0.470047
1602,A,99053768298517,0.11677551,-7.888199,0.9228363,-0.9794464,0.90237427,-0.479599
1602,A,99053818652521,0.07911682,-8.711945,-1.947815,-0.21029663,0.9620819,-0.6723633
1602,A,99053869006525,-1.2877197,-9.478302,1.3858643,1.1847076,0.20909119,-0.5337372
1602,A,99053919360529,-1.7910156,-11.333618,0.9532318,3.442398,-0.6478119,-0.6832733
1602,A,99053969714532,-1.3951416,-15.039963,1.3913574,3.1817932,0.1907959,0.094070435
1602,A,99054020068536,1.0970306,-14.385315,2.7480469,1.86409,-0.7145233,1.1673126
1602,A,99054070422540,0.8970642,-12.556168,-0.84161377,2.3755493,-1.0015106,0.96817017
1602,A,99054120776544,3.645752,-16.334137,-0.5745392,2.4874573,-1.5454407,0.5337219
1602,A,99054171130548,1.0860748,-16.065369,-4.0245056,1.7228699,-1.5252686,0.33758545
1602,A,99054221484552,-1.0915375,-9.669083,-2.5888977,0.23513794,-1.1543579,0.5039978
1602,A,99054271838556,0.6819916,-5.4533234,-3.334732,-1.5633087,-0.8434601,0.92611694
1602,A,99054322192560,1.3604889,-2.0575562,-3.4560394,-0.39105225,-0.80830383,0.095047
1602,A,99054372546564,1.0362091,-1.1727142,-2.0778046,1.8671112,-1.0673065,-0.440094
1602,A,99054422900568,1.6398468,-4.7460938,2.728653,0.41537476,-0.94026184,-0.9340668
1602,A,99054473254572,7.568222,-17.640488,16.85527,-1.0032806,1.227951,-0.22657776
1602,A,99054523608575,0.65997314,-3.987793,6.94368,-2.1132202,2.2737274,1.0319824
1602,A,99054573962579,10.549561,-12.184235,1.8257141,-2.4463348,1.0185852,1.0445862
1602,A,99054624316583,5.693802,-7.975708,-0.69595337,-2.3677368,1.4788666,0.5846405
1602,A,99054674670587,0.56874084,-12.914078,-3.226181,-2.0769806,1.3488922,0.36643982
1602,A,99054725024591,1.5139008,-9.082214,-2.2640533,-2.0431519,1.6856842,0.2071991
1602,A,99054775378595,-0.03213501,-9.891205,-0.90597534,-1.7954102,2.2086334,-0.23414612
1602,A,99054825732599,-2.22583,-8.016174,-1.0040588,-1.6794128,0.28816223,-0.61782837
1602,A,99054876086603,0.85868835,-8.23851,1.5085907,-1.4096527,1.025711,-0.22775269
1602,A,99054926440607,0.5142822,-8.078949,-1.3325958,-0.45965576,1.2486877,-0.49441528
1602,A,99054976794611,-1.1397858,-10.368301,-0.007843018,0.27908325,0.59181213,-0.8207855
1602,A,99055027148615,0.1408081,-9.19577,0.77101135,2.41391,-0.21105957,-0.347641
1602,A,99055077502618,-2.4609375,-12.4722595,1.1120758,4.150772,-0.6198883,-0.31532288
1602,A,99055127856622,-2.3431702,-16.85704,2.9708252,2.6473694,0.6734009,0.5701904
1602,A,99055178210626,1.5929565,-11.913864,2.617035,1.8507233,-2.000763,1.6714325
1602,A,99055228564630,2.0585785,-15.412262,-5.770935,2.6021118,-1.48526,0.80267334
1602,A,99055278918634,3.9398804,-16.241776,-0.070892334,2.3079681,-2.0713348,0.37294006
1602,A,99055329272638,-0.49554443,-11.474091,-1.5806732,1.0451355,-1.8102722,0.41383362
1602,A,99055379626642,-0.68933105,-7.313156,-4.3231506,-0.7276764,-1.2384491,0.7687378
1602,A,99055429980646,0.95581055,-3.7457733,-3.6288605,-1.6729736,-0.8942108,0.7980194
1602,A,99055480334650,1.295517,-1.1434479,-2.924759,1.5296478,-1.0118256,-0.89753723
1602,A,99055530688654,1.868576,-2.9381104,0.120773315,1.0631104,-0.64967346,-0.46842957
1602,A,99055581042657,5.697006,-10.692108,10.758423,0.034744263,-1.1050873,-0.9274292
1602,A,99055631396661,7.470886,-15.63829,10.258926,-1.4363861,0.30570984,0.8061371
1602,A,99055681750665,5.122635,-0.65374756,2.9777374,-2.3336945,1.7939758,1.2448273
1602,A,99055732104669,4.0480347,-16.4971,15.926453,-2.1951447,1.0060883,0.58683777
1602,A,99055782458673,-3.6031952,-7.270523,1.4624634,-2.2701569,1.3584137,0.45358276
1602,A,99055832812677,1.2638245,-12.37558,-4.300186,-2.1860962,1.4615936,0.410614
1602,A,99055883166681,1.4676208,-8.829712,-2.0496063,-2.19664,1.9955902,-0.07421875
1602,A,99055933520685,-0.8391571,-9.534744,-0.7045746,-1.8796692,1.3903046,-0.54411316
1602,A,99055983874689,-0.009277344,-7.1190033,0.69744873,-1.4723816,0.8047638,-0.41184998
1602,A,99056034228693,1.469986,-7.718796,-0.5274048,-0.49363708,1.2302704,-0.5099335
1602,A,99056084582697,0.43540955,-9.380432,-1.978653,0.60905457,0.8071289,-0.62805176
1602,A,99056134936700,-1.4252472,-11.2343445,2.6510315,2.6189575,-0.14952087,-0.4431305
1602,A,99056185290704,-1.8152161,-12.876556,1.0581665,3.701645,-0.1463623,-0.23324585
1602,A,99056235644708,-0.36302185,-15.142059,1.896637,2.4099884,-0.085510254,0.8596649
1602,A,99056285998712,0.7865448,-14.287155,1.3918304,2.0837402,-1.4594879,1.4329071
1602,A,99056336352716,1.5023193,-14.867691,-1.0639648,2.6603699,-2.0795898,1.0598755
1602,A,99056386706720,2.2125702,-16.789902,-3.3282623,2.2400208,-2.1123047,0.6647949
1602,A,99056437060724,-0.5554962,-12.672485,-4.470764,0.94955444,-1.7987671,0.6674347
1602,A,99056487414728,-0.35606384,-6.9423065,-2.4306488,-0.6970215,-1.1915741,0.876709
1602,A,99056537768732,1.4304199,-3.9162445,-3.5577698,-1.2642822,-1.0252228,0.5450897
1602,A,99056588122736,0.89338684,-1.6065979,-2.737915,0.5870056,-0.85687256,-0.2619629
1602,A,99056638476740,1.2751923,-2.611145,-0.48356628,1.0872955,-0.85723877,-0.5999603
1602,A,99056688830743,5.2503967,-11.042511,8.210205,-0.47909546,0.046081543,-0.62413025
1602,A,99056739184747,3.1882477,-11.801468,11.741989,-1.662674,2.1345825,0.39042664
1602,A,99056789538751,2.6177216,-10.846558,7.0105743,-2.2934418,1.9366608,1.1664429
1602,A,99056839892755,6.3961334,-9.773056,2.664505,-2.29451,1.4537048,0.71784973
1602,A,99056890246759,2.4150696,-8.348129,-3.0099487,-2.1288452,1.4345245,0.33987427
1602,A,99056940600763,1.565918,-11.435837,-3.3307648,-1.9932251,1.4608917,0.26257324
1602,A,99056990954767,0.86972046,-8.955185,-1.5530853,-1.963562,1.9739532,0.017578125
1602,A,99057041308771,-1.7010498,-8.940857,-0.8596039,-1.8350677,1.1118317,-0.50917053
1602,A,99057091662775,-0.7991638,-7.9996033,0.120529175,-1.4506989,0.7080841,-0.44578552
1602,A,99057142016779,1.4501495,-7.504715,-0.8838043,-0.66049194,1.1382294,-0.44682312
1602,A,99057192370782,-0.50393677,-9.599106,-0.52238464,0.30726624,0.6871338,-0.6035919
1602,A,99057242724786,-1.2221985,-10.594254,0.24253845,2.1705322,-0.26278687,-0.5883026
1602,A,99057293078790,-1.2420807,-11.808884,0.3658142,3.4826202,-0.37113953,-0.48171997
1602,A,99057343432794,-1.7211456,-14.912842,2.4454193,2.8009033,0.6571655,0.24815369
1602,A,99057393786798,1.2584991,-12.340378,2.7105408,2.120224,-1.1721802,1.2536621
1602,A,99057444140802,2.4510193,-14.775024,-2.5008392,2.3190155,-1.6021118,0.98825073
1602,A,99057494494806,3.0339508,-16.582428,-3.3276978,2.3313293,-1.4990387,0.38015747
1602,A,99057544848810,0.18511963,-11.836075,-0.84851074,1.3774261,-1.613678,0.32225037
1602,A,99057595202814,0.20489502,-7.850952,-2.786026,-0.3547516,-1.0191193,0.66381836
1602,A,99057645556818,1.1248627,-4.1464233,-3.5235748,-1.5643768,-0.833786,0.7813873
1602,A,99057695910822,0.9955292,-1.5748901,-2.874588,0.9341583,-1.0495605,-0.43185425
1602,A,99057746264825,1.4123993,-1.7709808,-1.2593384,1.3304138,-0.78492737,-0.35139465
1602,A,99057796618829,5.6468353,-9.538391,9.236816,0.6162567,-1.0395813,-1.0876617
1602,A,99057846972833,5.877548,-17.02066,11.1866,-1.0773163,0.046188354,0.32496643
1602,A,99057897326837,4.9031982,-10.772018,5.0598145,-1.9921265,0.79364014,1.416565
1602,A,99057947680841,-0.426651,-2.237915,-3.4869232,-2.1654358,1.1765747,0.5102844
1602,A,99057998034845,-11.08551,-13.239334,0.040878296,-2.2676697,1.7809906,0.34751892
1602,A,99058048388849,-2.8082428,-12.291428,0.47628784,-1.8248749,0.7322693,0.29382324
1602,A,99058098742853,3.7064362,-8.895355,-1.6103821,-1.8618774,1.1914978,0.25428772
1602,A,99058149096857,-0.864563,-9.748184,-1.5763855,-1.9952545,1.6195526,-0.19580078
1602,A,99058199450861,-2.8984985,-9.171661,-0.5220947,-1.907547,0.9410858,-0.4758606
1602,A,99058249804865,0.8304901,-8.352905,1.0552368,-1.3838043,0.83776855,-0.38128662
1602,A,99058300158868,0.22854614,-8.934998,-1.2570343,-0.41737366,1.2573395,-0.53630066
1602,A,99058350512872,0.761322,-9.690842,-1.40448,0.55592346,0.35360718,-0.81559753
1602,A,99058400866876,-2.3590393,-11.078384,2.7425995,2.935318,-0.46070862,-0.5672455
1602,A,99058451220880,-1.4055786,-12.842697,0.73558044,3.6616058,-1.0011444,0.21766663
1602,A,99058501574884,-1.9165497,-16.176056,4.8965454,2.449936,0.7134857,1.1403503
1602,A,99058551928888,-0.2387085,-11.969666,0.8830719,2.78862,-2.5528564,1.4017334
1602,A,99058602282892,2.4521637,-17.027695,-5.4909515,2.5860596,-1.5787201,0.66778564
1602,A,99058652636896,2.752411,-17.628754,-4.749008,2.259735,-1.9887543,0.21340942
1602,A,99058702990900,-1.0956726,-8.3702545,0.88035583,0.94825745,-1.7460785,0.2527008
1602,A,99058753344904,0.08401489,-7.42688,-3.7827759,-0.95661926,-0.96984863,0.71640015
1602,A,99058803698907,0.48677063,-3.2272797,-3.9096832,-1.6133728,-0.78608704,0.5289459
1602,A,99058854052911,1.6337433,-0.90249634,-2.5693665,1.9232788,-1.3730621,-0.9100952
1602,A,99058904406915,1.1268463,-2.7725677,-0.68096924,0.85191345,-0.89256287,-0.009933472
1602,A,99058954760919,4.785446,-12.098434,12.732971,-0.6421509,-0.022979736,0.06599426
1602,A,99059005114923,2.522644,-17.059784,8.983459,-1.612793,1.790329,0.5226898
1602,A,99059055468927,3.437851,1.8636932,0.06921387,-2.5387115,3.3030548,1.3005524
1602,A,99059105822931,12.994934,-16.646439,16.768875,-2.0410004,1.2087097,0.7512665
1602,A,99059156176935,5.7704926,1.4597778,-3.0453644,-2.171692,1.3393707,0.5279236
1602,A,99059206530939,1.8139496,-15.548889,-8.219849,-1.8537292,1.3654633,0.32878113
1602,A,99059256884943,0.22471619,-8.022461,-0.75231934,-2.046341,2.4205322,4.5776367E-5
1602,A,99059307253557,-0.97514343,-9.757156,-0.46264648,-1.7651367,1.7904053,-0.5099182
1602,A,99059357607560,-0.49884033,-8.096985,0.061645508,-1.5773926,0.88316345,-0.40264893
1602,A,99059407961564,1.7402649,-7.663803,0.0084991455,-0.7285309,1.0642853,-0.47529602
1602,A,99059458315568,-0.11630249,-9.657059,-3.224762,0.054397583,1.1336823,-0.7736969
1602,A,99059508669572,-2.2431946,-10.827621,2.386383,1.5750427,0.21292114,-0.817749
1602,A,99059559023576,-1.8020325,-12.134293,1.2689209,3.5492249,-0.41160583,-0.30673218
1602,A,99059609377580,-0.25289917,-14.428284,2.1416168,3.1630707,-0.3237915,0.32398987
1602,A,99059659731584,-2.2603912,-14.702728,3.4853668,2.3308258,0.3295288,1.1840515
1602,A,99059710085588,0.8765106,-14.240463,-1.6936188,2.978775,-2.0847473,1.0638428
1602,A,99059760439592,3.7635956,-18.303696,-2.8600006,2.516449,-1.8035583,0.467453
1602,A,99059810793596,2.13385,-14.1332245,-2.1415405,1.5530701,-1.8289948,0.1965332
1602,A,99059861147600,-0.20817566,-5.7975616,1.4706421,-0.12617493,-1.4294434,0.5343628
1602,A,99059911501603,0.6784973,-4.822174,-3.9930267,-1.4717255,-0.9314575,0.86824036
1602,A,99059961855607,1.0243835,-1.3287354,-3.4960022,-0.0019683838,-0.9701233,0.069488525
1602,A,99060012209611,1.0118103,-1.2902222,-1.8104706,1.5143433,-0.9251709,-0.7202606
1602,A,99060062563615,2.8893738,-7.526825,6.4051666,0.48423767,-1.0802155,-0.5792389
1602,A,99060112917619,4.348404,-12.74852,12.989029,0.02015686,-0.45918274,-0.24084473
1602,A,99060163271623,3.2716064,-8.579651,2.6240387,-1.8416748,0.6943054,0.82829285
1602,A,99060213625627,4.0675354,-8.985092,-1.4134369,-2.48349,1.6624756,0.79393005
1602,A,99060263979631,-4.5320587,-11.031769,3.6260223,-2.3836365,1.8975372,0.41755676
1602,A,99060314333635,-6.5151978,-12.022018,3.0345154,-2.1094208,1.5622253,0.2428894
1602,A,99060364687639,0.6235199,-11.332977,-2.749298,-2.05484,1.7810059,-0.014892578
1602,A,99060415041642,-0.6099396,-8.999252,-2.4726715,-2.0403137,1.7435608,-0.4885559
1602,A,99060465395646,-1.1312256,-8.990662,-0.044937134,-1.8943634,0.98439026,-0.59140015
1602,A,99060515749650,0.039489746,-8.439926,1.4435425,-1.1843872,0.8482361,-0.45895386
1602,A,99060566103654,0.6375427,-8.261215,-1.7901917,-0.15533447,0.7763977,-0.6626892
1602,A,99060616457658,0.12806702,-8.859482,-0.13589478,1.5068207,0.0051879883,-0.34277344
1602,A,99060666811662,-1.9241943,-10.511993,3.3299408,3.1444244,0.11959839,-0.112457275
1602,A,99060717165666,-2.2968903,-14.858856,1.9642181,3.234085,0.36946106,0.42288208
1602,A,99060767519670,1.8171234,-14.7369995,2.462738,2.270752,-0.97146606,1.2967529
1602,A,99060817873674,2.953354,-14.150772,-1.4234467,2.5008698,-1.2967529,0.9436188
1602,A,99060868227678,3.9032745,-15.679169,-3.1439514,2.8179169,-1.574707,0.32518005
1602,A,99060918581682,1.3493805,-13.762924,-2.602478,1.96315,-1.8854675,0.1815033
1602,A,99060968935685,-1.3455963,-9.835678,-4.366867,0.3976593,-1.6528931,0.46580505
1602,A,99061019289689,0.1503601,-5.537613,-3.9427643,-1.5158997,-0.9719696,0.96318054
1602,A,99061069643693,1.0887146,-1.9104767,-2.6611023,-0.41462708,-1.1143188,-0.0071868896
1602,A,99061119997697,0.54216003,-1.2104645,-1.4304047,1.0589752,-0.9165802,-0.501709
1602,A,99061170351701,2.0999756,-5.124008,5.7139587,0.3506775,-0.8850708,-0.4955902
1602,A,99061220705705,7.032654,-15.496765,11.660446,-0.9507904,0.7685547,-0.15286255
1602,A,99061271059709,2.3013,-4.9079437,8.764496,-2.1053314,2.5957184,0.9707947
1602,A,99061321413713,6.310196,-13.917801,10.422028,-2.259964,1.5709076,1.0620422
1602,A,99061371767717,5.732025,-4.9597626,3.2938232,-2.3446655,1.6228027,0.5037842
1602,A,99061422121721,1.8631897,-11.568176,-4.4403534,-2.1160889,1.3212585,0.32803345
1602,A,99061472475725,1.8339691,-9.491699,-2.653717,-1.9762573,1.5522156,0.23150635
1602,A,99061522829728,0.5323639,-9.395187,-0.84280396,-1.8739319,2.1427002,-0.044067383
1602,A,99061573183732,-2.1369324,-8.477386,-1.0100403,-1.8140259,0.56269836,-0.46064758
1602,A,99061623537736,0.33370972,-7.7535095,0.49430847,-1.4768524,0.72639465,-0.25865173
1602,A,99061673891740,0.18922424,-7.784912,-0.91368103,-0.6294098,1.1741333,-0.35414124
1602,A,99061724245744,-1.5354309,-9.58754,-0.02243042,0.21429443,0.60310364,-0.613739
1602,A,99061774599748,-0.23930359,-9.32576,0.71276855,2.4167786,-0.31913757,-0.38555908
1602,A,99061824953752,-1.198349,-12.068329,0.23182678,3.4645386,0.42292786,-0.3535614
1602,A,99061875307756,-2.8084564,-17.03151,1.9408112,2.7084656,0.32478333,0.7183533
1602,A,99061925661760,3.5376587,-11.914917,3.2517853,2.0439453,-2.4497528,1.5092316
1602,A,99061976015764,0.9637909,-15.869919,-4.3127136,2.580307,-1.7359619,0.7289734
1602,A,99062026369767,2.820343,-15.160934,-2.5033875,2.428955,-1.9461975,0.32876587
1602,A,99062076723771,-0.792099,-10.168671,-0.30548096,1.2846069,-1.7952423,0.30415344
1602,A,99062127077775,0.3838501,-7.9899597,-2.9502869,-0.23851013,-1.0836945,0.6705475
1602,A,99062177431779,0.34098816,-4.7297516,-3.0556335,-1.9560547,-0.71440125,1.0010529
1602,A,99062227785783,1.2085724,-2.255188,-2.573578,0.04055786,-1.4059601,-0.20700073
1602,A,99062278139787,0.4041443,-2.0777893,-1.5678558,2.046814,-0.4089508,-0.4278412
1602,A,99062328493791,3.2030334,-5.6185913,4.336975,0.26081848,-1.5083923,-1.5400848
1602,A,99062378847795,8.3354645,-19.007568,18.032227,-1.2141724,0.5073395,0.41157532
1602,A,99062429201799,1.1460876,-0.043060303,5.9319916,-2.2034302,1.7628784,1.3494873
1602,A,99062479555803,11.449417,-16.522827,7.4571686,-2.334671,1.2459869,0.9673004
1602,A,99062529909807,1.0903473,-8.580566,3.2372131,-2.2936096,2.2443695,0.5464325
1602,A,99062580263810,-0.8366394,-13.591202,-3.831833,-2.0634918,1.5947113,0.33055115
1602,A,99062630617814,2.9441223,-7.522812,-1.9331665,-1.9101715,1.6633453,0.14227295
1602,A,99062680971818,0.17333984,-9.553131,-1.0421753,-1.8780823,1.8472137,-0.17248535
1602,A,99062731325822,-3.4244537,-8.596054,-0.96195984,-1.691864,0.3128662,-0.49667358
1602,A,99062781679826,-0.14491272,-8.376083,1.5279999,-1.2779846,0.7555084,-0.26498413
1602,A,99062832033830,-0.06997681,-8.233826,-0.55133057,-0.3697052,0.87342834,-0.62120056
1602,A,99062882387834,-0.89489746,-9.900421,0.1282959,0.7806854,0.3107605,-0.69447327
1602,A,99062932741838,-0.7342529,-9.872635,1.2025299,2.6452026,-0.15940857,-0.4532776
1602,A,99062983095842,-1.0779572,-12.902695,1.3630371,3.355133,0.19975281,-0.2111969
1602,A,99063033449846,-0.1665802,-15.212555,2.1943054,2.7149048,-0.192276,0.7388916
1602,A,99063083803850,3.5996094,-12.390213,0.34080505,2.2714386,-1.5019226,1.307312
1602,A,99063134157853,1.2712097,-15.707275,-4.3015137,2.6844788,-1.0309143,0.5356598
1602,A,99063184511857,2.990448,-14.159943,-1.6889954,1.966629,-1.6110992,0.2757721
1602,A,99063234865861,0.85746765,-9.547104,-0.42723083,0.7237549,-1.5481873,0.23251343
1602,A,99063285219865,0.79963684,-5.9349365,-1.672226,-0.86512756,-1.3222198,0.63417053
1602,A,99063335573869,0.08277893,-3.1442566,-3.3236084,-1.0457001,-1.1957397,0.3570404
1602,A,99063385927873,0.9395447,-1.1235199,-2.5687256,1.3008118,-1.0565643,-0.70262146
1602,A,99063436281877,1.2404785,-3.8467255,1.3854828,1.0701904,-1.4074249,-0.62557983
1602,A,99063486635881,4.746399,-12.221069,10.167557,-0.26005554,-0.6821594,-0.73210144
1602,A,99063536989885,5.9705353,-14.173737,9.866135,-1.5515137,1.2506714,0.5984802
1602,A,99063587343889,5.112854,-5.5596313,2.9165192,-2.2187347,1.5276947,0.9185333
1602,A,99063637697892,6.2898407,-11.108459,4.635071,-2.2338257,1.0705414,0.6468048
1602,A,99063688051896,2.3925629,-12.980942,-0.16438293,-1.9604645,0.80555725,0.39527893
1602,A,99063738405900,-1.4989014,-10.277435,-2.1344147,-1.7983398,0.57144165,0.35887146
1602,A,99063788759904,-0.5526123,-8.698105,-0.7033844,-1.9649048,1.0036011,0.15255737
1602,A,99063839113908,-1.1334991,-9.387604,-0.13552856,-1.9508667,1.16156,-0.03375244
1602,A,99063889467912,-0.28334045,-8.244476,0.6223602,-1.6684418,0.7924042,-0.15834045
1602,A,99063939821916,0.87968445,-8.114471,0.69525146,-1.1148834,0.9612732,-0.34083557
1602,A,99063990175920,0.045440674,-8.914215,-0.4928589,-0.29959106,1.0643768,-0.52757263
1602,A,99064040529924,-0.6223297,-10.074783,0.7020111,1.402832,0.35821533,-0.5243683
1602,A,99064090883928,-1.1441803,-11.884064,0.408432,3.392868,-0.17840576,-0.54971313
1602,A,99064141237932,-1.5234833,-15.478378,0.55093384,3.3259125,0.51138306,-0.013076782
1602,A,99064191591935,0.48417664,-14.182816,2.6438599,2.293274,-0.88105774,1.102417
1602,A,99064241945939,1.5566559,-12.823456,-0.8862915,2.3005219,-2.0046234,1.1594086
1602,A,99064292299943,1.5218048,-15.5896,-2.8741608,2.2000885,-1.5787506,0.5966797
1602,A,99064342653947,0.99424744,-13.813568,-1.7835236,1.5207977,-1.5876007,0.42099
1602,A,99064393007951,-0.18037415,-9.542587,-2.4700012,0.23783875,-1.4245758,0.5674896
1602,A,99064443361955,0.6926422,-5.93927,-3.0596924,-1.5718842,-1.1444702,0.7541199
1602,A,99064493715959,1.302185,-2.7213898,-2.9891052,-0.15330505,-1.2721558,-0.19874573
1602,A,99064544069963,1.289505,-1.2680359,-2.1030426,1.3602448,-0.8774872,-0.4522705
1602,A,99064594423967,2.3666382,-5.0855103,4.3239594,0.0119018555,-0.34332275,-0.37297058
1602,A,99064644777971,7.578308,-15.027145,12.959808,-0.9851532,1.1790314,0.022369385
1602,A,99064695131975,4.1714478,-1.056366,5.896179,-2.0453491,2.821762,0.9715576
1602,A,99064745485978,7.818863,-9.331512,12.594055,-2.0592194,1.4382172,0.88897705
1602,A,99064795839982,7.0000916,-4.655258,4.345978,-2.1963043,1.2109528,0.5249634
1602,A,99064846193986,2.175537,-9.989395,-6.0240936,-1.9302673,1.0276184,0.4499054
1602,A,99064896547990,1.0581207,-9.671356,-3.0560455,-1.8421783,1.0475769,0.41970825
1602,A,99064946901994,0.37846375,-9.826324,-0.41822815,-1.9420471,1.5878448,0.08377075
1602,A,99064997255998,-1.7374573,-9.017532,-1.2332764,-1.7416229,0.99858093,-0.30218506
1602,A,99065047610002,0.22816467,-7.6753845,0.23561096,-1.416336,1.1681671,-0.2454834
1602,A,99065097964006,0.59339905,-8.1280365,-0.63365173,-0.61016846,1.5022278,-0.5402527
1602,A,99065148318010,1.0109863,-9.2413025,-1.7725677,0.3453369,0.8993225,-0.6277313
1602,A,99065198672014,0.11727905,-10.116394,0.63490295,2.6476288,0.030792236,-0.55233765
1602,A,99065249026017,-0.8732147,-12.978729,-0.018753052,3.538559,-0.205719,-0.117889404
1602,A,99065299380021,-2.9584656,-16.597183,3.814331,2.4859924,1.0455627,0.8229675
1602,A,99065349734025,0.5838318,-11.918198,1.4019775,2.5487823,-2.188919,1.4098663
1602,A,99065400088029,1.2322235,-16.002243,-2.595993,2.491211,-1.7031097,0.7394104
1602,A,99065450442033,2.3726044,-15.897034,-3.7815704,2.0887299,-2.1032104,0.5025482
1602,A,99065500796037,-1.30336,-8.970642,0.6465454,0.91578674,-1.8374329,0.44517517
1602,A,99065551150041,0.35046387,-7.7942047,-4.586487,-0.6945648,-1.3783417,0.8286743
1602,A,99065601504045,0.48854065,-4.098755,-2.9595032,-2.187973,-0.84062195,0.7090912
1602,A,99065651858049,1.318985,-1.7749329,-2.6841736,1.7185516,-1.3600159,-0.8295288
1602,A,99065702212053,1.0950012,-2.0342712,-1.6082001,0.71606445,-0.6707916,-0.090927124
1602,A,99065752566057,4.935852,-10.128799,11.853729,0.1993103,-1.0771027,-1.2507172
1602,A,99065802920060,3.513855,-18.872482,12.648865,-1.1684418,1.210434,0.48651123
1602,A,99065853274064,4.457672,2.5781403,-1.7282257,-2.2427826,2.5126038,1.1772156
1602,A,99065903628068,7.5966034,-19.233276,19.047028,-1.9831543,0.57507324,0.7042084
1602,A,99065953982072,4.5390472,-3.9375916,-0.60787964,-2.3169098,1.5077515,0.39544678
1602,A,99066004336076,0.41488647,-15.8954315,-8.310654,-1.7212067,0.9354553,0.37364197
1602,A,99066054690080,1.9919891,-6.0400085,-1.0794067,-1.8752441,1.4185638,0.30262756
1602,A,99066105044084,0.21725464,-10.521423,-0.78622437,-1.9443665,2.0405579,-0.08001709
1602,A,99066155398088,-1.741745,-7.71611,-0.20054626,-1.7636719,0.36669922,-0.31506348
1602,A,99066205752092,0.84840393,-7.167755,0.93403625,-1.2694855,1.0435181,-0.12948608
1602,A,99066256106096,-0.6602936,-8.6341095,-2.1786804,-0.44213867,1.2397003,-0.62542725
1602,A,99066306460100,-1.5897369,-10.3302,-0.23045349,0.3717804,0.50286865,-0.5870514
1602,A,99066356814103,0.84532166,-9.814316,0.88430786,2.5046997,0.037200928,-0.5072479
1602,A,99066407168107,-1.7675323,-13.499649,-0.83877563,3.9427795,-0.45521545,-0.45729065
1602,A,99066457522111,-1.2444458,-16.003494,3.5853882,2.7012787,0.4172058,0.58361816
1602,A,99066507876115,0.8651886,-11.63858,0.8378296,2.3531952,-1.9767303,1.4071045
1602,A,99066558230119,1.6489258,-15.390945,-7.2175293,2.632248,-0.9742279,0.60491943
1602,A,99066608584123,3.2010345,-15.292847,-0.4194336,1.9507751,-1.8747101,0.41496277
1602,A,99066658938127,-1.0809021,-10.635635,-0.1303711,0.8043213,-1.6529694,0.4842987
1602,A,99066709292131,-0.28497314,-6.9626465,-3.822403,-0.8049774,-1.2926788,0.8599701
1602,A,99066759646135,-0.10662842,-3.920456,-2.9578094,-1.4017944,-0.82429504,0.63783264
1602,A,99066810000139,1.5409088,-1.367569,-2.796753,1.0556793,-1.0649414,-0.37921143
1602,A,99066860354142,1.6240234,-3.3764496,0.120010376,1.2859497,-0.75686646,-0.3453064
1602,A,99066910708146,5.4907684,-11.268677,10.416901,0.09951782,-0.8134613,-0.77378845
1602,A,99066961062150,6.857773,-14.136337,12.514053,-1.4915771,0.5141449,0.658432
1602,A,99067011416154,4.5173035,-3.481186,2.6416626,-2.2610168,1.1994934,0.9029236
1602,A,99067061770158,4.277832,-12.612137,3.1889648,-2.1562195,1.1104431,0.45391846
1602,A,99067112124162,-6.2240753,-10.7078705,3.2190247,-2.001831,1.2359619,0.55937195
1602,A,99067162478166,-0.4769745,-12.3502655,-2.7585907,-1.7048798,1.0661011,0.37467957
1602,A,99067212832170,0.10133362,-8.940994,-1.3252106,-1.9343567,1.8144989,0.17098999
1602,A,99067263186174,-1.4754028,-9.65329,-0.7700043,-1.8754578,1.4582825,-0.1703949
1602,A,99067313540178,-0.08630371,-7.425644,-0.15898132,-1.4648743,0.75050354,-0.21757507
1602,A,99067363894182,1.1517639,-7.6357727,-0.7674713,-0.710968,1.164444,-0.34266663
1602,A,99067414248185,-1.0800934,-9.870178,-1.4520721,0.0012817383,0.8591461,-0.50338745
1602,A,99067464602189,-1.9157104,-11.229004,1.9326477,1.6061859,-0.12434387,-0.58906555
1602,A,99067514956193,-1.5944061,-11.825638,0.3643036,3.5144348,-0.5398407,-0.82144165
1602,A,99067565310197,-2.4528198,-14.597839,0.64749146,3.187622,0.5707092,-0.32658386
1602,A,99067615664201,0.76127625,-13.452988,3.5448608,2.4119263,-0.24667358,0.7485657
1602,A,99067666018205,2.8097992,-12.632095,-0.2245636,2.4936066,-1.417511,0.9861145
1602,A,99067716372209,2.5417175,-16.841263,-4.034363,2.0919647,-1.286377,0.4443817
1602,A,99067766726213,1.2531128,-12.985168,-0.1482544,1.348175,-1.8947449,0.31074524
1602,A,99067817080217,-0.33311462,-7.003174,-1.1324005,-0.10899353,-1.4784241,0.5790558
1602,A,99067867434221,0.78681946,-4.29982,-3.8279877,-1.3486176,-1.2383423,0.7778778
1602,A,99067917788225,0.5421753,-1.4818573,-2.7946167,0.4393921,-1.1495056,-0.19665527
1602,A,99067968142228,0.82444763,-1.4503479,-1.753479,1.8380432,-0.44273376,-0.60357666
1602,A,99068018496232,3.6153564,-7.321411,6.9219513,-0.11906433,-0.67570496,-0.534317
1602,A,99068068850236,6.3961334,-15.85498,10.827179,-1.4627838,0.4887085,-0.40367126
1602,A,99068119204240,4.4831543,-8.326553,5.0071106,-2.1496582,2.4499664,0.80888367
1602,A,99068169558244,4.5921173,-8.079315,8.31897,-2.4275513,1.1491547,1.2654724
1602,A,99068219912248,1.7679138,-8.943405,3.2754364,-2.3287506,0.56663513,0.65512085
1602,A,99068270266252,-4.8272552,-10.621979,-3.0158386,-2.2018738,1.2078857,0.6657257
1602,A,99068320620256,-3.2387695,-10.941757,-1.681961,-1.9428253,1.514679,0.5676117
1602,A,99068370974260,0.7751312,-9.703949,-0.7765045,-1.7969055,1.9316864,0.12695313
1602,A,99068421328264,-0.46446228,-8.84169,-0.56373596,-1.7082672,0.89904785,-0.15032959
1602,A,99068471682267,-0.0712738,-7.792343,-0.036972046,-1.4937134,0.8631439,-0.12055969
1602,A,99068522036271,0.8527832,-7.822098,-2.5282593,-0.73812866,1.3815002,-0.30236816
1602,A,99068572390275,-1.2373657,-9.667404,-0.53253174,0.1668396,0.8102875,-0.46240234
1602,A,99068622744279,0.5156708,-9.827026,1.5383759,1.9204865,-0.275589,-0.36676025
1602,A,99068673098283,-1.4509888,-11.30423,1.1240082,3.6412506,0.020614624,-0.5682068
1602,A,99068723452287,-4.3253937,-16.385101,1.3022461,2.909851,-0.15704346,0.24346924
1602,A,99068773806291,1.8739777,-11.923492,3.383194,2.9080505,-2.2092285,0.94358826
1602,A,99068824160295,0.14596558,-14.161575,-4.702362,2.857727,-1.2474976,0.33596802
1602,A,99068874514299,1.8661804,-17.083984,-4.581787,2.1573792,-1.5988464,0.27252197
1602,A,99068924868303,0.19805908,-10.918945,1.2918854,1.4022369,-1.8824158,0.1811676
1602,A,99068975222307,-0.6968231,-7.6785126,-1.7705536,-0.06568909,-1.5974121,0.47203064
1602,A,99069025576310,-1.2212219,-6.050995,-3.2168884,-2.1337433,-0.7963104,0.80448914
1602,A,99069075930314,0.36193848,-2.0249634,-2.8819885,1.6638794,-1.9982452,-0.6651306
1602,A,99069126284318,1.300705,-1.4272003,-2.547638,1.0168304,-0.76213074,-0.2180481
1602,A,99069176638322,4.016556,-7.2135315,8.626434,1.0014648,-1.950119,-1.4766998
1602,A,99069226992326,7.2866364,-18.00412,12.517166,-1.1504669,-0.32624817,0.5340271
1602,A,99069277346330,2.9728851,-2.3292847,-2.2232208,-2.4700928,1.7369385,1.3334961
1602,A,99069327700334,2.8969421,-15.888672,10.034119,-2.1887054,0.5659027,0.6678467
1602,A,99069378054338,-7.0248413,-11.020386,4.081131,-2.1165771,1.2797699,0.5200043
1602,A,99069428406788,-2.5536346,-13.076416,-3.2407227,-1.8626556,0.8335266,0.5661011
1602,A,99069478760792,0.6989441,-8.660065,-2.347519,-1.8835297,1.4321136,0.22286987
1602,A,99069529114796,-0.1280365,-10.333054,-1.0984039,-1.779129,1.663559,-0.1302185
1602,A,99069579468799,-0.24606323,-6.905716,0.57974243,-1.8246002,0.6494293,-0.25422668
1602,A,99069629822803,0.50730896,-7.9210052,1.227066,-1.0647278,1.3202972,-0.038619995
1602,A,99069680176807,2.1210175,-8.107834,-3.6889648,-0.44880676,1.2539063,-0.6532593
1602,A,99069730530811,-2.655899,-10.411758,1.6056671,0.2866516,-0.118621826,-0.5142975
1602,A,99069780884815,0.89282227,-10.464615,-0.0072631836,2.5866852,-0.36940002,-0.43336487
1602,A,99069831238819,-3.8515778,-13.984161,0.05291748,4.077957,-0.5592804,-0.44688416
1602,A,99069881592823,-2.3047333,-16.278793,3.449936,2.5776978,0.71203613,0.650589
1602,A,99069931946827,3.2548828,-10.319916,1.5681,2.095932,-2.877304,1.8151093
1602,A,99069982300831,1.2602844,-15.595535,-6.229477,2.58815,-0.9946594,0.785202
1602,A,99070032654835,2.480545,-16.276596,-0.64172363,1.8360748,-1.9837494,0.59077454
1602,A,99070083008838,0.5196533,-9.704712,0.015304565,0.8178406,-1.9402466,0.5057831
1602,A,99070133362842,0.39291382,-7.7506256,-3.855301,-0.6147766,-1.3551941,0.6147003
1602,A,99070183716846,0.28149414,-3.9580536,-3.0704803,-1.4704132,-0.9281006,0.5836029
1602,A,99070234070850,0.9191284,-1.5828705,-3.1787567,0.8837738,-1.1238403,-0.36924744
1602,A,99070284424854,1.5026703,-2.7335358,-0.9142761,0.92555237,-0.3874817,-0.26849365
1602,A,99070334778858,4.897232,-10.950012,9.1354065,-1.0629578,0.21307373,-0.41308594
1602,A,99070385132862,7.279541,-15.188919,14.169403,-1.128067,2.0130005,-0.26148987
1602,A,99070435486866,2.2626953,-1.1488037,2.2949219,-2.336731,2.138092,1.1784973
1602,A,99070485840870,8.248322,-11.794388,-0.9785614,-2.1865387,0.27624512,0.93200684
1602,A,99070536194874,-2.3396606,-2.6548157,-6.8092194,-2.1171112,0.88391113,0.40411377
1602,A,99070586548878,-4.657669,-13.317902,-1.5550232,-1.888031,1.1946411,0.53460693
1602,A,99070636902881,-0.7705078,-9.793457,-0.45222473,-1.6908264,1.6319275,0.24885559
1602,A,99070687256885,0.313797,-9.380417,-1.1407928,-1.7113342,1.6008911,-0.11714172
1602,A,99070737610889,-1.03508,-9.169022,-0.6351013,-1.7146454,0.5276489,-0.26391602
1602,A,99070787964893,0.58976746,-7.917984,-0.29026794,-1.306015,0.9563141,-0.20187378
1602,A,99070838318897,0.11746216,-8.304047,-1.3092499,-0.39279175,1.082962,-0.46264648
1602,A,99070888672901,-0.81062317,-9.855362,-0.33895874,0.7238312,0.8223572,-0.57585144
1602,A,99070939026905,-0.63339233,-10.681381,1.0781097,2.8975372,0.2119751,-0.607193
1602,A,99070989380909,-1.9622345,-13.2690735,1.8905487,4.057892,0.10862732,-0.5427551
1602,A,99071039734913,0.2861328,-14.683517,2.0014954,2.6828918,-0.20510864,0.6859894
1602,A,99071090088917,1.6457062,-13.217026,-0.7587738,2.269806,-1.7120514,1.1924133
1602,A,99071140442921,1.9416046,-15.848801,-2.999466,2.5360718,-1.8976898,0.5902252
1602,A,99071190796924,2.1860657,-15.964676,-0.62283325,1.9860382,-2.2559357,0.33468628
1602,A,99071241150928,-0.024108887,-9.873352,-1.9339752,0.79608154,-1.8684082,0.47911072
1602,A,99071291504932,-0.5162201,-6.1219788,-2.730774,-0.7748718,-1.3344269,0.85931396
1602,A,99071341858936,0.5191803,-3.412201,-3.6288147,-1.0351868,-0.5481415,0.4330902
1602,A,99071392212940,1.3465576,-1.4846954,-3.5827484,0.5064697,-0.05027771,-0.323349
1602,A,99071442566944,3.049881,-3.899292,1.3720703,0.55371094,-0.17715454,-0.52464294
1602,A,99071492920948,7.6347046,-12.9205475,11.306717,-0.512619,1.0951538,-0.5814667
1602,A,99071543274952,5.785858,-11.379593,10.097092,-1.5735474,2.7847443,0.37423706
1602,A,99071593628956,7.021042,-8.895981,2.8078003,-2.264328,1.5375671,1.1874237
1602,A,99071643982960,6.544632,-6.254059,-2.8006592,-2.238327,0.5827179,0.7708893
1602,A,99071694336963,-1.2660522,-7.5677185,-5.1641235,-2.1787872,1.1741791,0.5985718
1602,A,99071744690967,-1.9710846,-11.908447,-2.7427063,-1.9349976,1.3135834,0.5606384
1602,A,99071795044971,0.06260681,-9.897568,-0.5705414,-1.7900238,1.7280731,0.27619934
1602,A,99071845398975,-0.7116394,-9.038422,-0.44171143,-1.712616,1.1922913,-0.14378357
1602,A,99071895752979,-0.68470764,-8.594833,-0.066970825,-1.649231,1.032135,-0.21044922
1602,A,99071946106983,0.7642975,-7.670395,0.50808716,-1.0378113,1.0815582,-0.28979492
1602,A,99071996460987,1.4107208,-8.307419,-1.4090118,-0.27778625,1.0274506,-0.53274536
1602,A,99072046814991,0.31472778,-9.583298,-0.17402649,0.9107361,0.768631,-0.5113373
1602,A,99072097168995,-2.3926086,-11.260681,1.1886902,3.386856,-0.20135498,-0.8200531
1602,A,99072147522999,-0.49723816,-13.1311035,2.2221375,3.481247,0.06251526,-0.19720459
1602,A,99072197877003,0.04032898,-13.570175,2.8736267,2.1888123,-0.6329193,0.9371338
1602,A,99072248231006,0.032684326,-13.6371155,-1.4462433,2.5594635,-1.7733765,1.1895752
1602,A,99072298585010,2.2297668,-16.794128,-0.52497864,2.4964905,-2.1382294,0.75653076
1602,A,99072348939014,1.1342163,-16.828934,-5.614502,1.723877,-2.0028229,0.51408386
1602,A,99072399293018,-0.9756775,-10.41864,-3.0982056,0.4798584,-1.44133,0.5491333
1602,A,99072449647022,0.39091492,-5.406616,-3.324051,-0.8664093,-1.069107,0.8051758
1602,A,99072500001026,0.9213562,-2.3704681,-2.9976654,-1.2833099,-0.6448517,0.34432983
1602,A,99072550355030,1.7548676,-1.9536438,-2.9466248,1.2866669,-0.17289734,-0.50453186
1602,A,99072600709034,2.0346375,-3.6206665,-0.27201843,0.71588135,-0.9315796,-0.3017273
1602,A,99072651063038,6.652527,-12.245224,12.606247,0.8668823,-1.0565796,-1.1422577
1602,A,99072701417042,1.221344,-13.991791,7.911316,-1.3388824,0.6586914,0.68455505
1602,A,99072751771046,4.1253204,-7.0963135,0.4686737,-2.2895508,1.0616455,1.2763824
1602,A,99072802125049,2.295868,-10.849899,-2.552887,-1.9903107,0.95428467,0.21272278
1602,A,99072852479053,-8.365738,-10.351913,1.2342682,-2.0689697,1.6874847,0.51345825
1602,A,99072902833057,-2.2986603,-13.433258,-2.8150024,-1.7070923,1.412323,0.521225
1602,A,99072953187061,3.0079193,-7.899597,-0.8527832,-1.7993622,1.9094696,0.20492554
1602,A,99073003541065,-0.7340851,-10.019089,-1.3430481,-1.5991821,1.7219696,-0.32180786
1602,A,99073053895069,-1.526474,-7.13768,0.40983582,-1.5556183,0.87879944,-0.24205017
1602,A,99073104249073,1.3966827,-7.1445465,0.77201843,-0.9476013,0.9822998,-0.26730347
1602,A,99073154603077,0.75956726,-9.076096,-3.0666962,-0.30621338,1.1953583,-0.6847534
1602,A,99073204957081,-2.116623,-11.322586,1.7810059,0.5044708,0.38072205,-0.6221771
1602,A,99073255311085,-2.2601013,-10.829758,1.3330078,2.9632874,0.011047363,-0.59420776
1602,A,99073305665088,-0.08824158,-14.172943,-1.025711,3.7244873,-0.37364197,-0.3394165
1602,A,99073356019092,-2.1310577,-15.589066,4.3397064,2.271225,1.3171844,0.81318665
1602,A,99073406373096,0.740448,-11.292435,-0.3045807,2.7347717,-3.1147156,1.4350891
1602,A,99073456727100,3.5676727,-17.421173,-5.1507263,2.4158478,-1.9474945,0.67048645
1602,A,99073507081104,2.0954895,-14.412323,-1.7851715,1.8361816,-2.076416,0.419281
1602,A,99073557435108,-2.8947449,-7.622284,1.4730225,0.71458435,-1.7948151,0.54823303
1602,A,99073607789112,0.082107544,-6.283142,-3.3161926,-0.8128357,-1.0427399,0.9555969
1602,A,99073658143116,-0.41081238,-4.9202423,-2.395523,-1.6772461,-0.13937378,0.7288513
1602,A,99073708497120,1.2882538,-2.743225,-2.315979,0.8422241,-0.9987488,-0.38423157
1602,A,99073758851124,2.0709991,-3.9638367,-0.04763794,1.1282349,-0.3471222,-0.20222473
1602,A,99073809205128,5.4997253,-10.6028595,11.166931,-1.731308,0.88227844,-0.057373047
1602,A,99073859559131,6.756485,-15.555435,13.801834,-1.6330261,3.174286,0.066589355
1602,A,99073909913135,1.7388611,3.6012573,3.128296,-2.5604095,3.763321,1.1932068
1602,A,99073960267139,6.292572,-15.270508,9.758408,-1.6238403,0.32513428,0.4605713
1602,A,99074010621143,2.355606,0.29301453,-7.8631744,-1.8640747,0.8381195,0.37130737
1602,A,99074060975147,-2.9675598,-13.762405,-4.966873,-1.6232452,1.2556305,0.41523743
1602,A,99074111329151,0.59703064,-7.306534,1.4367828,-1.7559204,1.7763367,0.16447449
1602,A,99074161683155,-0.78637695,-9.403442,-0.16973877,-1.651535,1.4137421,-0.20077515
1602,A,99074212037159,-1.1785431,-7.9874725,0.087524414,-1.406189,0.7615204,-0.286438
1602,A,99074262391163,0.028747559,-8.07753,0.20521545,-0.8768921,1.3184357,-0.35232544
1602,A,99074312745167,-0.08085632,-9.414642,-2.3229828,-0.34205627,1.070694,-0.5961609
1602,A,99074363099171,-0.7080536,-10.814941,0.24578857,0.6529999,0.047973633,-0.52500916
1602,A,99074413453174,-1.2488403,-11.037521,-0.009292603,2.776291,-0.57518005,-0.51867676
1602,A,99074463807178,-3.2931824,-13.767319,0.38113403,3.6562195,-0.13291931,-0.3428192
1602,A,99074514161182,-2.1532593,-15.652023,2.793747,2.5894775,-0.4903717,0.7506256
1602,A,99074564515186,0.68814087,-12.416641,-0.17120361,2.3098755,-2.085022,1.2500305
1602,A,99074614869190,2.198471,-14.783798,-4.6930847,2.4863892,-1.3623657,0.5427704
1602,A,99074665223194,2.2744904,-14.874939,-0.09126282,1.7591858,-2.0376434,0.42582703
1602,A,99074715577198,-1.5041656,-10.346481,-1.291153,0.5636749,-1.538559,0.4466858
1602,A,99074765931202,-1.565155,-7.0552673,-4.0017853,-1.0245972,-0.8657379,0.6430054
1602,A,99074816285206,0.76020813,-3.4822235,-2.7986755,-0.97366333,-0.7535858,0.27941895
1602,A,99074866639210,1.5198059,-1.6569672,-2.5719147,1.0241241,-0.69332886,-0.2461853
1602,A,99074916993213,2.0101776,-3.9351196,0.64982605,0.5890198,-0.5272827,-0.42382813
1602,A,99074967347217,5.7932434,-12.251785,10.587555,-0.97476196,0.74298096,-0.53286743
1602,A,99075017701221,4.863312,-9.604996,10.894379,-1.7481079,2.8869781,0.45298767
1602,A,99075068055225,5.1863556,-7.41922,3.5892181,-2.150589,1.6974945,0.97340393
1602,A,99075118409229,5.760971,-9.548828,0.13450623,-2.010086,0.6117096,0.554657
1602,A,99075168763233,-1.7883453,-6.9711456,-4.8341675,-1.9828644,1.2307739,0.5155182
1602,A,99075219117237,-1.8448639,-10.597977,-2.7344513,-1.7350922,1.2653656,0.46632385
1602,A,99075269471241,0.9523163,-9.03569,-1.0342255,-1.738617,1.792633,0.13874817
1602,A,99075319825245,-0.35165405,-9.340942,-1.3337555,-1.7680359,1.3133545,-0.22938538
1602,A,99075370179249,-0.8773804,-8.612473,-0.22805786,-1.6799927,0.96510315,-0.12684631
1602,A,99075420533253,0.78160095,-7.647766,-0.48524475,-0.99128723,1.0543823,-0.20126343
1602,A,99075470887256,-0.06991577,-8.312302,-2.471115,-0.33576965,0.7776947,-0.5873413
1602,A,99075521241260,-0.5753937,-9.764023,-0.23582458,0.61058044,0.39671326,-0.39382935
1602,A,99075571595264,-3.0896912,-10.866852,1.9329529,2.8500977,-0.010070801,-0.6315918
1602,A,99075621949268,-2.3246307,-13.552795,0.9693756,3.5137634,0.13653564,-0.2754364
1602,A,99075672303272,0.16098022,-14.522736,1.5540161,2.4300842,-0.025772095,0.7399597
1602,A,99075722657276,1.8306732,-12.251663,0.7119751,2.5646667,-1.0844879,1.0045624
1602,A,99075773011280,2.807602,-14.735199,-2.0071106,2.5573425,-1.5104828,0.585907
1602,A,99075823365284,2.1256714,-16.343994,-5.9633636,1.9717407,-1.6885529,0.2795105
1602,A,99075873719288,0.2794037,-9.102875,0.39552307,0.8665161,-1.5065765,0.33911133
1602,A,99075924073292,-0.13575745,-6.4273834,-0.8764038,-0.84295654,-1.03125,0.6538391
1602,A,99075974427296,1.1092224,-3.8803253,-3.0802612,-2.064209,-0.35186768,0.6928406
1602,A,99076024781299,0.6677551,-1.8935852,-2.3008118,1.2747345,-1.1928406,-0.42616272
1602,A,99076075135303,0.09941101,-2.6226807,-0.4203186,0.9382782,-0.95710754,-0.1869812
1602,A,99076125489307,5.7818756,-11.181961,9.103622,0.4403534,-0.914917,-0.8961792
1602,A,99076175843311,1.8571777,-16.055359,10.187546,-1.2179108,0.38194275,0.34599304
1602,A,99076226197315,3.123703,-7.202057,-1.3691559,-2.1342926,1.1423187,1.1087952
1602,A,99076276551319,6.2177734,-11.618393,2.2743378,-1.8735657,0.8061218,0.36169434
1602,A,99076326905323,-5.2760925,-10.117538,1.7746277,-1.9672089,1.4299927,0.5066223
1602,A,99076377259327,-2.823471,-12.40744,-2.4831543,-1.5319214,0.9753723,0.35830688
1602,A,99076427613331,1.8240204,-8.363586,-0.76420593,-1.7095032,1.0518494,0.27679443
1602,A,99076477967335,-0.6352539,-9.801743,-0.9193573,-1.7668915,1.6361389,-0.041656494
1602,A,99076528321338,-1.9214783,-8.139435,0.08772278,-1.6153259,0.5065613,-0.31251526
1602,A,99076578675342,-0.9264984,-8.013733,1.973114,-1.2594299,0.91038513,-0.118255615
1602,A,99076629029346,-0.4367981,-8.771759,-2.3235626,-0.39883423,1.3740692,-0.40208435
1602,A,99076679383350,2.2489624,-9.623337,-1.2592316,0.15660095,1.0705414,-0.5997009
1602,A,99076729737354,-2.723648,-10.600464,2.3647308,2.2224884,-0.019577026,-0.69363403
1602,A,99076780091358,2.1078491,-12.582062,-0.7149048,4.3389893,-0.6964264,-0.84654236
1602,A,99076830445362,-4.268387,-16.63118,3.294342,2.655838,0.7655487,0.53359985
1602,A,99076880799366,-0.10194397,-10.378799,2.092041,1.7644043,-2.802597,1.881958
1602,A,99076931153370,-0.15722656,-14.807449,-6.358185,2.7880707,-1.401886,0.614151
1602,A,99076981507374,1.9692535,-17.485779,-0.31152344,1.9546509,-1.429657,0.15174866
1602,A,99077031861378,1.9667511,-11.166306,-0.647995,1.114975,-1.6416321,0.013977051
1602,A,99077082215381,0.6727295,-7.9858093,-2.2455597,-0.36888123,-1.6359711,0.22608948
1602,A,99077132569385,1.5141449,-4.569992,-2.9284668,-2.0752716,-0.8473358,0.667984
1602,A,99077182923389,0.8967743,-1.578537,-3.614746,0.4397583,-1.0395355,-0.35635376
1602,A,99077233277393,0.72076416,-1.5879822,-0.92536926,2.1168518,-0.22839355,-0.48638916
1602,A,99077283631397,3.163971,-7.2005157,5.7387543,-0.5704498,-1.2362366,-0.9029236
1602,A,99077333985401,8.691193,-17.323303,13.563522,-1.2148132,1.488266,0.2604828
1602,A,99077384339405,1.816803,2.980301,3.0436401,-2.1156006,2.2556,1.1323547
1602,A,99077434693409,8.080566,-14.256897,7.6555634,-2.0273132,0.24157715,0.84898376
1602,A,99077485047413,1.8536377,-7.9615936,-1.2319946,-2.0661316,0.8352356,0.4433899
1602,A,99077535401417,-1.3416138,-11.85083,-3.354416,-1.862915,0.9848633,0.6051178
1602,A,99077585755421,0.27079773,-8.776596,-1.3674011,-1.7416687,1.0128937,0.37539673
1602,A,99077636109424,0.5388031,-9.944168,-0.11340332,-1.7919312,1.2604065,0.12504578
1602,A,99077686463428,-1.0639343,-8.414841,-0.65641785,-1.7001343,0.9461212,-0.12174988
1602,A,99077736817432,0.46801758,-8.852005,0.6707611,-1.5027313,0.8142395,-0.033355713
1602,A,99077787171436,1.0375824,-8.176834,-0.68263245,-0.569397,1.3367615,-0.32391357
1602,A,99077837525440,1.0791168,-8.932404,-2.42659,0.31785583,1.143692,-0.48387146
1602,A,99077887879444,-0.5319824,-9.774414,2.7124329,2.268631,0.5753021,-0.5532532
1602,A,99077938233448,-2.735199,-12.753616,0.7145996,3.977188,-0.028198242,-0.5182495
1602,A,99077988587452,0.13383484,-13.821503,2.694809,2.6737366,-0.0026550293,0.58729553
1602,A,99078038941456,-0.19929504,-12.823105,0.90774536,1.958313,-0.9944916,1.231247
1602,A,99078089295460,1.4088287,-14.090057,-2.5950928,2.6444397,-1.600174,0.71569824
1602,A,99078139649463,2.8074493,-17.64035,-1.2237701,1.9213562,-1.4098358,0.4284973
1602,A,99078190003467,0.8514099,-13.52005,-5.2328796,0.8832855,-1.220871,0.37501526
1602,A,99078240357471,0.17132568,-6.880951,-0.8386688,-0.4774933,-1.4161835,0.5814514
1602,A,99078290711475,0.9967041,-3.709076,-2.638733,-1.3987579,-1.248642,0.44754028
1602,A,99078341065479,1.3411407,-1.6192169,-2.7639465,0.27998352,-1.085907,-0.18566895
1602,A,99078391419483,0.7797394,-2.6007538,-0.68544006,1.4926605,-1.0622253,-0.36393738
1602,A,99078441773487,3.6348267,-10.293945,8.732788,0.006668091,0.06959534,-0.46784973
1602,A,99078492127491,5.2822723,-15.117249,13.008514,-1.0958252,1.9633331,0.10630798
1602,A,99078542481495,3.8462982,-10.634399,3.3343658,-2.073227,1.8438416,1.0709839
1602,A,99078592835499,6.4240875,-8.511475,-1.1785431,-2.0876312,0.6860657,0.81651306
1602,A,99078643189503,0.14906311,-6.3635254,-5.132675,-2.0589447,1.1736755,0.455719
1602,A,99078693543506,-2.6552887,-11.741867,-3.0048676,-1.8761749,1.3456879,0.4928894
1602,A,99078743897510,0.08743286,-10.450165,-1.2925873,-1.6835632,1.2379303,0.30194092
1602,A,99078794251514,0.39224243,-9.539719,-1.3185425,-1.66539,1.4524689,0.06895447
1602,A,99078844605518,-1.3025513,-9.083313,-0.8743439,-1.6272583,1.0441132,-0.13998413
1602,A,99078894959522,-0.26940918,-8.1749115,0.6269684,-1.2414856,0.9466858,-0.16629028
1602,A,99078945313526,0.5573883,-8.38147,-1.2539825,-0.53718567,1.2666168,-0.37400818
1602,A,99078995667530,-0.1331482,-9.822327,-0.6551361,0.08456421,0.9803467,-0.44631958
1602,A,99079046021534,-1.9198456,-11.558411,1.5536194,1.6039581,0.4333191,-0.6403198
1602,A,99079096375538,-1.7558594,-12.585892,-0.15498352,3.3199158,0.42138672,-0.6075287
1602,A,99079146729542,-0.8792572,-14.56366,0.82850647,2.8421478,0.45558167,0.23182678
1602,A,99079197083546,0.59768677,-12.336136,3.1639404,2.097229,-1.871872,1.225357
1602,A,99079247437549,0.055603027,-12.777496,-1.9517975,2.1839752,-2.0935974,1.0944824
1602,A,99079297791553,0.5779419,-15.413406,-3.007553,1.9708862,-1.6671143,0.747879
1602,A,99079348128118,0.12867737,-11.664886,0.50930786,1.2791901,-1.9194336,0.65922546
1602,A,99079398482122,-0.22576904,-8.314026,-0.82974243,0.17106628,-1.4911957,0.6646881
1602,A,99079448836126,0.5208435,-6.0625,-2.6963654,-1.073822,-0.86065674,0.73646545
1602,A,99079499190130,1.4936218,-3.5953827,-2.5235748,-0.76911926,-1.05513,0.13876343
1602,A,99079549544134,1.3634338,-3.2198334,-1.9388428,1.2455292,-0.8670349,-0.28115845
1602,A,99079599898138,2.0317535,-5.003433,2.2103882,0.38864136,-1.0196075,-0.23104858
1602,A,99079650252142,5.241211,-14.733673,12.47757,-0.20678711,0.057144165,-0.745224
1602,A,99079700606146,0.13012695,-10.286743,9.608032,-1.737915,2.386032,0.50527954
1602,A,99079750960149,5.1170654,-12.2109375,2.2183228,-2.2578278,0.7682495,1.0425873
1602,A,99079801314153,5.324188,-3.0419464,-5.9849396,-2.167801,0.93167114,0.4836731
1602,A,99079851668157,-4.444748,-10.996506,-5.5362244,-2.1104736,1.7171326,0.51283264
1602,A,99079902022161,-3.036499,-11.175308,-1.5841675,-1.6898193,1.0270233,0.22492981
1602,A,99079952376165,0.4513855,-9.717606,-0.48506165,-1.7073975,1.4999084,0.09857178
1602,A,99080002730169,-1.6773834,-9.28302,-2.0393677,-1.7504272,0.8936615,-0.23498535
1602,A,99080053084173,-0.9750519,-8.882172,0.35301208,-1.6812134,1.074234,-0.13642883
1602,A,99080103438177,0.4848175,-7.869934,0.824646,-0.93032837,0.8586426,-0.18315125
1602,A,99080153792181,1.5371857,-9.029861,-3.6570587,-0.23979187,1.2867126,-0.5316467
1602,A,99080204146185,-1.1443024,-10.141876,0.15905762,0.99209595,1.0339661,-0.5879059
1602,A,99080254500189,-4.422394,-11.82959,2.1356812,3.8227997,-0.251297,-0.871933
1602,A,99080304854192,4.10083,-13.342072,2.1433258,2.896286,0.8530121,0.081207275
1602,A,99080355208196,0.30082703,-13.2982025,3.023758,2.235382,0.15873718,1.2706757
1602,A,99080405562200,-1.1782379,-12.600159,-0.22903442,2.506363,-2.5196075,1.4927368
1602,A,99080455916204,3.0660706,-17.137314,-4.3130035,2.4587708,-2.312912,0.92515564
1602,A,99080506270208,-0.63801575,-16.709518,-9.672379,1.5413818,-1.7464752,0.569397
1602,A,99080556624212,-1.8066711,-9.948532,-1.1413879,0.38476563,-1.2633057,0.3681183
1602,A,99080606978216,0.18304443,-7.022812,-3.1168365,-0.7770691,-1.1219177,0.42658997
1602,A,99080657332220,2.0729218,-3.261444,-2.390152,-1.6712494,-1.1667786,0.37745667
1602,A,99080707686224,1.6295319,-2.1524353,-2.3477478,2.115738,-1.2496033,-0.88905334
1602,A,99080758040228,1.0681152,-2.927063,-1.3693848,1.2900848,-1.1265106,-0.03439331
1602,A,99080808394232,4.5626526,-11.778839,11.434448,-0.8805237,-0.989624,-0.42825317
1602,A,99080858748235,1.1396637,-18.273972,11.384186,-1.000946,1.9861603,-0.27989197
1602,A,99080909102239,2.1321564,2.3498535,-2.0736084,-2.1450653,2.6644897,0.90675354
1602,A,99080959456243,9.451477,-17.872116,6.8293915,-2.036972,0.35031128,0.9725189
1602,A,99081009810247,1.7892303,-4.5406647,-4.627426,-2.0374908,1.0164337,0.3937378
1602,A,99081060164251,-3.8054962,-12.272308,-3.059311,-1.9039154,1.3731842,0.66645813
1602,A,99081110518255,-0.6652374,-10.100037,-0.74819946,-1.6528015,1.3273468,0.22512817
1602,A,99081160872259,1.0540924,-9.884842,-0.8790741,-1.7663422,1.6296539,0.056121826
1602,A,99081211226263,-1.5236206,-9.3181,-1.3292847,-1.6159515,1.1403961,-0.20376587
1602,A,99081261580267,-0.10443115,-8.4066925,0.2259674,-1.358139,0.7765503,-0.10671997
1602,A,99081311934271,0.42799377,-7.7789307,-0.5581207,-0.47357178,1.1994934,-0.2753601
1602,A,99081362288274,-0.0786438,-9.31662,-1.950058,-0.10536194,0.8639374,-0.5135803
1602,A,99081412642278,-1.109726,-11.930786,2.647583,1.1310577,0.1809845,-0.35742188
1602,A,99081462996282,-2.3548737,-11.140137,-0.15522766,3.1410828,0.15988159,-0.6963196
1602,A,99081513350286,-1.2544708,-14.10939,-1.2892609,3.2925873,0.4828949,-0.13252258
1602,A,99081563704290,1.3722382,-14.533142,1.6595917,2.421646,-0.46342468,0.60339355
1602,A,99081614058294,2.526352,-11.625488,0.40768433,2.710907,-1.697464,0.8584137
1602,A,99081664412298,1.1524353,-14.955124,-6.8296204,2.2127228,-1.296402,0.45562744
1602,A,99081714766302,1.3204498,-13.4383545,-3.3074188,1.4195251,-1.4278412,0.4131775
1602,A,99081765120306,-1.2761993,-7.805832,0.41423035,0.32783508,-1.409378,0.6311188
1602,A,99081815474310,0.044174194,-6.3905945,-3.2506866,-1.2215881,-0.7604675,0.84643555
1602,A,99081865828314,0.83592224,-3.7627869,-2.6251678,-1.0180969,-1.012085,0.31600952
1602,A,99081916182317,1.4171906,-2.6379547,-1.4089661,1.3549042,-1.3113708,-0.4597931
1602,A,99081966536321,2.1565094,-5.0056915,2.1023712,1.2499847,-1.3375702,-0.5708008
1602,A,99082016890325,5.1722717,-12.6978,11.026291,-0.00579834,-1.22052,-0.6184082
1602,A,99082067244329,5.5682983,-14.220383,9.915939,-1.5069427,0.5085602,0.732193
1602,A,99082117598333,2.4340973,-3.9889374,0.6259155,-2.0819702,0.95521545,0.64897156
1602,A,99082167952337,-2.4941864,-7.1477356,2.7918243,-2.084198,1.2341614,0.33389282
1602,A,99082218306341,-4.657318,-13.236969,2.9763641,-1.9155579,1.0939484,0.43432617
1602,A,99082268660345,-0.38215637,-9.528442,-1.2703247,-1.6964111,0.64556885,0.23503113
1602,A,99082319014349,0.35256958,-8.925995,-0.92684937,-1.7853394,1.1664124,0.028823853
1602,A,99082369368353,-2.208969,-9.410355,-0.5849304,-1.7472534,1.270462,-0.19335938
1602,A,99082419722357,-0.4675598,-8.590958,-0.042160034,-1.6020355,0.86946106,-0.18147278
1602,A,99082470076360,1.152008,-8.653931,-0.16766357,-1.0664825,0.89993286,-0.23800659
1602,A,99082520430364,0.43008423,-8.9375,-1.8999023,-0.39730835,1.0031128,-0.53349304
1602,A,99082570784368,-0.47349548,-10.005753,-0.5817566,0.74302673,0.7353821,-0.5355377
1602,A,99082621138372,-2.370041,-11.4142,1.1531677,2.8519897,0.010498047,-0.5344391
1602,A,99082671492376,-1.1298676,-13.461777,1.659256,3.383377,0.27278137,-0.057403564
1602,A,99082721846380,0.19429016,-13.293121,2.408249,2.2648468,-0.3323059,0.9020691
1602,A,99082772200384,0.58052063,-12.504395,-0.20552063,2.4459076,-1.1295776,1.0119934
1602,A,99082822554388,2.7244568,-15.017944,-1.595108,2.4551086,-1.2810516,0.57691956
1602,A,99082872908392,2.4193268,-15.771347,-3.2888947,1.8499451,-1.5729675,0.2934723
1602,A,99082923262396,0.2203064,-10.997818,-2.5010986,0.80737305,-1.5109558,0.33110046
1602,A,99082973616399,-0.48754883,-7.0427246,-2.3404083,-0.7549896,-1.2018127,0.6533356
1602,A,99083023970403,0.5032959,-3.894928,-2.9749298,-1.3009186,-0.9558563,0.2982025
1602,A,99083074324407,1.1362,-2.0841675,-2.1149292,0.7936859,-1.1577301,-0.300766
1602,A,99083124678411,0.96684265,-3.8401642,1.802002,0.89933777,-0.81222534,-0.24058533
1602,A,99083175032415,5.2283325,-11.479553,11.949738,0.51171875,-0.42947388,-0.9481354
1602,A,99083225386419,2.859848,-12.992203,8.297226,-1.1898193,1.0145721,0.37057495
1602,A,99083275740423,7.6574707,-9.998352,-0.34490967,-2.09581,1.0015717,1.2160339
1602,A,99083326094427,1.8087769,-6.5051575,-5.2067413,-2.0230255,0.9682007,0.52186584
1602,A,99083376448431,-7.7654724,-11.233093,-3.1473694,-1.9921722,1.5157623,0.5077362
1602,A,99083426802435,-3.3200378,-12.562363,-1.767334,-1.6833954,1.2461395,0.39974976
1602,A,99083477156439,0.8126831,-9.238525,-0.86938477,-1.7810822,1.462204,0.2740326
1602,A,99083527510442,-0.49665833,-9.648621,-1.2556152,-1.6457367,1.457428,-0.10140991
1602,A,99083577864446,-1.2577972,-8.394302,-0.3736725,-1.6158905,0.5359192,-0.19142151
1602,A,99083628218450,0.45661926,-7.7124634,1.058609,-1.2468262,0.91885376,-0.17323303
1602,A,99083678572454,0.7832489,-8.190674,-2.8336487,-0.57185364,1.2438049,-0.44615173
1602,A,99083728926458,-1.1761322,-10.262558,0.68896484,0.33566284,0.8857727,-0.5430298
1602,A,99083779280462,-1.326355,-10.704041,0.24998474,2.6184845,0.28601074,-0.52996826
1602,A,99083829634466,-0.28588867,-13.655319,0.15940857,3.790512,-0.33184814,-0.6069031
1602,A,99083879988470,-2.1550598,-16.035187,3.1797028,2.3910675,1.2348785,0.4189911
1602,A,99083930342474,0.957077,-10.895096,1.427948,2.379364,-2.692459,1.2730408
1602,A,99083980696478,1.293808,-15.675751,-4.8074493,2.3847504,-1.1120148,0.6459198
1602,A,99084031050482,2.006424,-16.536575,-1.0837708,2.2374268,-2.3193817,0.4434967
1602,A,99084081404485,-1.2541656,-9.597351,1.1753235,1.2732544,-2.8309784,0.41096497
1602,A,99084131758489,0.18933105,-6.822754,-3.9818268,-0.34591675,-1.0704803,0.66622925
1602,A,99084182112493,0.119903564,-4.7218933,-3.1655884,-2.2141113,-0.58451843,0.936203
1602,A,99084232466497,1.1630707,-1.8891449,-2.23172,0.7362976,-1.676117,-0.48391724
1602,A,99084282820501,-0.3920288,-1.5155945,-2.599472,1.9324951,-0.2590332,-0.486557
1602,A,99084333174505,4.9037476,-5.573166,4.9214325,-0.05911255,-1.5677948,-0.9866791
1602,A,99084383528509,11.830368,-19.360977,13.845718,-1.2214966,0.9507904,0.18258667
1602,A,99084433882513,0.970932,2.824707,1.4836884,-2.2310944,2.5468903,0.9974365
1602,A,99084484236517,7.8219757,-17.471008,13.3706665,-2.0686188,0.61117554,0.98861694
1602,A,99084534590521,4.3168488,-9.238556,2.6375732,-1.969574,0.79145813,0.39131165
1602,A,99084584944524,-0.63804626,-11.819794,-4.7798157,-1.7741089,0.7677002,0.51156616
1602,A,99084635298528,-0.4404297,-8.36821,-1.5635681,-1.864502,1.0888824,0.33781433
1602,A,99084685652532,0.55747986,-9.942032,0.25160217,-2.0376892,1.6622772,0.15872192
1602,A,99084736006536,-0.9782562,-8.119797,-1.074234,-1.8905945,0.8778229,-0.1784668
1602,A,99084786360540,0.508667,-8.527908,1.432373,-1.4395905,0.58825684,-0.027999878
1602,A,99084836714544,0.4517517,-7.545807,-1.2744751,-0.53196716,1.1554871,-0.35784912
1602,A,99084887068548,0.82173157,-9.208664,-2.9033356,0.030075073,0.6564636,-0.53453064
1602,A,99084937422552,-1.3219757,-11.521683,3.5761719,1.6078033,0.108551025,-0.26939392
1602,A,99084987776556,-3.0587616,-12.2491455,-0.5272827,3.8345947,-0.10865784,-0.7778168
1602,A,99085038130560,-0.8323517,-15.23848,1.3010559,2.931137,0.26805115,0.117385864
1602,A,99085088484564,1.350357,-14.066025,1.4567413,2.08461,-0.6485138,0.95602417
1602,A,99085138838567,2.9666595,-12.745682,-0.54418945,3.0167236,-1.3247833,0.56892395
1602,A,99085189192571,2.453827,-17.07518,-2.8970795,2.258728,-1.4558716,0.18939209
1602,A,99085239546575,0.55433655,-15.197433,-5.4256287,1.5286255,-1.5634766,0.16490173
1602,A,99085289900579,-1.5922699,-7.966873,-1.4262695,0.117126465,-1.5470276,0.43566895
1602,A,99085340254583,0.6817169,-5.096283,-2.9960175,-1.4218445,-1.1337128,0.6980896
1602,A,99085390608587,0.97750854,-2.2203217,-2.7422943,-0.5567169,-1.046875,-0.0063476563
1602,A,99085440962591,0.42955017,-1.9192352,-1.3638306,1.8503876,-0.97784424,-0.68214417
1602,A,99085491316595,3.4651642,-6.0894623,5.7875824,0.097717285,0.33239746,-0.61042786
1602,A,99085541670599,6.9208984,-13.829529,13.509399,-1.074707,2.071579,-0.0046691895
1602,A,99085592024603,4.994934,-13.082703,3.41333,-2.2058563,2.190689,1.2598419
1602,A,99085642378607,4.947632,-7.4897766,-3.9931488,-2.2739563,1.021759,0.9310303
1602,A,99085692732610,-2.696167,-5.6245117,-5.644638,-2.120987,1.1186371,0.4365692
1602,A,99085743086614,-2.6367645,-11.865524,-3.0190125,-1.9595795,1.1455383,0.5155792
1602,A,99085793440618,0.05947876,-9.596939,-0.50520325,-1.716568,0.9674072,0.28225708
1602,A,99085843794622,0.78367615,-8.67215,-0.21194458,-1.7844696,1.2889099,0.12861633
1602,A,99085894148626,-1.3929138,-8.8276825,-0.4201355,-1.6907806,0.87442017,-0.045043945
1602,A,99085944502630,-0.7282562,-8.1757965,0.99453735,-1.2764282,0.7653961,-0.13069153
1602,A,99085994856634,0.5258179,-8.411896,-1.131607,-0.6165924,1.0710297,-0.4371643
1602,A,99086045210638,-0.24848938,-9.703033,-0.57250977,0.22755432,0.8898926,-0.5586853
1602,A,99086095564642,-1.4863586,-11.013702,2.7609863,2.2775269,0.025039673,-0.66308594
1602,A,99086145918646,-0.8935852,-12.490356,1.0213623,3.6079254,-0.51252747,-0.6248779
1602,A,99086196272649,-0.7110748,-15.069382,1.739151,2.7466736,0.018844604,0.17282104
1602,A,99086246626653,0.10322571,-13.268311,2.4251099,2.7487183,-1.1005707,0.8685303
1602,A,99086296980657,0.6665039,-14.142075,-0.815155,2.9288635,-2.0370178,0.7045746
1602,A,99086347334661,1.0661316,-17.830353,-5.459854,2.2256927,-1.8222656,0.34465027
1602,A,99086397688665,0.060409546,-12.832535,-3.1737518,1.1689453,-1.782547,0.3495636
1602,A,99086448042669,-1.0205841,-7.198227,-2.0123901,-0.28962708,-1.3063049,0.6247711
1602,A,99086498396673,-0.28108215,-4.193222,-3.559311,-1.6357574,-0.85136414,0.61883545
1602,A,99086548750677,0.63752747,-2.051422,-3.0305023,0.464386,-1.1153717,-0.2283783
1602,A,99086599104681,1.480011,-2.2183533,-1.8493195,1.5383606,-0.85824585,-0.32192993
1602,A,99086649458685,4.747635,-8.355057,6.794281,0.35224915,-0.33944702,-0.69548035
1602,A,99086699812689,4.4433136,-16.67244,10.6914215,-1.0555115,0.981369,0.008331299
1602,A,99086750166692,5.207016,-12.887054,3.309372,-2.1219025,0.9242554,1.105133
1602,A,99086800520696,1.8571777,0.6897278,-7.172348,-2.1930542,0.569046,0.6467438
1602,A,99086850874700,-9.374527,-9.466736,-4.976059,-2.1410065,0.9258728,0.51374817
1602,A,99086901228704,-6.715805,-12.3038025,1.1001892,-1.8563843,0.4391327,0.42904663
1602,A,99086951582708,0.9553528,-8.412048,1.097641,-1.8674164,1.0220184,0.3756714
1602,A,99087001936712,0.08303833,-9.331314,-0.3673706,-1.9155884,1.5196533,0.15164185
1602,A,99087052290716,-0.5556183,-8.292908,0.53341675,-1.7855377,0.78126526,-0.21247864
1602,A,99087102644720,0.5491333,-8.105637,0.61738586,-1.4159241,1.0766296,-0.17475891
1602,A,99087152998724,0.4253235,-8.151871,-2.1199188,-0.7171631,1.252243,-0.4326477
1602,A,99087203352728,0.44552612,-9.757645,-0.84381104,0.05973816,0.6595459,-0.35855103
1602,A,99087253706732,-0.5448761,-9.941772,-0.106918335,2.2283936,-0.04333496,-0.4526825
1602,A,99087304060735,-2.0736847,-12.305862,-0.82629395,3.78479,0.4108429,-0.5614166
1602,A,99087354414739,-1.7699127,-16.232376,1.8846436,2.7675781,1.1408539,0.27549744
1602,A,99087404768743,4.005951,-11.252075,2.8684692,2.1407623,-2.013794,1.4862976
1602,A,99087455122747,2.0808258,-14.582321,-5.094681,2.4090118,-1.1557465,0.6759491
1602,A,99087505476751,4.4642487,-16.16835,-2.249939,2.126999,-1.5464325,0.31652832
1602,A,99087555830755,-0.19662476,-9.621536,0.7463074,1.3518982,-1.7219696,0.39616394
1602,A,99087606184759,0.14886475,-6.897812,-2.8959656,-0.17149353,-1.5510559,0.76898193
1602,A,99087656538763,0.14678955,-4.730896,-3.0160522,-2.119217,-0.89489746,1.0614929
1602,A,99087706892767,0.3816223,-2.2125397,-2.2907562,0.5923462,-1.4132996,-0.5907593
1602,A,99087757246771,0.6333008,-1.9142609,-1.6613159,2.1376343,-0.119262695,-0.18800354
1602,A,99087807600774,3.691742,-6.0955353,6.8167114,-0.1956482,-1.1673889,-1.335083
1602,A,99087857954778,8.532043,-19.159042,14.805389,-1.2421417,0.50213623,0.3887787
1602,A,99087908308782,2.3969574,-0.38287354,2.9116516,-2.3383331,1.7500458,1.1276703
1602,A,99087958662786,5.5548096,-10.085083,6.6239624,-2.2734985,0.94654846,0.83047485
1602,A,99088009016790,-2.3360748,-10.496353,2.759781,-2.2191772,1.4482422,0.52394104
1602,A,99088059370794,-1.5861511,-12.564774,-1.8838806,-1.8192291,0.8560028,0.33895874
1602,A,99088109724798,0.43858337,-8.318268,-1.4022675,-1.7925568,1.4368896,0.28874207
1602,A,99088160078802,-0.39231873,-10.3983,-0.7720642,-1.8256531,1.9298401,0.020858765
1602,A,99088210432806,-1.7093506,-7.6015472,-0.57525635,-1.7091217,0.46195984,-0.33403015
1602,A,99088260786810,1.7878876,-7.8678436,0.11708069,-1.2902374,1.1579132,-0.11917114
1602,A,99088311140814,0.7094574,-7.7675934,-2.5568085,-0.42852783,1.2195282,-0.51734924
1602,A,99088361494817,-1.2191162,-10.354752,0.74468994,0.5870819,0.44129944,-0.5319061
1602,A,99088411848821,-0.38768005,-9.855225,0.15026855,2.6772156,-0.07296753,-0.5677185
1602,A,99088462202825,-2.116928,-13.302765,0.19203186,3.7536163,0.442276,-0.49505615
1602,A,99088512556829,-1.8350067,-16.347733,2.776245,2.4205627,0.041427612,0.6811218
1602,A,99088562910833,3.230484,-10.820938,1.841629,2.317749,-2.58815,1.3148346
1602,A,99088613264837,0.19033813,-15.219208,-5.4036255,2.4536743,-1.070343,0.5911102
1602,A,99088663618841,2.3307953,-15.165131,-1.4239044,1.8791962,-1.6296387,0.4180298
1602,A,99088713972845,0.29730225,-9.937393,-0.5652466,0.9670105,-1.5924835,0.36149597
1602,A,99088764326849,0.2911377,-7.161957,-2.6730042,-0.63119507,-1.062027,0.6018982
1602,A,99088814680853,0.04574585,-4.0640717,-2.9328003,-1.6098175,-0.6957855,0.6054077
1602,A,99088865034857,1.3545837,-1.3870239,-2.538391,0.45108032,-0.86146545,-0.2917633
1602,A,99088915388860,1.8325195,-2.827896,-0.2436676,1.5114288,-0.6667633,-0.29003906
1602,A,99088965742864,4.3487854,-9.339935,9.099319,-0.48034668,-0.28024292,-0.38175964
1602,A,99089016096868,6.862854,-14.895721,14.091705,-1.5472412,1.7313232,0.27120972
1602,A,99089066450872,2.0763702,-4.0346375,5.242035,-2.1853943,2.155655,0.8647461
1602,A,99089116804876,5.4262238,-13.513901,5.3102875,-1.9255524,0.713562,0.46009827
1602,A,99089167158880,-2.537735,-6.9613953,-0.5035095,-1.9064636,0.9764862,0.38728333
1602,A,99089217512884,0.3390808,-11.938705,-3.3434296,-1.6800232,0.844223,0.30029297
1602,A,99089267866888,0.7936249,-8.095139,-0.53430176,-1.8138123,1.1844635,0.16583252
1602,A,99089318220892,-0.6772766,-9.56221,-0.2942505,-1.8185883,0.91529846,-0.17054749
1602,A,99089368581563,-0.980423,-8.357941,-0.19726563,-1.6848145,0.5248871,-0.28671265
1602,A,99089418935566,0.7801666,-8.244812,-0.004547119,-1.1694946,0.97283936,-0.24790955
1602,A,99089469289570,0.2967224,-8.71077,-1.6284027,-0.23579407,0.9880676,-0.6043396
1602,A,99089519643574,0.38449097,-9.451126,-0.52597046,0.95529175,0.42578125,-0.5918274
1602,A,99089569997578,-0.99946594,-11.018509,1.6752014,2.9106293,-0.1265564,-0.5286102
1602,A,99089620351582,-2.2730865,-14.002213,1.6072083,3.4199219,0.4197693,-0.13058472
1602,A,99089670705586,-0.032546997,-13.580185,1.9779205,2.0560303,-0.3390503,1.1448822
1602,A,99089721059590,1.6139069,-12.937073,-1.1373901,2.0312195,-1.839325,1.3724823
1602,A,99089771413594,2.6356506,-16.048264,-2.859726,2.459488,-1.7612915,0.67225647
1602,A,99089821767598,2.2172546,-15.1093445,-2.75708,1.8883514,-1.9157562,0.37478638
