Subject-Id,Activity Label,Time stamp,Accel_x,Accel_y,Accel_z,Gyro_x,Gyro_y,Gyro_z
1650,A,359606614990000,1.4298267,1.4585669,15.364051,-0.043675844,-0.5134575,-0.8841695
1650,A,359606635054000,1.2957057,1.223855,13.048067,-0.05965481,-0.48682585,-0.89375687
1650,A,359606655283000,0.87178713,1.5495777,11.120076,-0.022370555,-0.26205507,-0.9044095
1650,A,359606675347000,0.44786867,2.2345533,9.539363,0.18429075,-0.05965481,-0.62317973
1650,A,359606695443000,0.21315674,2.8572583,7.5131764,0.21411815,-0.13848437,0.083090626
1650,A,359606716369000,0.31135255,3.0225148,5.9564137,-0.026631612,-0.013848438,0.7765778
1650,A,359606736529000,0.26345217,2.9841945,5.5444703,-0.03834952,0.44847634,1.1419635
1650,A,359606756768000,-0.23710695,3.0344899,5.7839723,0.314253,0.74461985,1.2463595
1650,A,359606776928000,-0.8646021,3.0823903,6.0378447,0.52624065,1.087635,1.1206582
1650,A,359606796431000,-1.5926881,3.297942,6.224656,0.19813919,1.164334,0.9321064
1650,A,359606816431000,-2.454895,3.8224514,6.1719656,0.89588743,0.7637946,0.6743124
1650,A,359606836542000,-3.06323,4.5553274,5.836663,0.9960223,0.38562572,0.716923
1650,A,359606856542000,-2.9219239,5.367239,5.630691,-0.21411815,0.11824436,0.9917612
1650,A,359606876626000,-2.2872438,6.224656,5.7001467,-0.6775082,-0.10013486,1.1291803
1650,A,359606896626000,-1.5352076,6.9240017,6.0330544,-0.3355583,-0.3121225,0.99708754
1650,A,359606917168000,-0.49337405,7.0078273,7.151529,0.08628642,-0.4111921,0.67218184
1650,A,359606937200000,0.32572266,6.6988697,9.335787,0.058589544,-0.59122175,0.4293016
1650,A,359606957332000,0.728086,6.353987,10.7871685,-0.33981937,-0.8277105,0.37816888
1650,A,359606977364000,1.0825489,6.0114994,11.349998,-0.87351686,-0.9555422,-0.113983296
1650,A,359606997872000,1.6118482,6.1073003,12.729529,-0.7307714,-0.48682585,-0.9981528
1650,A,359607017936000,1.3004956,6.5000834,13.139078,-0.068176925,0.15659387,-1.6735305
1650,A,359607038077000,0.64186525,6.248606,12.329561,-0.17896444,0.479369,-1.5201324
1650,A,359607058141000,0.33769777,5.206773,12.935501,-0.42077947,0.6498113,-0.94595486
1650,A,359607078274000,0.52690434,3.4440382,15.553258,0.34194988,0.070307456,-0.84688526
1650,A,359607098338000,0.25866213,2.7063723,17.021404,0.2695119,-0.12144015,-0.72011876
1650,A,359607118668000,-0.45026368,3.2213013,13.45522,-0.2034655,0.099069595,-0.64555025
1650,A,359607138764000,-0.71371585,4.0571632,8.933423,-0.2545982,0.13422333,-0.65726817
1650,A,359607158815000,-0.7807764,4.608018,6.303692,0.37390783,0.26312032,-0.8213189
1650,A,359607178911000,-0.5556446,4.4523416,5.415139,0.9416938,0.60080916,-0.9651296
1650,A,359607199188000,-0.14370118,3.8392165,5.872588,0.9491506,0.6764429,-0.7840346
1650,A,359607219284000,0.45984375,3.0776002,6.08814,0.74781567,0.002130529,-0.7190535
1650,A,359607239496000,1.2573853,2.4908204,6.09772,0.1107875,-0.2428803,-0.1736381
1650,A,359607259592000,2.203418,2.1555176,6.0019193,-1.1377025,-0.16724652,1.0727214
1650,A,359607279771000,3.03928,2.193838,5.6833816,-1.067395,-0.6348976,1.6223978
1650,A,359607299867000,3.4679885,2.7063723,4.878655,-0.20559604,-0.12783173,1.4444987
1650,A,359607320142000,3.4368532,3.4560134,3.9924977,-0.41758367,0.023435818,1.1270498
1650,A,359607340238000,3.175796,4.414021,3.6021094,0.10972224,-0.16085494,0.73609775
1650,A,359607360420000,2.7015822,5.752837,3.8176613,0.27057716,0.10226539,0.386691
1650,A,359607380516000,2.4213648,7.1611085,4.737349,0.1107875,0.36218992,0.4250405
1650,A,359607400767000,3.5063088,7.704778,5.721702,0.4079963,0.32597092,0.6040049
1650,A,359607420863000,5.9133034,7.165899,7.673643,0.73822826,0.26418558,0.40586576
1650,A,359607441050000,7.094048,6.212681,10.154883,0.87032104,0.49534798,0.10546118
1650,A,359607461146000,7.213799,5.3408937,11.977493,0.77125144,0.79894835,-0.05965481
1650,A,359607481308000,7.453301,4.5529323,13.134288,0.82557994,1.1952267,-0.10972224
1650,A,359607501404000,7.079678,4.5840673,13.179793,1.1749867,1.627724,-0.2247708
1650,A,359607521623000,4.7157936,5.695357,12.0110235,0.99921805,1.3081448,-0.32597092
1650,A,359607541719000,2.1148024,6.3707523,10.492581,0.027696876,0.40053943,-0.17044231
1650,A,359607561912000,1.1328443,5.47741,10.406361,-0.6870956,-0.21944448,0.10226539
1650,A,359607582008000,1.223855,3.4751735,13.028907,-1.1558119,-0.4910869,0.2247708
1650,A,359607602283000,1.3675562,2.0357666,15.481407,-0.6540724,-0.92784536,-0.22690132
1650,A,359607622379000,1.0514137,1.9854712,13.445641,0.4133226,-0.5294364,-0.7637946
1650,A,359607642572000,0.6227051,2.6896071,9.953702,0.13954964,-0.66152924,-0.95128113
1650,A,359607662668000,0.91729254,3.2260914,8.270002,-0.5219796,-1.0610034,-0.93636745
1650,A,359607682991000,1.3867164,3.4368532,7.582632,-0.2514024,-0.56672066,-0.78296936
1650,A,359607703087000,1.219065,3.4440382,7.2329593,0.3291667,-0.015978966,-0.67005134
1650,A,359607723247000,1.0202783,3.168611,7.3838453,0.28655612,0.015978966,-0.3888215
1650,A,359607743375000,1.0729688,2.680027,7.9921803,0.10439592,-0.09054748,-0.06924219
1650,A,359607763535000,0.9268726,2.3974147,8.765772,0.06498113,-0.05219796,0.084155895
1650,A,359607784240000,0.7831714,2.4069948,8.753797,-0.098004326,0.13741912,0.14168017
1650,A,359607804368000,0.60594,2.6417067,7.8868,-0.30466563,0.3898868,0.19281286
1650,A,359607824557000,0.12933107,3.2452517,6.6509695,-0.30360037,0.3536678,0.11717909
1650,A,359607844653000,-0.9580079,4.2080493,5.7767873,-0.20879184,0.6540724,0.024501082
1650,A,359607864858000,-1.9950514,5.4055595,5.5540504,-0.26312032,0.5816344,0.01917476
1650,A,359607884986000,-2.1291726,6.5791187,5.886958,0.13102753,0.27803403,0.24501082
1650,A,359607905276000,-2.066902,7.94907,6.143225,0.12250541,0.4889564,0.43782368
1650,A,359607925404000,-3.420088,9.764495,5.621111,-0.23435818,0.46019423,0.57311225
1650,A,359607945548000,-3.923042,10.547667,5.3001785,0.011717909,0.14594123,0.7637946
1650,A,359607965676000,-3.2524366,10.008787,5.611531,0.773382,-1.0727214,0.78723043
1650,A,359607985653000,-2.6057813,8.576566,6.943162,0.76272935,-3.2085764,0.83516735
1650,A,359608005749000,-1.346001,6.2270513,9.848321,-0.31851408,-3.1595743,1.4966966
1650,A,359608025969000,0.2562671,4.9409256,13.608501,-0.43675843,-1.6437031,2.1038973
1650,A,359608046065000,1.0849439,4.524192,14.111456,-0.37710363,-0.28336033,1.5094798
1650,A,359608066337000,1.4058765,4.358936,11.400293,-0.773382,0.8362326,0.111852765
1650,A,359608086433000,1.3795313,3.67875,9.79563,-0.24607609,1.5659387,-0.67005134
1650,A,359608106538000,0.69216067,2.9506643,11.225457,0.8511463,1.9877834,-0.98110855
1650,A,359608126634000,0.7951465,2.44771,13.208533,0.92784536,1.3827133,-1.6703347
1650,A,359608146882000,1.5208374,2.43813,13.1438675,0.8809737,0.77231675,-1.7491642
1650,A,359608166978000,2.088457,2.3974147,10.957214,1.1057445,2.485262,-3.0189595
1650,A,359608187110000,2.44292,2.299219,9.295072,1.0247844,4.14814,-4.7105994
1650,A,359608207206000,1.8058448,2.4501052,8.897498,1.9387813,5.465872,-6.1029
1650,A,359608227424000,0.80712163,2.682422,9.144185,2.7547739,5.172924,-8.349543
1650,A,359608247520000,0.72569096,2.8476784,9.21364,1.1217234,1.6873789,-11.375959
1650,A,359608267734000,1.2957057,3.1255007,8.586145,-1.5169365,-1.3262542,-14.170148
1650,A,359608287830000,1.9734962,3.432063,7.678433,1.2911005,0.31957933,-11.740279
1650,A,359608307980000,2.4453151,3.7458107,6.9048414,2.1060278,-2.530003,-3.8370826
1650,A,359608328076000,2.687212,4.1050634,6.3084817,2.8900626,-5.167598,0.8341021
1650,A,359608348280000,2.7758276,4.402046,5.8055277,3.6336172,-3.410977,1.7694043
1650,A,359608368376000,2.5770411,4.6846585,5.271438,1.8823223,0.023435818,3.2778187
1650,A,359608388583000,2.0046315,4.981641,5.1660576,-1.1952267,1.0780476,3.9510658
1650,A,359608408679000,1.3579761,5.407954,5.733677,-2.6919234,0.41545314,3.2671661
1650,A,359608428905000,1.1951149,5.736072,6.5120583,-1.6618125,2.0996363,2.2306638
1650,A,359608449001000,0.8430469,6.183941,7.1395535,-0.5944176,4.556136,0.97471696
1650,A,359608469212000,0.49576905,6.864126,7.8197393,-2.3116238,3.6879456,1.2325109
1650,A,359608489308000,0.26345217,7.5467067,7.5251517,-3.1680965,2.343582,1.6287893
1650,A,359608509488000,-0.2562671,8.231683,6.5264287,-0.83942837,2.2988408,2.1241374
1650,A,359608529584000,-1.0011182,8.875943,5.5372853,0.03089267,1.055677,1.5488945
1650,A,359608549823000,-1.4058765,9.3453665,6.1599903,0.099069595,1.1206582,0.4527374
1650,A,359608569919000,-1.22625,9.589659,7.776629,1.4327807,3.5377433,0.572047
1650,A,359608590077000,-1.0657837,9.527389,8.358619,1.9185413,3.02109,0.80747044
1650,A,359608610173000,-0.8262818,9.067544,8.911868,0.39840892,-0.3387541,-0.0479369
1650,A,359608630382000,-0.13651612,7.8604546,10.593172,0.09267801,-1.1930962,-0.34514567
1650,A,359608650478000,1.0466236,5.8989334,12.291241,1.2825783,-1.2974921,-0.777643
1650,A,359608670688000,2.191443,4.267925,13.287569,1.9963056,-1.031176,-0.8383631
1650,A,359608690784000,2.5267458,3.6236646,12.89239,1.901497,-1.3156016,-0.38456047
1650,A,359608710914000,1.9303858,3.8176613,10.777588,0.32810146,-2.2413163,0.31638354
1650,A,359608731010000,1.5687379,4.1146436,8.660391,-1.4839134,-2.202967,0.5581986
1650,A,359608751218000,1.2909156,4.4571314,7.335945,-2.630138,-1.4274544,0.3121225
1650,A,359608771314000,0.9651929,4.744534,7.204219,-3.5792885,-0.9171927,0.8969527
1650,A,359608791479000,0.68737066,4.7301636,7.441326,-4.620052,-0.32490566,0.69774824
1650,A,359608811575000,0.366438,4.526587,7.8484793,-4.495416,-0.773382,0.2396845
1650,A,359608831770000,0.20118165,4.160149,8.466394,-2.6312032,-0.1107875,0.51665324
1650,A,359608851866000,0.17483643,3.9829175,8.447234,-0.55606806,1.2293152,0.58056915
1650,A,359608872069000,-0.34727785,4.4188113,7.3742657,-0.32810146,1.5211977,1.7864485
1650,A,359608892165000,-1.1615845,5.108577,6.2677665,0.49854377,1.4892397,2.9294772
1650,A,359608912336000,-1.6501685,5.726492,5.7624173,2.1166804,1.8823223,1.3166668
1650,A,359608932432000,-1.6525636,6.104905,5.7911572,2.263687,2.8698225,-1.2133362
1650,A,359608952631000,-1.2717555,6.239026,6.212681,1.8471686,0.8319715,-0.4016047
1650,A,359608972727000,-0.7951465,6.430628,6.5455885,1.917476,-1.0354371,1.4530207
1650,A,359608992882000,-0.33769777,6.6749196,6.71324,0.9896307,0.30040458,0.51026165
1650,A,359609012978000,0.18920656,6.835386,6.8665214,-0.16192019,1.1195929,-0.020240024
1650,A,359609033240000,0.3161426,6.952742,7.1323686,0.7094661,1.6437031,0.3920173
1650,A,359609053336000,0.21076173,6.943162,7.7215433,2.0719395,0.7488809,0.26844665
1650,A,359609073535000,0.1460962,6.6988697,8.411309,1.9877834,0.42290998,0.05006743
1650,A,359609093631000,-0.043110352,6.5072684,9.489068,0.66579026,1.0183928,0.3121225
1650,A,359609113800000,-0.20118165,6.864126,10.904525,-0.97471696,-1.1163971,-0.22370553
1650,A,359609133896000,-0.67539555,7.436536,10.459051,-1.1856394,-1.0950918,-0.20240025
1650,A,359609154091000,-0.98435307,7.391031,9.980047,-0.31957933,0.42290998,0.2545982
1650,A,359609174187000,-1.7459693,6.7300053,9.697434,0.18961707,0.18322548,0.28442562
1650,A,359609194360000,-2.6560767,5.736072,10.447076,1.4583471,0.49321744,0.17257284
1650,A,359609214456000,-3.417693,4.976851,11.864927,3.3364084,0.4527374,0.47404268
1650,A,359609234648000,-3.3745828,4.643943,11.105706,5.055745,0.07989483,0.97897804
1650,A,359609254744000,-2.692002,4.404441,8.775352,5.090899,0.76059884,0.81066626
1650,A,359609274931000,-2.2058132,4.3278003,7.4964113,0.7850999,-0.5635249,-0.2545982
1650,A,359609295027000,-2.3519094,4.4212065,6.8497562,-1.8663434,-2.0133498,-0.5858955
1650,A,359609315134000,-2.811753,4.533772,6.9144216,-0.7861652,-0.8543421,-0.6849651
1650,A,359609335230000,-3.1614258,4.4643164,7.5467067,-0.16405073,0.6423545,-0.32810146
1650,A,359609355391000,-2.7806177,4.1864944,7.9849954,-2.3627565,0.027696876,0.37071204
1650,A,359609375487000,-1.9208057,3.786526,8.042476,-3.012568,-0.8990832,0.20240025
1650,A,359609395842000,-1.2310401,3.3817677,8.686736,-1.200553,0.4111921,0.28655612
1650,A,359609415938000,-1.101709,3.2476466,9.328602,1.5936357,0.7073356,0.51026165
1650,A,359609436135000,-1.7028589,3.9757326,6.854546,4.2322955,0.87564737,1.0418286
1650,A,359609456231000,-2.799778,5.5612354,3.1183155,4.164119,1.1664646,1.1547467
1650,A,359609476414000,-1.5040723,6.725215,2.7901978,1.4402375,1.3198626,0.65194184
1650,A,359609496510000,0.7113208,6.4354177,3.9613624,-0.5635249,0.680704,0.27483824
1650,A,359609516817000,1.6908839,6.2821364,4.905,-0.5187838,0.52624065,0.12144015
1650,A,359609536913000,4.26553,6.825806,4.6511283,-0.43888897,0.3568636,0.20133498
1650,A,359609557119000,5.695357,6.3132715,5.130132,-0.049002163,0.9938917,-0.21411815
1650,A,359609577215000,6.4593678,5.7719975,4.378096,0.30360037,0.084155895,-0.07669904
1650,A,359609597425000,7.695198,4.4379716,3.7314405,-0.9267801,-0.4527374,0.69668293
1650,A,359609617521000,7.5179667,6.109695,6.67013,-1.5606124,-0.5123922,0.02876214
1650,A,359609637728000,5.855823,8.878338,10.281819,-0.45167214,-2.0762005,-1.2452941
1650,A,359609657824000,5.122947,8.880733,12.624148,1.160073,-0.67324716,-0.3834952
1650,A,359609678034000,5.6570363,6.109695,12.554693,1.0620687,1.4817829,0.6114618
1650,A,359609698130000,6.950347,5.245093,14.942528,0.74781567,0.6625945,0.5901565
1650,A,359609718336000,3.178191,6.0665846,14.822777,-1.8237327,-1.1291803,0.041545313
1650,A,359609738432000,0.17962648,5.295388,13.45522,-2.3702135,-2.018676,-0.002130529
1650,A,359609758686000,2.6345215,3.7170706,11.388318,-1.3006879,-1.716141,-0.4644553
1650,A,359609778782000,2.8285182,4.3637257,6.67013,-1.361408,-1.582983,-0.50600064
1650,A,359609798936000,3.9924977,4.9624805,3.4799635,-1.0120013,-0.77870834,-0.35473305
1650,A,359609819032000,2.440525,2.2177882,1.099314,-0.6125271,0.22370553,-0.56672066
1650,A,359609839295000,-0.37601808,-0.23231691,0.53169435,-0.66152924,0.39095205,-0.15020229
1650,A,359609859391000,-2.8572583,-1.336421,0.5364844,-0.515588,0.65726817,0.73822826
1650,A,359609879631000,-3.8296363,-3.276387,-0.009580079,-0.8990832,0.056459017,0.72651035
1650,A,359609899727000,-2.3902297,-6.799461,-1.8633252,-0.8564726,0.77231675,0.5592638
1650,A,359609919928000,-2.703977,-10.099798,-3.1614258,0.7392935,1.6873789,0.6764429
1650,A,359609940024000,-3.4679885,-14.350958,-4.4595265,0.7552725,0.1555286,0.015978966
1650,A,359609960229000,-4.8259645,-19.646345,-4.799619,-1.2580773,-0.7520767,-0.22370553
1650,A,359609980325000,-7.216194,-26.144033,-1.9687061,-1.8738002,-0.18642128,-0.3089267
1650,A,359610000529000,-11.369158,-31.346018,5.2977834,-1.506284,0.049002163,-0.50173956
1650,A,359610020625000,-19.112257,-30.004807,20.221151,-0.9054748,0.25992453,-0.6317018
1650,A,359610040797000,-29.564123,-23.442451,20.961212,-0.111852765,0.3749731,-0.5336975
1650,A,359610060893000,-39.901028,-8.756192,15.117364,1.1366372,0.4495416,-0.6306366
1650,A,359610080995000,-40.59319,-0.102985844,14.712605,2.3872576,1.2495552,-0.04261058
1650,A,359610101091000,-32.464493,-0.81909674,20.970793,2.1848574,0.33768883,0.45699844
1650,A,359610121281000,-22.134771,-6.0378447,24.019651,1.1057445,-0.42077947,0.44421527
1650,A,359610141377000,-16.168777,-7.4772515,16.896864,-0.11504856,-0.6689861,0.23435818
1650,A,359610161552000,-15.040723,-3.8751419,8.133487,-1.0013486,-1.0535465,0.15978967
1650,A,359610181648000,-13.543836,-1.7339942,2.1579127,-0.4708469,-0.6018744,0.40053943
1650,A,359610201834000,-10.746453,-2.9219239,-1.7914747,0.55287224,-0.10546118,0.3089267
1650,A,359610221930000,-9.057964,-5.333709,-3.3147073,0.9534117,0.11717909,-0.112918034
1650,A,359610241965000,-6.1959157,-8.059241,-6.080955,0.9779128,0.14594123,-0.3153183
1650,A,359610262061000,-2.4525,-9.582474,-3.307522,0.8362326,0.10333065,-0.24181503
1650,A,359610282308000,-0.46702883,-11.05541,1.9974464,0.406931,-0.027696876,-0.16085494
1650,A,359610302404000,1.3196558,-11.0051155,4.7804594,0.10865697,-0.18002969,-0.31318775
1650,A,359610322596000,2.196233,-9.390872,4.5577226,-0.4016047,-0.41545314,-0.17150758
1650,A,359610342692000,4.3637257,-9.127419,5.5780005,-2.5161545,-0.59228706,-0.21944448
1650,A,359610362899000,1.8537452,-7.5874224,6.70845,-3.0786142,-0.60293967,-0.28549087
1650,A,359610382995000,-5.4438796,-4.8523097,4.1098537,-0.6870956,0.36964676,0.29188246
1650,A,359610403207000,-10.169253,-3.906277,-2.6033864,1.6618125,0.8064052,0.6178534
1650,A,359610423303000,-9.21364,-4.6583133,-5.108577,1.8780613,0.34621096,0.33129725
1650,A,359610443510000,-7.199429,-3.3673975,-1.3172607,0.7190535,0.38775626,-0.21092236
1650,A,359610463606000,-7.810159,-2.3734643,1.587898,-0.7286409,1.0024139,-0.039414786
1650,A,359610483817000,-7.3886356,-2.6608667,2.5075855,-1.0684602,0.60080916,0.23648871
1650,A,359610503913000,-5.350474,-2.9865894,3.0033545,-0.40053943,0.29188246,0.18961707
1650,A,359610524131000,-3.5829494,-3.3817677,0.57959473,0.31957933,0.86179894,0.01917476
1650,A,359610544227000,-3.5949244,-3.9829175,-1.092129,1.1259845,0.71585774,0.0063915867
1650,A,359610564472000,-5.237908,-4.749324,-0.40715334,1.3518206,0.24607609,0.36964676
1650,A,359610584568000,-7.7718387,-4.7948294,-0.45026368,0.35153726,-0.004261058,-0.05539375
1650,A,359610604845000,-10.226734,-4.126619,-1.3747413,-0.21198763,0.24714136,0.13635385
1650,A,359610624941000,-10.7871685,-4.2056546,-1.9878663,-0.16724652,-0.18642128,-0.05539375
1650,A,359610645138000,-11.773916,-5.0654664,-1.5567628,-0.3717773,-0.96619487,0.15233281
1650,A,359610665234000,-12.631333,-5.223538,-2.9961696,0.19600865,-0.47723848,0.59122175
1650,A,359610685389000,-10.99314,-7.359895,-5.3313136,1.031176,0.27377295,0.30786142
1650,A,359610705485000,-10.748848,-8.638836,-3.7027004,1.2729911,0.02876214,-0.15233281
1650,A,359610725691000,-14.238392,-5.740862,-1.5471827,0.9619338,-0.48363006,-0.113983296
1650,A,359610745787000,-10.31535,-9.484278,2.069297,0.7137272,-0.36218992,0.221575
1650,A,359610766140000,-6.615044,-13.958175,3.6188745,1.1110709,-0.022370555,0.30786142
1650,A,359610786236000,-9.802815,-8.916658,2.8428884,0.4612595,-0.4101268,-0.02130529
1650,A,359610806447000,-11.979888,-5.6905665,2.2273684,-1.3944311,-0.39414784,-0.24181503
1650,A,359610826543000,-9.314231,-6.0091043,2.579436,-2.1923141,0.043675844,-0.16085494
1650,A,359610846738000,-8.689131,-5.5396805,1.5567628,-1.7726,-0.12676647,-0.35792887
1650,A,359610866834000,-8.533455,-4.239185,0.48379397,-0.8064052,0.28442562,-0.47830373
1650,A,359610887015000,-6.7539554,-3.2668068,-1.7866846,0.20879184,0.5933523,-0.09267801
1650,A,359610907111000,-4.4331813,-2.3998096,-3.3218923,0.829841,0.6487461,0.25992453
1650,A,359610927942000,-1.6669337,-2.5291407,-2.5387208,0.5592638,0.00958738,0.04261058
1650,A,359610948070000,0.17483643,-3.8799317,-2.5147705,0.060720075,0.2695119,-0.02876214
1650,A,359610968230000,-2.8692336,-3.178191,-1.7986598,-0.23329292,0.660464,-0.10546118
1650,A,359610988390000,-7.800579,-1.4585669,-0.57959473,0.16831179,0.36645097,-0.128897
1650,A,359611008550000,-8.4448395,-3.0656252,-0.4239185,0.7701862,0.4314321,0.015978966
1650,A,359611028710000,-7.812554,-3.8320315,-0.5125342,0.9267801,0.45167214,-0.1470065
1650,A,359611048909000,-6.6413894,-5.4534597,-1.83219,0.77870834,0.43995422,-0.2247708
1650,A,359611069037000,-6.6533647,-6.1480155,-0.17244141,0.4495416,0.13422333,-0.1470065
1650,A,359611089160000,-9.606423,-4.3709106,0.58198977,0.6221144,0.34834146,0.6061355
1650,A,359611109288000,-11.57992,-4.033213,0.76401126,0.48469532,0.084155895,0.38456047
1650,A,359611129379000,-9.845925,-6.4018874,1.84177,-0.37390783,-0.49747851,0.23009712
1650,A,359611149507000,-7.8700347,-8.143066,2.078877,0.09374327,-0.40266997,0.5571333
1650,A,359611169725000,-11.024276,-4.8163843,2.8596535,0.57417756,-0.29614353,0.24714136
1650,A,359611189853000,-12.293635,-3.6188745,4.536167,0.51771855,-0.5187838,-0.19707392
1650,A,359611209830000,-12.8061695,-5.3289185,1.2981006,0.3834952,-0.22370553,-0.36964676
1650,A,359611229958000,-9.168135,-7.683223,-0.19878663,0.1917476,0.4527374,-0.7797736
1650,A,359611250060000,-8.008945,-7.6329274,5.024751,-0.76592517,-0.7520767,-0.8341021
1650,A,359611270188000,-3.5853443,-7.8580594,3.7649708,-1.6362462,-1.845038,-0.4314321
1650,A,359611290391000,-7.563472,-8.171807,1.7148341,-1.7267936,-0.4644553,-0.022370555
1650,A,359611310519000,-11.299703,-7.4964113,-1.1448194,-1.5659387,-0.34834146,0.294013
1650,A,359611330532000,-6.473738,-1.7555494,-6.809041,0.054328486,0.7946873,0.9321064
1650,A,359611350628000,-5.4462748,6.468948,-5.980364,2.0005667,0.61678815,0.96086854
1650,A,359611370794000,-19.064356,4.9002104,-2.3016138,1.4263891,-0.63915867,0.20772657
1650,A,359611390890000,-17.536333,-2.9841945,-3.5925295,-0.8277105,0.058589544,0.023435818
1650,A,359611410917000,-11.714041,-3.7649708,-3.05844,-1.9483687,1.0737866,0.16298546
1650,A,359611431013000,-4.737349,-4.5792775,-3.999683,-1.8535602,0.6380934,-0.18109496
1650,A,359611451100000,-1.1735597,-3.8559816,-5.1397123,-1.2580773,0.28229508,-0.6498113
1650,A,359611471196000,-2.3710694,-0.92208254,-4.2751102,-0.8309063,1.200553,-0.6775082
1650,A,359611491284000,-4.4403663,-0.6945557,-2.7590625,0.5571333,0.531567,0.070307456
1650,A,359611511380000,-5.4534597,-1.6765138,-0.68976563,3.8381479,0.6785734,1.8365159
1650,A,359611531438000,-5.9133034,-2.7327175,0.57719976,3.3310819,0.8788432,1.9813919
1650,A,359611551534000,-6.310877,-3.5949244,0.5676197,1.0503508,-0.8319715,0.06178534
1650,A,359611571742000,-7.1611085,-3.9565725,-0.62031007,0.09054748,0.10652645,-0.041545313
1650,A,359611591838000,-7.8868,-5.158872,-3.4344583,-1.5638082,-0.6828345,-0.29827404
1650,A,359611611873000,-9.424402,-5.0582814,-7.065308,-2.3574302,-1.5478293,-0.4250405
1650,A,359611631969000,-10.597961,-2.4716604,-9.608819,-0.85753787,0.060720075,0.022370555
1650,A,359611652164000,-10.935659,-1.7292042,-11.656561,0.128897,1.1302456,-0.2066613
1650,A,359611672260000,-11.999048,-4.8259645,-11.009905,-0.87564737,1.4168017,-0.58269966
1650,A,359611692450000,-11.524835,-6.715635,-5.4582496,-0.10226539,2.171009,-0.1736381
1650,A,359611712546000,-10.597961,-4.9505057,-2.7566676,1.9632823,0.7030745,0.6061355
1650,A,359611732568000,-8.55501,-3.779341,-1.0298585,0.3536678,-2.0612867,0.04474111
1650,A,359611752664000,-8.5430355,-3.391348,1.336421,-1.4668691,-1.5520903,-0.4910869
1650,A,359611772800000,-10.037527,-3.3626075,1.9232007,-2.4756746,-1.0439591,-0.65513766
1650,A,359611792896000,-9.086704,-2.9913795,1.5639478,-2.5672874,-1.3752564,-0.6125271
1650,A,359611813103000,-7.9083548,-3.0536501,2.0213966,-1.9355855,-0.65194184,-0.37071204
1650,A,359611833199000,-7.671248,-3.8104763,2.8500733,-0.9331717,0.128897,-0.31957933
1650,A,359611853448000,-7.441326,-4.2032595,3.4799635,0.027696876,0.572047,0.053263225
1650,A,359611873544000,-7.781419,-4.505032,3.9972878,0.4165184,0.5336975,0.49428272
1650,A,359611893758000,-7.7335186,-5.031936,4.423601,1.2761868,-0.5070659,0.54648066
1650,A,359611913854000,-7.0174074,-5.249883,3.7434156,2.5715485,0.27164245,0.45912898
1650,A,359611934031000,-6.5192432,-5.1061816,1.9782863,1.6149409,0.8383631,0.098004326
1650,A,359611954127000,-5.743257,-4.792434,-0.5891748,0.2066613,0.81918836,-0.19920446
1650,A,359611974313000,-4.6678934,-4.29427,-5.985154,0.19281286,1.2857742,-0.08841695
1650,A,359611994409000,-3.8176613,-3.0871804,-14.303058,0.38136467,1.0791129,0.3121225
1650,A,359612014586000,-4.311035,-1.1831397,-15.285015,0.02130529,-0.37816888,0.0031957934
1650,A,359612034682000,-5.9875493,-1.8058448,-8.5502205,0.17257284,-0.3653857,0.046871636
1650,A,359612054939000,-7.5467067,-3.0249097,-3.0752053,-0.060720075,-0.31318775,0.32277513
1650,A,359612075035000,-8.406519,-3.9206471,0.1101709,-0.77231675,-0.5901565,0.4250405
1650,A,359612095297000,-9.508228,-4.775669,2.2632935,0.054328486,-0.060720075,0.5113269
1650,A,359612115393000,-11.299703,-5.015171,1.6525636,2.4309335,1.0610034,0.6956177
1650,A,359612135707000,-12.957056,-2.7422974,-2.0501368,3.7039244,1.2815131,0.8245147
1650,A,359612155803000,-13.495935,-0.97956306,-7.237749,2.0208068,-0.86606,0.64768076
1650,A,359612176103000,-13.821658,-2.1387525,-7.551497,0.59761333,-0.7499462,-0.4048005
1650,A,359612196199000,-13.771363,-4.8020144,-3.772156,1.0375676,-0.46871635,-0.15659387
1650,A,359612216467000,-13.342654,-5.455855,-0.24908204,0.9416938,-1.526524,0.19387813
1650,A,359612236563000,-12.106824,-5.518125,2.3758595,-0.13528858,-1.5371766,0.02876214
1650,A,359612256865000,-11.989469,-6.104905,4.27032,-1.6362462,-0.42077947,-0.14487597
1650,A,359612276961000,-10.341695,-7.3455253,5.863008,-2.030394,0.74461985,-0.3153183
1650,A,359612297205000,-9.086704,-7.9897857,6.701265,-1.7235979,1.0365024,-0.1949434
1650,A,359612317301000,-9.498648,-7.6089773,6.4976883,-1.0279802,0.0958738,0.00958738
1650,A,359612337500000,-11.175161,-6.246211,3.8224514,-0.0958738,0.113983296,0.049002163
1650,A,359612357596000,-10.595567,-5.5875807,-0.117355965,-0.06178534,0.09374327,0.06711166
1650,A,359612377849000,-8.57896,-4.536167,-4.232,-0.035153728,0.5113269,0.34194988
1650,A,359612397945000,-6.5072684,-2.6896071,-7.9227247,1.3518206,1.5201324,0.23329292
1650,A,359612418232000,-3.899092,-1.4058765,-9.541759,0.8692558,0.79681784,0.040480047
1650,A,359612438328000,-3.06323,-1.1496094,-7.2545147,-0.40266997,0.4910869,-0.350472
1650,A,359612458533000,-3.1614258,-0.7807764,-4.1984696,-0.29188246,0.068176925,-0.09267801
1650,A,359612478629000,-2.663262,-1.3196558,-1.7172291,0.78296936,0.13954964,0.69668293
1650,A,359612498899000,-2.579436,-1.8681153,-0.4742139,1.0375676,-0.31957933,0.002130529
1650,A,359612518995000,-3.776946,-1.5399976,-0.41912845,-0.09161274,0.02876214,0.43249738
1650,A,359612539159000,-4.888235,-1.8465601,-1.0466236,-1.0950918,-0.30786142,0.3568636
1650,A,359612559255000,-5.3959794,-3.0201197,-1.9351759,-1.4359765,-1.7928401,-0.36645097
1650,A,359612579428000,-6.552774,-4.643943,-3.1326857,-0.7584683,-2.3840618,0.5305017
1650,A,359612599524000,-9.239985,-4.6774735,-2.668052,0.8863,-2.058091,0.7755125
1650,A,359612620033000,-12.9259205,-2.9602442,-3.6212697,2.6684875,-0.13741912,0.12783173
1650,A,359612640129000,-13.986915,-1.6429834,-9.271121,3.1073763,1.320928,-0.26844665
1650,A,359612660363000,-11.979888,-0.852627,-11.682906,2.126268,0.15659387,0.066046394
1650,A,359612680459000,-10.032737,-2.2776637,-8.907078,0.21198763,-1.4551512,0.31318775
1650,A,359612700665000,-8.947793,-5.352869,-2.907554,-1.1345067,-0.7680557,-0.09267801
1650,A,359612720761000,-8.856783,-8.885523,1.4609619,-2.6205506,-0.80107886,-0.15765914
1650,A,359612741072000,-8.840017,-9.534574,4.040398,-3.387541,-1.506284,-0.1470065
1650,A,359612761168000,-10.41115,-6.9383717,6.0402393,-2.2743397,-0.50173956,-0.24074976
1650,A,359612781403000,-9.261541,-8.305928,5.007986,-0.7030745,0.41864893,0.12357068
1650,A,359612801499000,-9.134604,-5.716912,0.9651929,-0.32170987,-0.5070659,0.5997439
1650,A,359612821781000,-9.620794,-3.9469924,-1.3651612,-1.7715348,-0.9395633,0.34940675
1650,A,359612841877000,-9.793235,-6.0354495,-0.76161623,-2.328668,0.4282363,-0.06924219
1650,A,359612862099000,-9.13221,-6.219866,-2.9003687,-1.8034927,-0.054328486,-0.7701862
1650,A,359612882195000,-6.2342362,-4.624783,-11.330838,-1.4146712,-0.76912093,-1.4093449
1650,A,359612902407000,-4.7948294,-4.282295,-9.699829,-1.3688648,-0.05219796,-1.1952267
1650,A,359612922503000,-5.012776,-2.6297317,-1.3507911,-0.45060685,0.42077947,-0.6945524
1650,A,359612942708000,-5.1061816,-2.064507,2.1124072,0.97258645,0.51665324,0.257794
1650,A,359612962804000,-5.225933,-2.9482691,2.6225464,1.4136059,0.8522116,0.386691
1650,A,359612983052000,-4.3373804,-1.961521,1.2022998,1.7310548,1.7694043,0.4708469
1650,A,359613003148000,-3.65959,0.100590825,0.9987232,2.146508,1.3006879,0.5539375
1650,A,359613023348000,-6.1312504,1.5184424,0.28261232,0.8479505,-0.74675035,0.76059884
1650,A,359613043444000,-8.365804,1.4322218,0.68018556,0.2908172,-0.82344943,0.5049353
1650,A,359613063649000,-10.32014,-0.23950197,1.0346485,1.2293152,1.0769824,0.43356264
1650,A,359613083745000,-13.43606,-0.36883304,-2.179468,1.3827133,0.4261058,0.70840085
1650,A,359613103953000,-14.291082,0.10777588,-5.127737,1.2942963,0.14274544,0.44315
1650,A,359613124049000,-13.438456,0.244292,-4.5601172,1.067395,0.3110572,0.22796659
1650,A,359613144256000,-12.202625,-0.70174074,-3.4895437,0.037284255,-0.4133226,0.35792887
1650,A,359613164352000,-13.383369,-1.9998415,-2.0142114,-0.93849796,-0.69987875,0.23648871
1650,A,359613184567000,-15.217955,-3.1398706,-0.7951465,-1.2101405,-0.294013,0.45912898
1650,A,359613204663000,-14.858702,-4.519402,-0.49337405,-1.3582122,0.30146983,0.45380265
1650,A,359613224845000,-12.535533,-4.4451566,0.19878663,-1.0599382,0.48149952,0.28122982
1650,A,359613244941000,-11.043435,-4.3230104,0.68018556,0.45486793,0.19068234,0.07669904
1650,A,359613265167000,-10.789563,-5.8103175,0.80233157,0.8181231,-0.5091964,-0.42184472
1650,A,359613285263000,-8.358619,-8.322693,1.468147,-2.038916,-0.24181503,-0.5496765
1650,A,359613305469000,-7.201824,-8.727451,1.947151,-2.835734,1.1174624,-1.4860439
1650,A,359613325565000,-5.360054,-9.659114,0.2778223,-1.9387813,0.74675035,-2.1880531
1650,A,359613345784000,-5.5636306,-5.910908,-4.148174,-1.1291803,0.10652645,-1.1558119
1650,A,359613365880000,-7.683223,-1.9184108,-8.509504,-0.18109496,0.05539375,-0.09054748
1650,A,359613386106000,-6.373147,-1.2478052,-7.7454934,1.0354371,0.2908172,0.3334278
1650,A,359613406202000,-5.5947657,-0.73048097,-5.5780005,1.6064188,0.38456047,0.24714136
1650,A,359613426434000,-5.0846267,-0.117355965,-3.8727467,0.67324716,-0.53476274,0.2066613
1650,A,359613446530000,-3.9709425,0.16286133,-2.2537134,-0.82344943,-1.1622036,0.9864349
1650,A,359613466705000,-3.1374757,0.2802173,-1.1400293,-1.6895094,-1.1856394,0.096939065
1650,A,359613486801000,-3.1614258,0.38080812,-0.7592212,-1.9121497,-0.7030745,0.3568636
1650,A,359613506978000,-3.8464015,0.43589357,-0.81909674,-1.0524813,-0.39947417,1.4892397
1650,A,359613527074000,-5.6833816,0.366438,-1.0514137,0.2759035,-0.2727077,0.46978164
1650,A,359613547251000,-7.793394,0.035925295,-1.0418335,1.2868395,-0.099069595,-0.86499476
1650,A,359613567347000,-9.601634,-1.2046949,-1.099314,0.93849796,-0.9491506,-0.87990844
1650,A,359613587528000,-12.274476,-2.5866213,-1.3076807,0.27377295,0.15978967,-1.4732608
1650,A,359613607624000,-16.099321,-3.539839,-2.0932472,-1.0173275,-0.22796659,-0.809601
1650,A,359613627814000,-17.816551,-5.0654664,-3.6045046,-0.38242993,-0.06711166,0.2396845
1650,A,359613647910000,-14.655125,-7.0054326,-4.754114,-0.13315806,-0.039414786,0.386691
1650,A,359613668091000,-12.530743,-7.1203933,-5.1852174,-0.9502159,-0.30146983,0.32597092
1650,A,359613688187000,-11.414663,-7.046148,-5.4223247,-0.13954964,0.58056915,0.19387813
1650,A,359613708378000,-9.570498,-6.9958525,-4.9720607,0.41971418,0.34301516,-0.13954964
1650,A,359613728474000,-8.224498,-5.853428,-4.272715,-1.2250541,-0.7286409,-0.70840085
1650,A,359613748628000,-8.411309,-3.1326857,-4.366121,-2.3702135,-0.6221144,-0.7339672
1650,A,359613768724000,-7.067703,-2.1387525,-3.288362,-1.8152106,0.5592638,-0.7499462
1650,A,359613788931000,-5.927674,-2.1770728,-1.3771362,-0.67005134,1.2389026,-0.773382
1650,A,359613809027000,-6.449788,-1.8250049,-0.07185059,0.36964676,1.0961571,-0.42717105
1650,A,359613829161000,-7.101233,-1.4346168,0.6777906,1.0908308,0.757403,-0.2514024
1650,A,359613849257000,-6.710845,-1.4370118,0.9963282,1.9963056,0.6487461,-0.28655612
1650,A,359613869463000,-6.2845316,-1.3100758,0.7831714,1.8727349,1.4455639,0.40053943
1650,A,359613889559000,-6.5240335,-1.1064991,0.30895755,-0.38029942,-0.23542345,0.66152924
1650,A,359613909765000,-6.3875175,-1.1951149,0.07185059,-1.216532,-0.551807,1.1132014
1650,A,359613929861000,-5.8127127,-1.468147,0.18920656,-0.31318775,-0.8586032,0.96086854
1650,A,359613950061000,-4.897815,-1.9687061,0.63707525,0.5070659,-1.8993665,1.5765914
1650,A,359613970157000,-4.734954,-2.0812721,0.38080812,0.59867865,-0.9672601,1.9345202
1650,A,359613990357000,-5.3097587,-1.9184108,-0.3784131,0.8767126,0.6317018,0.30040458
1650,A,359614010453000,-6.4114676,-1.9136207,-1.0346485,2.0410466,0.773382,-0.9853696
1650,A,359614030689000,-8.186177,-2.2776637,-1.4394068,2.4522388,0.3153183,-0.67218184
1650,A,359614050785000,-10.31535,-2.6967921,-1.8058448,1.2463595,-0.45380265,-0.022370555
1650,A,359614070984000,-12.149935,-2.8836036,-2.2848487,-0.11930962,-0.24714136,0.17044231
1650,A,359614091080000,-13.48396,-2.8979738,-3.3793726,-0.6380934,0.53476274,-0.024501082
1650,A,359614111269000,-14.60962,-2.6441016,-6.871311,-1.2793826,0.7222493,0.25885928
1650,A,359614131365000,-14.305452,-3.0057497,-12.377461,-1.099353,1.1653993,0.15446335
1650,A,359614152161000,-14.317428,-3.6332448,-9.11784,-0.5656554,1.2580773,-0.035153728
1650,A,359614172289000,-15.232325,-3.9781277,-2.315984,-0.3334278,0.2972088,-0.014913702
1650,A,359614192449000,-14.173726,-5.2666483,2.203418,-0.10013486,-0.3270362,0.054328486
1650,A,359614212609000,-13.527071,-5.9061184,4.495452,0.06391586,-0.44421527,-0.07669904
1650,A,359614232769000,-11.182346,-7.094048,6.09772,0.31318775,0.07137272,-0.10759171
1650,A,359614252929000,-8.377779,-7.534732,5.968389,0.8362326,1.252751,-0.19707392
1650,A,359614273181000,-7.704778,-6.8497562,3.9877076,0.54435015,0.48363006,-0.12676647
1650,A,359614293309000,-7.422166,-5.9324636,1.5998731,-0.74675035,0.28122982,-0.18216023
1650,A,359614313506000,-6.926397,-4.2918754,-1.1927198,-0.6306366,-0.020240024,0.099069595
1650,A,359614333634000,-6.2342362,-2.6153615,-3.6859353,0.8681905,0.3898868,0.44528055
1650,A,359614353694000,-6.119275,-0.9987232,-6.1719656,0.9416938,-0.15339808,0.3089267
1650,A,359614373822000,-5.601951,0.30895755,-7.592212,0.257794,-0.19387813,0.3898868
1650,A,359614394030000,-4.6032276,0.93405765,-5.815108,-0.35792887,-0.6327671,0.28122982
1650,A,359614414158000,-3.8751419,0.7951465,-3.4775686,-0.67218184,-0.7105314,0.4644553
1650,A,359614434215000,-2.9482691,0.25147706,-1.6621436,0.15339808,-0.4165184,0.35473305
1650,A,359614454311000,-2.4980054,-0.3065625,-0.5388794,1.2474247,-0.18109496,-0.13315806
1650,A,359614474473000,-4.038003,-0.77359134,-0.5005591,1.7736653,-0.2876214,-0.11930962
1650,A,359614494569000,-5.745652,-1.9998415,-1.336421,2.4383903,-0.22583607,0.033023197
1650,A,359614514763000,-8.076006,-3.056045,-2.320774,2.9337382,-1.0290455,-0.094808534
1650,A,359614534891000,-10.312955,-3.8176613,-2.0309765,1.9686087,-1.2804478,-0.46232477
1650,A,359614555015000,-12.540323,-4.2751102,-1.8561403,1.0205233,0.44528055,-0.72651035
1650,A,359614575111000,-14.695841,-3.4631984,-3.3123121,-0.24607609,0.18961707,-0.128897
1650,A,359614595330000,-13.668377,-3.278782,-6.8114357,-2.590723,-1.2112057,0.27057716
1650,A,359614615426000,-10.7943535,-4.517007,-8.375383,-2.7505128,-0.86606,0.08735169
1650,A,359614635553000,-11.105706,-5.6761966,-6.423443,-0.23861924,0.8277105,0.18855181
1650,A,359614655649000,-12.688814,-4.91937,-4.2248144,0.55606806,1.2048141,0.5400891
1650,A,359614675872000,-9.570498,-5.2905984,-1.83219,-1.2676647,-0.0777643,0.3270362
1650,A,359614695968000,-7.3742657,-7.201824,0.26105714,-2.247708,0.48469532,0.0010652645
1650,A,359614716220000,-8.394544,-5.3863993,1.0011182,-1.9803267,1.1899004,-0.56885123
1650,A,359614736316000,-8.59333,-3.3841627,-0.22273682,-1.6809874,0.55606806,-0.6828345
1650,A,359614756399000,-8.073611,-3.0728102,-0.54366946,-1.3550164,-0.09054748,-0.15659387
1650,A,359614776495000,-8.842413,-3.0177248,-0.50534916,-0.74781567,-0.21944448,0.10439592
1650,A,359614796683000,-8.715476,-2.9674294,-0.5412744,0.5581986,0.37284255,0.32277513
1650,A,359614816779000,-7.680828,-3.0752053,-0.62510014,1.6053536,0.6870956,0.4293016
1650,A,359614836943000,-6.229446,-3.2356715,-0.5388794,1.123854,-0.10013486,0.24181503
1650,A,359614857039000,-5.9875493,-2.6704469,-0.67539555,0.4857606,0.20133498,0.15339808
1650,A,359614877257000,-5.7624173,-2.0309765,-0.90771246,0.2247708,-0.05219796,0.025566347
1650,A,359614897353000,-4.6104126,-1.6046631,-1.0346485,0.42717105,-0.10865697,0.20559604
1650,A,359614917588000,-4.2511597,-0.93405765,-1.4298267,0.93636745,0.4676511,0.24394555
1650,A,359614937684000,-4.6511283,-0.48618898,-1.9184108,1.2623384,0.5773733,0.16085494
1650,A,359614957866000,-5.6738014,-0.6945557,-1.8681153,1.4913702,0.46871635,0.15446335
1650,A,359614977962000,-7.173084,-1.5304176,-0.7232959,1.8546255,1.1323761,0.11504856
1650,A,359614998233000,-8.471185,-2.7279274,-0.5628296,1.9920446,0.88843054,0.17150758
1650,A,359615018329000,-9.941727,-2.579436,-2.078877,1.2197278,-1.3028184,0.5273059
1650,A,359615038482000,-12.942686,-1.3124708,-5.611531,-0.15339808,-0.98750013,0.6466155
1650,A,359615058578000,-14.456339,-0.51732427,-8.938213,-0.72651035,1.1004182,0.13635385
1650,A,359615078800000,-11.484119,-2.0429518,-9.616004,-1.3965617,-0.068176925,-0.57311225
1650,A,359615098896000,-11.103311,-3.307522,-7.9778104,-1.5403724,-1.6149409,-0.5123922
1650,A,359615119104000,-13.100758,-3.6500099,-5.736072,-0.6327671,0.21198763,0.09054748
1650,A,359615139200000,-13.833633,-4.366121,-2.3710694,-1.7108147,0.5390238,0.36325517
1650,A,359615159386000,-13.2564335,-4.5577226,0.37362307,-2.7526433,-1.1515509,-0.025566347
1650,A,359615179482000,-11.965518,-4.485872,1.8561403,-1.824798,0.20240025,-0.99921805
1650,A,359615199708000,-10.844649,-4.414021,2.2920337,-2.1007016,0.19068234,-1.7907095
1650,A,359615219804000,-9.299861,-4.893025,2.7710378,-2.0176108,-0.6849651,-0.89801794
1650,A,359615239946000,-8.090376,-5.3959794,3.0009596,-0.36112466,-0.7392935,-0.18002969
1650,A,359615260042000,-7.565867,-5.2834134,2.2345533,1.2740563,0.1438107,0.094808534
1650,A,359615280244000,-7.096443,-4.311035,0.12933107,1.28897,0.05965481,0.28975195
1650,A,359615300340000,-6.4833183,-3.1925611,-1.7842896,0.6988135,0.23222765,1.0333065
1650,A,359615320623000,-6.8018556,-1.9327809,-3.3051271,0.49002165,-0.20772657,0.73822826
1650,A,359615340719000,-7.31918,-0.34009278,-4.8571,-0.13422333,-0.6103965,0.25885928
1650,A,359615360894000,-6.4833183,0.4239185,-5.597161,-0.2759035,-0.6668556,0.12037488
1650,A,359615380990000,-4.89542,-0.31374758,-4.744534,0.63702816,-0.28442562,0.12037488
1650,A,359615401204000,-3.5733693,-0.49576905,-3.0799952,1.6426378,0.0031957934,0.05006743
1650,A,359615421300000,-3.4536183,-0.6562354,-1.5591577,2.0687435,0.38562572,0.043675844
1650,A,359615441454000,-4.655918,-0.94603276,-0.86220706,1.965413,0.6593987,-0.03195793
1650,A,359615461550000,-6.3707523,-1.7315992,-1.096919,1.6330504,0.5592638,-0.03089267
1650,A,359615481747000,-7.575447,-2.5267458,-1.8441651,0.76272935,0.36325517,-0.101200126
1650,A,359615501843000,-8.904683,-3.0201197,-2.9961696,-1.2346416,-0.07350325,-0.34621096
1650,A,359615522017000,-10.226734,-3.2500417,-3.9517825,-3.7167077,-1.1014835,-0.3568636
1650,A,359615542113000,-11.129656,-3.6380348,-4.605623,-4.621117,-1.7310548,-0.55287224
1650,A,359615562277000,-11.714041,-3.7985013,-6.3899126,-2.5896578,-0.3110572,-0.50173956
1650,A,359615582373000,-11.309282,-5.4055595,-7.417376,1.0578076,1.2857742,0.08948222
1650,A,359615602596000,-12.540323,-6.1504107,-4.646338,2.1976407,0.6327671,0.6689861
1650,A,359615622692000,-13.848003,-5.7480474,-2.208208,0.76485986,-0.3749731,0.2609898
1650,A,359615642858000,-11.934382,-6.6581545,-0.57001466,-0.6828345,0.27057716,-0.23222765
1650,A,359615662954000,-9.438772,-7.4509063,1.2406201,-1.5808525,0.07137272,-0.809601
1650,A,359615683104000,-8.811277,-4.7469287,0.244292,-1.7747306,-0.42290998,-0.79894835
1650,A,359615703200000,-7.575447,-2.3543043,-2.1052222,-1.144094,0.02876214,-0.4079963
1650,A,359615723371000,-6.7970657,-2.4213648,-1.8609302,0.2034655,0.5581986,-0.2130529
1650,A,359615743467000,-7.793394,-2.8596535,-1.341211,1.2175972,1.1142666,-0.07456851
1650,A,359615763651000,-7.32397,-3.5733693,-1.583108,-0.0063915867,-1.0503508,-0.34088463
1650,A,359615783747000,-5.9037232,-3.3626075,-1.719624,-0.52837116,-0.5028048,0.4644553
1650,A,359615803908000,-5.352869,-2.663262,-1.9255958,-0.027696876,0.572047,0.37603834
1650,A,359615824004000,-4.663103,-2.3327491,-1.5663428,0.094808534,-0.48149952,-0.1257012
1650,A,359615844493000,-4.2080493,-2.059717,-1.0035132,0.51665324,-0.12996227,0.24181503
1650,A,359615864589000,-3.9469924,-1.9016455,-0.92926764,0.89801794,0.47510794,0.36964676
1650,A,359615884798000,-3.8583767,-1.8274,-1.1352394,1.0855045,0.12037488,0.07456851
1650,A,359615904894000,-4.615203,-2.088457,-1.4944923,1.3038837,0.18748654,0.035153728
1650,A,359615925110000,-5.9061184,-2.5075855,-2.0525317,1.4913702,0.36005938,0.1107875
1650,A,359615945206000,-8.672366,-1.9399658,-2.7710378,1.031176,0.13102753,-0.02876214
1650,A,359615965407000,-11.864927,-0.6227051,-3.2380664,-0.5134575,0.025566347,-0.32597092
1650,A,359615985503000,-12.81575,-0.5963599,-3.0608351,-1.788579,-1.139833,-0.084155895
1650,A,359616005727000,-13.194163,-1.7124391,-4.84752,0.37923414,-0.37284255,0.41971418
1650,A,359616025823000,-13.2420635,-2.802173,-8.56459,-0.19813919,1.4849787,0.16937704
1650,A,359616045997000,-13.740228,-3.796106,-6.957532,-0.45699844,0.84688526,0.025566347
1650,A,359616066093000,-15.174845,-3.3697927,-2.562671,0.025566347,-0.14061491,-0.039414786
1650,A,359616086290000,-14.758111,-4.232,0.7951465,-0.27057716,-0.81918836,-0.05006743
1650,A,359616106386000,-13.974939,-5.142107,3.046465,-0.41545314,-0.09374327,-0.024501082
1650,A,359616126589000,-13.000167,-5.951624,4.2367897,0.06924219,0.94488955,-0.06498113
1650,A,359616146685000,-9.75252,-8.411309,4.6199927,-0.515588,0.29188246,-0.26312032
1650,A,359616166875000,-6.706055,-10.059082,2.9578493,-0.66365975,0.07882957,-0.28868666
1650,A,359616186971000,-5.4342995,-9.259146,-1.0729688,-0.08628642,-0.022370555,-0.16192019
1650,A,359616207177000,-5.9947343,-6.3156667,-6.5407987,0.66365975,0.27696875,0.13741912
1650,A,359616227273000,-6.964717,-3.3769777,-10.37762,0.8522116,0.65513766,0.47191215
1650,A,359616247541000,-6.8521514,-1.8968556,-10.176438,-0.22690132,-0.4165184,0.2428803
1650,A,359616267637000,-6.344407,-1.4465919,-7.29523,-0.22264028,0.79681784,0.20453078
1650,A,359616287844000,-5.5420756,-1.4034815,-4.5409575,0.4857606,0.5134575,0.040480047
1650,A,359616307940000,-4.6966333,-1.4609619,-2.7159522,0.6668556,-0.35579833,0.1107875
1650,A,359616328145000,-3.774551,-1.7747096,-1.3795313,0.9619338,-0.2514024,0.28336033
1650,A,359616348241000,-3.0919704,-1.8585353,-0.6777906,1.0695255,-0.03834952,0.18855181
1650,A,359616368461000,-2.8620484,-1.719624,-0.3520679,0.777643,-0.3121225,0.010652645
1650,A,359616388557000,-3.403323,-1.5256275,-0.5508545,0.41545314,-0.34834146,-0.12037488
1650,A,359616408765000,-5.367239,-0.76880133,-0.9484278,-0.24714136,-0.5592638,-0.29507825
1650,A,359616428861000,-8.262817,-0.11256592,-0.17244141,-0.8181231,-0.67218184,-0.28549087
1650,A,359616449063000,-13.881534,-1.0825489,4.2032595,-0.5997439,-0.42290998,-0.03089267
1650,A,359616469159000,-20.094215,-4.4475513,5.249883,-0.6785734,-0.07456851,0.257794
1650,A,359616489325000,-17.490828,-3.7985013,-1.1663746,-1.3187973,-0.1587244,-0.0010652645
1650,A,359616509421000,-13.234879,-4.021238,-5.870193,-1.1728562,0.02876214,-0.2759035
1650,A,359616529597000,-9.836346,-7.0198026,-8.962164,-0.12463594,0.5113269,-0.14061491
1650,A,359616549693000,-5.980364,-9.323812,-9.261541,0.79681784,0.5113269,0.16298546
1650,A,359616569865000,-5.9707837,-9.108259,-8.145462,0.3057309,0.09054748,0.221575
1650,A,359616589961000,-7.5299416,-7.055728,-6.6773148,-0.6146576,-0.4111921,-0.13528858
1650,A,359616610198000,-6.485713,-5.8510327,-4.90979,-0.33449304,0.10972224,-0.25246766
1650,A,359616630294000,-5.997129,-3.6332448,-5.237908,-0.07243799,0.30360037,-0.3110572
1650,A,359616650533000,-6.346802,-2.5243506,-5.640271,-0.5113269,-0.34301516,-0.12357068
1650,A,359616670629000,-7.1156034,-2.3854396,-4.397256,-0.05219796,-0.12996227,0.21837921
1650,A,359616690798000,-9.182506,-2.5938063,-2.1579127,0.77444726,0.12037488,0.48043427
1650,A,359616710894000,-10.106983,-2.9937747,-0.37122804,1.0950918,0.01917476,0.4676511
1650,A,359616731075000,-8.943004,-2.7806177,0.1820215,0.61678815,-0.7052051,0.572047
1650,A,359616751171000,-7.927515,-2.090852,0.3424878,0.35792887,0.22264028,0.8085357
1650,A,359616771352000,-7.6137676,-1.6429834,0.07185059,0.71159667,0.43782368,0.51026165
1650,A,359616791448000,-6.725215,-0.9627979,-1.4753321,0.85540736,-0.1736381,0.3121225
1650,A,359616811658000,-4.905,-0.74006104,-2.9458742,1.5297197,0.0958738,0.4048005
1650,A,359616831754000,-4.8163843,-0.974773,-1.7986598,2.1603563,0.5997439,0.60080916
1650,A,359616851950000,-7.3766603,-2.0812721,2.9578493,1.5052186,-0.058589544,0.5091964
1650,A,359616872046000,-7.94428,-2.5267458,3.415298,-0.113983296,-0.53476274,0.013848438
1650,A,359616892210000,-7.4652762,-1.463357,-2.8333082,-1.0982877,-0.1587244,-0.38456047
1650,A,359616912306000,-5.9396486,-2.2177882,-7.8724294,-0.74461985,-0.07456851,-0.19707392
1650,A,359616932509000,-5.7480474,-3.2572267,-10.655442,0.28122982,0.26738137,0.029827405
1650,A,359616952605000,-8.080796,-3.6212697,-12.578643,0.80107886,0.13422333,0.19707392
1650,A,359616972718000,-9.865086,-3.7194655,-12.497212,-0.38136467,-0.7094661,0.23542345
1650,A,359616992814000,-10.44468,-3.4895437,-11.120076,-2.2913837,-0.09161274,-0.20559604
1650,A,359617013057000,-11.053016,-4.854705,-7.94428,-2.4586303,0.24394555,-0.69987875
1650,A,359617033153000,-11.273357,-5.1924024,-4.756509,-1.4231933,0.3472762,-0.49002165
1650,A,359617053379000,-11.958333,-4.25595,-3.2021413,-0.47191215,0.29507825,-0.09161274
1650,A,359617073475000,-11.309282,-4.038003,-1.5974782,-0.5603291,-0.27164245,-0.094808534
1650,A,359617093667000,-10.502161,-4.84752,-0.6825806,-0.58269966,-0.47510794,-0.26418558
1650,A,359617113763000,-9.501043,-5.5468655,0.61552006,0.22264028,0.737163,-0.33768883
1650,A,359617133942000,-9.4507475,-5.4582496,1.7986598,0.16085494,0.6988135,-0.43249738
1650,A,359617154038000,-9.034014,-5.479805,2.315984,-0.57417756,-0.49641323,-0.28655612
1650,A,359617174252000,-7.9227247,-4.9169755,1.7794995,-0.19068234,-0.06924219,0.11824436
1650,A,359617194348000,-7.230564,-3.2141163,0.32093263,0.67537767,0.5486112,0.24074976
1650,A,359617214544000,-7.2114043,-1.7962648,-0.2706372,0.8447547,0.36964676,0.27057716
1650,A,359617234640000,-7.084468,-0.8214917,-0.35685793,0.19600865,-0.2759035,0.32490566
1650,A,359617254832000,-6.5072684,-0.10538086,-0.39517823,0.22903186,0.9033443,0.28442562
1650,A,359617274928000,-5.997129,0.0023950196,-1.7339942,0.30786142,0.38562572,0.029827405
1650,A,359617295115000,-5.369634,-0.364043,-5.0750465,0.2790993,-0.5070659,-0.017044231
1650,A,359617315211000,-4.1960745,-0.20597169,-7.654483,1.180313,-0.330232,0.3334278
1650,A,359617335411000,-3.6907253,0.16286133,-8.768167,2.1177456,0.29294774,0.6327671
1650,A,359617355507000,-4.167334,-0.33290774,-8.983719,2.1092236,-0.24501082,0.71798825
1650,A,359617375685000,-5.1756372,-0.90052736,-7.5299416,1.160073,-1.1739215,0.30360037
1650,A,359617395781000,-7.0269876,-1.5376027,-5.8965383,-0.51771855,-1.1483551,-0.21518342
1650,A,359617415941000,-9.881851,-3.0871804,-5.120552,-1.490305,-0.5305017,-0.39521313
1650,A,359617436101000,-12.588223,-4.397256,-4.703819,-1.1227888,0.13635385,-0.67963874
1650,A,359617456229000,-13.97973,-5.142107,-4.382886,-1.3230585,-0.5113269,-0.5273059
1650,A,359617476453000,-12.487633,-6.0593996,-4.4595265,-2.433064,-0.6530071,-0.13848437
1650,A,359617496549000,-9.137,-6.8856816,-4.2272096,-2.5246768,-0.31638354,-0.6018744
1650,A,359617516759000,-8.784932,-6.6485744,-3.5973196,-1.9590213,0.12144015,-0.7978831
1650,A,359617536855000,-9.783655,-5.455855,-3.1231055,-0.9821738,0.39521313,-0.5656554
1650,A,359617557042000,-8.969349,-4.528982,-3.0847852,0.294013,-0.22690132,-0.11824436
1650,A,359617577138000,-8.296348,-2.6297317,-3.6500099,0.8852348,-0.060720075,-0.04580637
1650,A,359617597343000,-7.9059596,-1.0657837,-3.7625759,0.3057309,1.0833739,-0.33662358
1650,A,359617617439000,-6.947952,-1.0083033,-2.9674294,-1.176052,0.21411815,-0.41545314
1650,A,359617637647000,-6.461763,-1.7459693,-1.7675245,-1.2154667,-0.60080916,-0.55606806
1650,A,359617657743000,-7.541917,-2.2537134,0.059875492,-0.13528858,-0.13102753,-0.5091964
1650,A,359617677942000,-9.101074,-2.804568,1.5232325,0.9321064,0.5230448,0.011717909
1650,A,359617698038000,-9.445957,-3.051255,1.5136524,1.2314457,0.24927188,0.35899413
1650,A,359617718289000,-9.596844,-2.4501052,0.17244141,1.3464943,0.55606806,0.16831179
1650,A,359617738385000,-8.971744,-1.2022998,-2.0812721,1.0610034,-0.47191215,0.3898868
1650,A,359617758639000,-5.7911572,-0.4143384,-4.6607084,1.9675435,0.38456047,0.535828
1650,A,359617778735000,-3.5709743,-0.4981641,-6.9168167,2.5715485,0.76485986,0.7052051
1650,A,359617798931000,-4.277505,-0.93405765,-7.1299734,1.3464943,0.11824436,0.6359629
1650,A,359617819027000,-5.465435,-0.85741705,-4.9481106,0.6412892,0.3334278,0.5134575
1650,A,359617839254000,-6.07856,-0.49337405,-2.4333398,0.25992453,-0.33768883,0.20559604
1650,A,359617859350000,-7.479646,-1.2070899,-1.4489869,0.406931,-0.27057716,-0.03834952
1650,A,359617879527000,-9.077125,-2.1411476,-1.3579761,0.8085357,0.19600865,-0.19068234
1650,A,359617899623000,-10.32014,-3.3171022,-2.201023,0.7765778,-0.10546118,-0.22264028
1650,A,359617919830000,-11.122471,-4.014053,-3.8679566,0.44741106,-0.25246766,-0.16192019
1650,A,359617939926000,-11.361973,-4.5074267,-6.844966,0.35899413,-0.007456851,-0.24501082
1650,A,359617960115000,-12.111614,-5.2834134,-9.273516,0.007456851,-0.5656554,-0.058589544
1650,A,359617980211000,-14.312637,-5.8989334,-7.7574687,-1.7704695,-0.21944448,0.0053263223
1650,A,359618000486000,-14.420413,-5.709727,-4.4427614,-2.0165455,0.63702816,0.010652645
1650,A,359618020582000,-12.760665,-4.897815,-2.0357666,-0.56459016,0.86606,0.30466563
1650,A,359618040787000,-11.460169,-3.4464333,-0.63707525,0.99708754,0.7392935,0.49428272
1650,A,359618060883000,-10.909314,-3.0057497,0.38559815,1.6021577,0.6668556,0.6870956
1650,A,359618081046000,-9.242381,-3.661985,1.6573536,0.9012137,0.15765914,0.6402239
1650,A,359618101142000,-7.165899,-4.25595,1.9112257,0.7307714,0.43995422,0.39414784
1650,A,359618121337000,-6.4138627,-4.3062453,1.477727,1.2378373,1.5488945,0.10865697
1650,A,359618141433000,-6.3012967,-3.891907,0.79754156,0.4048005,0.5816344,-0.11504856
1650,A,359618161625000,-6.5096636,-2.926714,-0.28500733,-0.29507825,0.0063915867,-0.28442562
1650,A,359618181721000,-7.0174074,-1.5184424,-1.104104,-0.11824436,0.26738137,-0.4495416
1650,A,359618201910000,-7.079678,-0.33769777,-1.695674,0.1257012,0.6924219,-0.30466563
1650,A,359618222006000,-6.4162574,0.22513184,-1.8010547,-0.45380265,-0.06391586,-0.9267801
1650,A,359618242179000,-5.336104,-0.05508545,-1.7387843,-1.4892397,-0.12463594,-0.53795856
1650,A,359618262275000,-4.751719,-1.0849439,-3.0752053,-1.5052186,0.644485,-0.01917476
1650,A,359618282491000,-5.1828227,-1.5040723,-7.1203933,-1.5499598,-0.16831179,-0.3057309
1650,A,359618302587000,-5.7839723,0.1460962,-9.362132,-1.2772521,-1.1994878,-0.101200126
1650,A,359618322801000,-4.6654983,0.5125342,-7.671248,-0.2609898,-1.845038,0.42290998
1650,A,359618342897000,-5.968389,-0.47900394,-5.7145166,0.9779128,-1.8013622,0.5752428
1650,A,359618363111000,-9.690249,-2.191443,-3.5709743,1.865278,-0.89588743,0.36645097
1650,A,359618383207000,-13.613292,-4.2032595,-2.7063723,2.0634172,0.36005938,0.07989483
1650,A,359618403434000,-14.839541,-5.242698,-2.318379,2.0655477,0.45486793,-0.05006743
1650,A,359618423530000,-12.590618,-6.7731156,-2.1219873,2.1273332,-0.0063915867,-0.096939065
1650,A,359618443765000,-9.137,-9.266331,-2.5578809,2.5449169,0.8181231,0.14168017
1650,A,359618463861000,-8.432864,-8.382568,-3.9541774,2.0900488,0.76912093,0.6306366
1650,A,359618484132000,-10.94524,-4.1002736,-6.706055,-0.25992453,1.3049489,-0.22690132
1650,A,359618504228000,-9.939331,-1.7124391,-7.055728,-1.8897791,1.1526161,-0.87351686
1650,A,359618524431000,-6.05461,-1.7914747,-4.7253737,-2.0953753,0.50600064,-0.7797736
1650,A,359618544527000,-4.485872,-2.0573218,-3.1853762,-1.4604776,0.1949434,-0.10013486
1650,A,359618564772000,-4.7636943,-2.3519094,-2.5818312,-1.4828482,-0.2034655,0.25885928
1650,A,359618584868000,-6.991062,-1.9902613,-1.7363893,-1.6245283,-1.1483551,-0.47191215
1650,A,359618605137000,-10.008787,-1.0274634,-1.0657837,-0.89162636,-0.5219796,-1.0301107
1650,A,359618625233000,-11.349998,-1.1112891,-0.47900394,0.77870834,0.48149952,-0.7819041
1650,A,359618645473000,-10.672208,-2.193838,0.34009278,1.7907095,0.53263223,0.16298546
1650,A,359618665569000,-9.290281,-2.8333082,1.5423926,1.5957662,1.1291803,0.37284255
1650,A,359618685804000,-8.296348,-2.7518775,1.5136524,0.61572284,0.7126619,0.35153726
1650,A,359618705900000,-7.0365677,-2.4165747,0.19160157,-0.7669904,-0.20026971,0.02876214
1650,A,359618726166000,-5.350474,-2.0932472,-0.8861573,-1.9718045,-2.1603563,-0.6988135
1650,A,359618746262000,-5.0582814,-1.4418018,-1.4873072,-1.5616777,-0.5571333,0.34940675
1650,A,359618766501000,-6.0186844,-0.8646021,-1.7866846,-0.25566345,0.2514024,0.3749731
1650,A,359618786597000,-7.414981,-0.5029541,-2.7446926,0.8926916,-0.18855181,0.28868666
1650,A,359618806804000,-9.208851,-0.21315674,-5.134922,2.3638217,0.22796659,0.6711166
1650,A,359618826900000,-10.229129,-1.0562036,-6.9790874,3.2884715,0.95660746,0.95234644
1650,A,359618847121000,-9.671089,-2.6967921,-6.437813,2.8314729,-0.08628642,0.87032104
1650,A,359618867217000,-11.254197,-3.2093263,-5.7696023,1.9781961,-0.8159926,0.531567
1650,A,359618887368000,-13.44085,-2.4668703,-5.0343313,1.4647386,0.0479369,0.17150758
1650,A,359618907464000,-14.662311,-2.5387208,-3.2548318,1.0460896,-0.22050974,0.05965481
1650,A,359618927639000,-14.786851,-3.2524366,-0.9029224,0.63915867,-0.45060685,-0.112918034
1650,A,359618947735000,-13.050462,-4.3134303,1.4322218,0.043675844,-0.7073356,-0.049002163
1650,A,359618967913000,-10.102193,-4.84752,3.4009278,-1.5648735,-1.4668691,0.35153726
1650,A,359618988009000,-7.453301,-4.9624805,4.2918754,-3.1638355,-0.22370553,0.07350325
1650,A,359619008211000,-6.1073003,-5.3097587,4.1242237,-2.7494476,0.62104917,-0.13315806
1650,A,359619028307000,-5.894143,-5.48699,3.9877076,-1.3369069,0.31851408,-0.05752428
1650,A,359619048500000,-6.943162,-5.039121,3.1446607,0.020240024,0.20879184,0.21092236
1650,A,359619068596000,-7.9394903,-4.1098537,0.13172609,0.28549087,0.08628642,0.30146983
1650,A,359619088768000,-9.280701,-2.2249732,-4.2296047,-0.0479369,0.6743124,0.22370553
1650,A,359619108864000,-10.310559,-0.45026368,-6.7970657,-0.66579026,0.64768076,0.36218992
1650,A,359619129039000,-9.932146,-0.16525635,-6.5455885,-0.89162636,-0.1438107,0.14487597
1650,A,359619149135000,-7.656878,-1.0681788,-4.4212065,-0.22796659,0.314253,-0.15233281
1650,A,359619169341000,-5.757627,-0.9364527,-1.705254,0.7957525,0.88949585,-0.2130529
1650,A,359619189437000,-4.9481106,-0.37601808,-0.50774413,1.3944311,0.8788432,-0.15020229
1650,A,359619209623000,-5.079837,-0.39517823,-0.6466553,1.3528858,0.49321744,-0.066046394
1650,A,359619229719000,-5.8055277,-0.09101075,-1.1448194,1.1121361,0.30999196,0.08522116
1650,A,359619249740000,-6.552774,0.4382886,-1.0370435,0.572047,0.2545982,0.6423545
1650,A,359619269836000,-8.286768,1.4178516,-0.10777588,0.07563378,-0.38775626,0.2727077
1650,A,359619290015000,-9.812395,0.49576905,1.5160475,-0.3057309,-0.48469532,-0.060720075
1650,A,359619310111000,-11.364368,-1.6453785,2.8548634,-0.44315,-0.8586032,0.08735169
1650,A,359619330293000,-13.625267,-2.6129665,3.0776002,-0.18109496,-0.8863,0.31638354
1650,A,359619350389000,-15.790364,-3.0656252,1.3244458,0.38775626,-0.68389976,0.22583607
1650,A,359619370560000,-12.588223,-5.1804276,-0.6849756,1.015197,-0.023435818,-0.068176925
1650,A,359619390656000,-9.558523,-6.0737696,0.28261232,1.4466292,0.41225734,-0.33129725
1650,A,359619410877000,-10.085427,-6.143225,0.2778223,1.603223,0.6924219,-0.37923414
1650,A,359619430973000,-9.22801,-6.8808913,0.5556446,1.4306501,0.7392935,-0.4133226
1650,A,359619451175000,-7.1299734,-7.549102,2.1100123,0.8767126,-0.08628642,-0.19920446
1650,A,359619471271000,-7.7862086,-6.6030693,2.6704469,-0.0063915867,-1.4583471,0.49854377
1650,A,359619491509000,-9.72378,-3.182981,-0.28979737,-1.0226538,-0.2727077,0.3653857
1650,A,359619511605000,-8.262817,-1.9088306,-1.9327809,-1.3156016,1.0663297,-0.28975195
1650,A,359619531816000,-7.460486,-1.961521,-1.6070582,-1.3305153,0.5933523,-0.13741912
1650,A,359619551912000,-8.147857,-2.6249416,-0.92208254,-0.6711166,0.5134575,0.080960095
1650,A,359619572136000,-7.774234,-3.9350173,-0.7161109,-0.7052051,0.12463594,0.3717773
1650,A,359619592232000,-8.090376,-3.3841627,-1.223855,-1.0620687,-0.4079963,0.32810146
1650,A,359619612458000,-9.16574,-1.81782,-1.1951149,-0.38029942,0.34088463,0.1438107
1650,A,359619632554000,-9.026829,-1.3196558,-1.3220508,-0.082025364,0.97045594,-0.18535602
1650,A,359619652828000,-7.5131764,-1.334026,-1.5783179,-0.6125271,0.36751625,-0.4612595
1650,A,359619672924000,-6.3707523,-1.6884888,-1.6765138,-0.16298546,0.82344943,-0.46552056
1650,A,359619693104000,-6.0354495,-1.8681153,-1.8274,0.88949585,0.7137272,-0.3057309
1650,A,359619713200000,-6.337222,-1.3699512,-2.3135889,1.454086,0.572047,0.14061491
1650,A,359619733428000,-7.185059,-0.6730005,-3.3218923,0.55606806,-0.27696875,0.0479369
1650,A,359619753524000,-8.193362,-0.5676197,-4.402046,-0.10439592,-0.14274544,0.52837116
1650,A,359619773867000,-9.24717,-0.5987549,-4.5481424,0.28442562,0.05539375,0.30040458
1650,A,359619793963000,-10.447076,-0.8430469,-3.6955154,-0.033023197,-0.5699165,0.05965481
1650,A,359619814195000,-12.070899,-0.613125,-2.7231374,-0.25885928,-1.3923006,0.330232
1650,A,359619834291000,-13.735437,0.12454102,-1.9064356,0.38136467,-1.1696603,0.52411014
1650,A,359619854506000,-14.099481,-0.9196875,-0.51971924,0.8127968,-0.20559604,0.28975195
1650,A,359619874602000,-14.168936,-1.7651294,0.43589357,0.7275756,-0.3323625,-0.07882957
1650,A,359619894837000,-14.343773,-2.3327491,1.5376027,0.87032104,-0.16405073,-0.30146983
1650,A,359619914933000,-13.155843,-3.8056862,2.9219239,0.99282646,-0.10226539,-0.36964676
1650,A,359619935156000,-10.480606,-5.2858086,3.8224514,0.7137272,-0.47297743,-0.49321744
1650,A,359619955252000,-7.3575,-6.782696,3.9733377,0.5795039,-0.44528055,-0.44101948
1650,A,359619975486000,-4.646338,-8.006551,2.3375392,-0.4282363,-0.66152924,0.2428803
1650,A,359619995582000,-4.4212065,-5.7696023,-3.8487966,-1.6628778,-0.38562572,0.12996227
1650,A,359620015757000,-7.3838453,-1.2981006,-10.935659,-1.1451592,0.26738137,0.002130529
1650,A,359620035853000,-7.1467385,-1.8776954,-10.154883,0.24607609,1.0535465,0.25246766
1650,A,359620056040000,-5.326524,-2.5818312,-6.346802,1.8620822,0.8511463,0.43675843
1650,A,359620076136000,-4.1050634,-2.6417067,-2.943479,2.5150893,0.8362326,0.5965481
1650,A,359620096306000,-4.6942387,-2.8261232,-1.0035132,1.257012,0.6775082,0.5432849
1650,A,359620116402000,-6.861731,-1.947151,-0.62989014,-0.35579833,0.3685815,0.20133498
1650,A,359620136579000,-9.12263,0.009580079,-0.8095166,-0.8042747,0.67005134,-0.07137272
1650,A,359620156675000,-9.917776,1.2094849,-0.7544312,-0.35792887,1.3752564,-0.5592638
1650,A,359620176880000,-10.3440895,1.1208692,-0.7783814,-0.30253512,1.9813919,-0.9853696
1650,A,359620196976000,-10.217154,-0.10538086,-0.65384036,-0.28655612,1.0428939,-0.81918836
1650,A,359620217200000,-9.496253,-1.9639161,-0.24908204,-0.07989483,-0.11504856,-0.26205507
1650,A,359620237296000,-9.455538,-3.0057497,-0.5125342,0.67324716,-0.42397526,-0.15659387
1650,A,359620257538000,-10.073453,-3.5087037,-1.839375,0.96406436,0.644485,0.57098174
1650,A,359620277634000,-10.265054,-5.1397123,-4.1242237,-0.17896444,-0.6061355,0.37923414
1650,A,359620297821000,-10.918895,-6.8856816,-4.6104126,-1.0663297,-1.293231,0.1555286
1650,A,359620317917000,-13.239669,-6.375542,-5.877378,-0.8085357,-1.2644689,0.08522116
1650,A,359620338105000,-13.43127,-4.663103,-6.11688,-0.12144015,-1.0780476,0.13848437
1650,A,359620358201000,-9.486672,-5.4414845,-4.1002736,0.49321744,-1.0546118,0.2790993
1650,A,359620378399000,-6.591094,-6.0114994,-3.3506324,1.2740563,-0.34088463,0.12144015
1650,A,359620398495000,-7.455696,-4.6822634,-4.1984696,1.9590213,0.72651035,-0.07563378
1650,A,359620418678000,-10.073453,-3.2380664,-3.527864,1.5797871,0.6711166,-0.06391586
1650,A,359620438774000,-11.0051155,-2.6441016,-1.4034815,0.1736381,-0.099069595,-0.017044231
1650,A,359620458977000,-10.487791,-2.2848487,0.17962648,-0.9257148,-0.5091964,0.015978966
1650,A,359620479073000,-8.959768,-2.4788454,1.2621753,-1.6341157,-0.08522116,-0.15020229
1650,A,359620499315000,-5.848638,-3.2428565,2.2896388,-2.2583606,-0.41545314,-0.23435818
1650,A,359620519411000,-2.912344,-3.779341,2.9889846,-1.0322412,0.47723848,0.013848438
1650,A,359620539655000,-2.3758595,-3.1278956,3.182981,1.0652645,0.9416938,0.5550028
1650,A,359620559751000,-4.0787187,-2.567461,2.4213648,1.5499598,0.19281286,1.0652645
1650,A,359620579991000,-4.502637,-1.9854712,1.1639795,1.4487597,0.2727077,0.9757822
1650,A,359620600087000,-4.023633,-1.3004956,0.07424561,1.1110709,1.3986923,0.624245
1650,A,359620620280000,-3.8511915,0.021555176,-0.82388675,-0.18535602,1.0546118,0.23222765
1650,A,359620640376000,-6.1456203,1.6310084,-3.6380348,-0.38775626,1.1973573,-0.37071204
1650,A,359620660536000,-12.540323,0.6514453,-9.817185,0.9257148,2.5182853,-0.73822826
1650,A,359620680696000,-22.031786,2.3638844,-8.234077,2.0250678,1.9185413,-0.28016454
1650,A,359620700824000,-17.213007,-0.05508545,-1.575923,1.9686087,-0.92784536,-0.10013486
1650,A,359620721223000,-10.207574,-2.7542725,2.2824538,1.0002834,-0.8117315,0.38562572
1650,A,359620741319000,-12.358301,-3.3458424,0.51492923,-1.4636734,-1.5180018,0.3174488
1650,A,359620761527000,-14.144986,-3.7122805,-2.3638844,-1.474326,-1.530785,-0.32277513
1650,A,359620781623000,-12.995377,-4.169729,-2.4093897,-0.29614353,-1.2836437,-0.30253512
1650,A,359620801836000,-10.997931,-5.237908,0.13651612,0.098004326,-1.5723304,0.8681905
1650,A,359620821932000,-9.036409,-5.5564456,2.2776637,0.6263755,-1.7949706,0.8831042
1650,A,359620842305000,-7.5970025,-6.2797413,2.6345215,1.3230585,-0.35473305,0.2759035
1650,A,359620862401000,-7.1275783,-6.4833183,1.4058765,1.6437031,0.7914915,-0.05965481
1650,A,359620882610000,-6.935977,-5.3935843,-1.839375,1.4434333,0.8341021,-0.28122982
1650,A,359620902706000,-7.893985,-3.532654,-5.6857767,1.0503508,0.8181231,-0.47297743
1650,A,359620922839000,-8.792117,-2.3734643,-6.912027,0.40053943,0.45060685,-0.39521313
1650,A,359620942935000,-8.646021,-1.3771362,-5.6809864,-1.0460896,-0.9235843,-0.10652645
1650,A,359620963147000,-7.4509063,-0.6682105,-3.9565725,-2.3957798,-0.32384038,-0.13848437
1650,A,359620983243000,-6.423443,-0.43589357,-2.2824538,-3.0796795,0.19281286,-0.56245965
1650,A,359621003441000,-5.6929617,-0.31374758,-0.9196875,-2.5246768,-0.3323625,-0.46871635
1650,A,359621023537000,-5.3049684,-0.19160157,-0.06466553,-0.54648066,-0.004261058,0.4111921
1650,A,359621043625000,-5.094207,-0.3281177,0.50774413,1.5201324,0.026631612,1.091896
1650,A,359621063721000,-5.43909,-0.3520679,0.5843848,2.194445,-0.28868666,1.3805827
1650,A,359621083906000,-6.262976,-0.55803955,0.016765138,2.2125542,0.55074173,0.93849796
1650,A,359621104002000,-6.878496,-1.8082398,-0.84544194,0.42290998,1.3230585,0.36432046
1650,A,359621124125000,-7.589817,-3.293152,-0.7232959,-1.3688648,0.83729786,0.013848438
1650,A,359621144221000,-9.333391,-4.526587,-0.70174074,-0.71798825,0.6306366,-0.2876214
1650,A,359621164467000,-12.169095,-6.4593678,-1.9303858,0.54648066,0.6625945,-0.45486793
1650,A,359621184563000,-14.693445,-6.5288234,-4.1984696,1.3102753,-0.0127831735,0.035153728
1650,A,359621204817000,-13.728252,-6.952742,-8.399334,1.3923006,0.035153728,0.829841
1650,A,359621224913000,-11.821816,-6.1887307,-9.532178,-0.0053263223,0.2972088,0.6945524
1650,A,359621245073000,-11.285333,-4.6271777,-7.6592727,-1.0663297,-0.567786,0.6380934
1650,A,359621265169000,-9.793235,-4.6607084,-4.4499464,-0.34301516,0.17576863,0.21731395
1650,A,359621285395000,-7.340735,-5.877378,-1.5328126,-0.2428803,-0.44528055,-0.23116238
1650,A,359621305491000,-6.3803325,-6.1767554,0.3424878,-0.47404268,-1.3646038,0.3291667
1650,A,359621325651000,-7.038963,-5.2977834,1.2502003,0.50387007,-1.0237192,0.39627838
1650,A,359621345747000,-9.395662,-4.040398,1.5974782,1.4839134,0.35579833,0.14594123
1650,A,359621365971000,-12.463682,-3.2045362,0.8933423,1.4242586,-0.0479369,0.017044231
1650,A,359621386067000,-12.16191,-3.412903,-0.364043,0.38242993,-0.777643,-0.16085494
1650,A,359621406274000,-8.157437,-4.0691385,-1.2478052,-0.8309063,-0.9321064,-0.1949434
1650,A,359621426370000,-4.7325587,-3.9326222,-1.104104,-0.8969527,-1.220793,0.20240025
1650,A,359621446532000,-3.4057178,-2.7973828,0.30177248,-0.809601,-1.4860439,0.42184472
1650,A,359621466628000,-3.396138,-1.7675245,1.4346168,-1.7374463,-0.36964676,0.16405073
1650,A,359621486895000,-3.527864,-1.1807446,1.9040406,-2.6620958,0.27803403,-0.01917476
1650,A,359621506991000,-3.8751419,-0.5724097,0.79993653,-1.3901701,0.7414241,-0.070307456
1650,A,359621527149000,-4.5313773,0.17723145,-0.74006104,1.0226538,1.3347764,0.18642128
1650,A,359621547245000,-6.480923,0.68976563,-3.0249097,2.6045716,1.5286545,0.38136467
1650,A,359621567469000,-10.327325,0.94603276,-5.5875807,1.7257284,0.47830373,0.42717105
1650,A,359621587565000,-13.103152,0.93405765,-6.5479836,-0.1107875,0.046871636,0.12357068
1650,A,359621607787000,-12.466077,-0.122146,-5.5540504,-0.6540724,1.325189,-0.27057716
1650,A,359621627883000,-11.314073,-1.6142433,-4.160149,-0.6018744,1.0098706,-0.44101948
1650,A,359621648060000,-11.132051,-2.672842,-4.028423,-0.2034655,0.13954964,-0.13741912
1650,A,359621668156000,-11.886482,-2.8812087,-4.6654983,0.42717105,-0.314253,0.41971418
1650,A,359621688359000,-14.310243,-3.4679885,-4.1218286,1.1270498,-0.551807,0.6178534
1650,A,359621708455000,-15.397581,-4.5696974,-2.083667,1.659682,0.33449304,0.5336975
1650,A,359621728633000,-12.684024,-4.643943,0.12933107,0.28868666,0.19600865,0.20985709
1650,A,359621748729000,-10.262659,-4.184099,0.47900394,-0.66365975,-0.4527374,0.17044231
1650,A,359621768942000,-9.560919,-3.9565725,-0.25387207,0.12996227,0.07882957,-0.23755397
1650,A,359621789038000,-8.217313,-4.3709106,0.21315674,-0.23861924,-0.18855181,-0.3355583
1650,A,359621809245000,-7.31918,-4.806804,1.099314,-0.64555025,-0.8021441,-0.1257012
1650,A,359621829341000,-7.1467385,-4.258345,0.9532178,0.17044231,-0.3568636,-0.13102753
1650,A,359621849531000,-6.72761,-3.1398706,-0.083825685,0.9576728,0.12357068,-0.18748654
1650,A,359621869627000,-6.0522146,-2.2944288,-0.60594,0.9310411,-0.049002163,-0.13848437
1650,A,359621889801000,-5.3792143,-1.6501685,-0.6466553,0.38029942,-0.34088463,-0.18216023
1650,A,359621909897000,-4.9313455,-0.9627979,-0.7592212,-0.2908172,-0.221575,-0.35899413
1650,A,359621930076000,-4.6104126,-0.24908204,-1.3603711,-0.35153726,0.14168017,-0.50173956
1650,A,359621950172000,-4.2367897,0.1580713,-2.3303542,-0.88203895,-0.38562572,-0.3653857
1650,A,359621970424000,-4.3349857,0.17004639,-3.03928,-2.1443772,-0.06391586,-0.165116
1650,A,359621990520000,-6.813831,0.60594,-4.608018,-2.4266725,0.16192019,-0.23861924
1650,A,359622010742000,-11.249407,1.3819263,-9.833951,-0.773382,0.61891866,-0.2247708
1650,A,359622030838000,-10.971585,0.8430469,-12.581038,1.160073,0.86499476,0.3121225
1650,A,359622051018000,-7.31439,-0.7089258,-7.055728,2.23599,0.4676511,0.60293967
1650,A,359622071114000,-8.732242,-1.3962965,-3.06323,1.5936357,0.3834952,0.660464
1650,A,359622091333000,-12.375067,-2.1746778,-1.9806812,0.19920446,-0.37603834,0.3653857
1650,A,359622111429000,-13.347445,-4.2343946,-1.4178516,0.09267801,-0.23329292,0.036218993
1650,A,359622131631000,-12.097244,-6.7803006,-1.9399658,-0.0958738,0.97045594,-0.24820662
1650,A,359622151727000,-11.929593,-6.2342362,-3.027305,-0.5028048,0.69029135,-0.5795039
1650,A,359622171912000,-12.003839,-4.2367897,-4.2367897,0.17044231,0.757403,-0.47830373
1650,A,359622192008000,-10.526112,-4.382886,-3.8416114,1.3954965,0.49641323,-0.024501082
1650,A,359622212150000,-9.620794,-4.8666797,-2.1674929,1.9952403,-0.025566347,0.3153183
1650,A,359622232246000,-9.692644,-3.300337,-1.7435743,1.026915,-0.28868666,-0.07243799
1650,A,359622252689000,-9.038804,-1.9974464,-2.6656568,-0.5134575,0.5550028,0.14913702
1650,A,359622272785000,-8.784932,-1.4585669,-2.7399025,-1.4125407,-0.15978967,-0.22583607
1650,A,359622292952000,-9.220825,-1.0202783,-2.0213966,-1.6916399,-1.325189,-0.45912898
1650,A,359622313048000,-8.468789,-1.1520045,-0.8286768,-0.9193232,-1.4327807,0.19813919
1650,A,359622333307000,-6.574329,-1.2645704,0.5676197,0.082025364,-0.6540724,0.42184472
1650,A,359622353403000,-5.223538,-0.78556645,1.3148658,0.6956177,-0.5305017,0.070307456
1650,A,359622373593000,-4.9337406,-0.43589357,1.1639795,1.1206582,-0.26418558,-0.16831179
1650,A,359622393689000,-4.402046,-0.34727785,1.1496094,1.1068097,-0.07882957,-0.26525086
1650,A,359622413879000,-4.2200246,-0.4167334,1.1304493,0.51984906,-0.84155893,-0.2609898
1650,A,359622433975000,-5.1397123,-0.8765772,0.87418216,-0.5795039,-1.1100056,-0.24181503
1650,A,359622454225000,-6.662945,-1.6693287,1.1064991,-1.6458336,-0.4708469,-0.2790993
1650,A,359622474321000,-9.048384,-1.8010547,1.0825489,-2.7760792,-0.35899413,-0.094808534
1650,A,359622494478000,-11.8002615,-1.2046949,-1.334026,-2.9017804,-0.7275756,0.1107875
1650,A,359622514574000,-12.085269,-1.5567628,-4.873865,0.083090626,0.9416938,0.2727077
1650,A,359622534722000,-10.025552,-2.6896071,-8.028106,2.505502,1.0279802,0.70200926
1650,A,359622554818000,-9.474698,-3.9326222,-8.435259,1.7821875,0.010652645,0.6743124
1650,A,359622575039000,-9.3309965,-6.219866,-5.910908,0.23861924,1.2506205,0.25672874
1650,A,359622595135000,-10.830278,-6.339617,-4.0523734,-1.1653993,1.164334,-0.18216023
1650,A,359622615351000,-14.956898,-4.9145803,-3.2332766,-1.1813782,0.44208476,-0.6892261
1650,A,359622635447000,-16.41786,-3.1350808,-2.2872438,-0.45060685,1.1547467,-1.4658039
1650,A,359622655592000,-14.4802885,-1.9711012,-0.9148975,0.47297743,2.1539648,-1.4402375
1650,A,359622675688000,-12.319981,-3.182981,1.6573536,1.5574167,0.17896444,0.02130529
1650,A,359622695917000,-10.708133,-5.5708156,3.999683,2.5949843,-0.082025364,1.0578076
1650,A,359622716013000,-9.050779,-7.2976246,6.2917166,1.3496901,0.039414786,0.8223842
1650,A,359622736234000,-7.9969707,-6.9958525,6.1719656,0.070307456,-0.8788432,1.1345067
1650,A,359622756330000,-7.8436894,-5.352869,3.767366,0.47617322,-0.773382,0.78296936
1650,A,359622776556000,-8.059241,-3.171006,0.26105714,0.25033715,-0.8309063,0.7584683
1650,A,359622796652000,-7.8508744,-1.5304176,-3.0752053,0.037284255,-0.49854377,0.6348976
1650,A,359622816894000,-7.096443,-0.45505372,-5.2043777,0.8852348,0.23009712,-0.080960095
1650,A,359622836990000,-5.5803957,-0.5412744,-5.252278,0.7978831,0.034088463,-0.5230448
1650,A,359622857177000,-4.792434,-0.97237796,-4.2799,0.0053263223,0.7339672,-0.98110855
1650,A,359622877273000,-4.174519,-1.1376343,-3.4847536,-0.47510794,0.90654004,-1.0407634
1650,A,359622897514000,-3.8128712,-1.5639478,-3.0105398,-1.325189,-0.4825648,-0.5656554
1650,A,359622917610000,-4.416416,-1.6860938,-2.3758595,-2.3979104,-1.973935,-0.2034655
1650,A,359622937826000,-5.719307,-1.5519727,-2.0142114,-2.4160197,-2.7494476,-0.053263225
1650,A,359622957922000,-7.3575,-0.9867481,-1.9639161,-2.7888622,0.4463458,-0.08522116
1650,A,359622978185000,-8.811277,-0.6227051,-1.8561403,-2.299906,1.2911005,0.15339808
1650,A,359622998281000,-9.879456,-0.56522465,-1.2717555,0.37603834,0.29188246,0.6562029
1650,A,359623018459000,-10.873389,-1.2669654,-0.6322852,2.183792,-0.9044095,0.93636745
1650,A,359623038555000,-11.958333,-2.064507,-0.081430666,2.25623,-0.700944,0.6146576
1650,A,359623058731000,-12.166699,-2.8452833,0.20597169,0.27164245,1.0088054,0.3270362
1650,A,359623078827000,-12.042159,-3.2596216,-0.7879615,-1.4498249,0.89375687,0.18216023
1650,A,359623099020000,-11.752361,-3.5901344,-2.7782228,-1.5190672,0.17257284,-0.16937704
1650,A,359623119116000,-12.372671,-3.4488282,-4.258345,-1.0322412,0.48363006,-0.6711166
1650,A,359623139261000,-12.549903,-2.8141482,-5.0606766,0.07456851,1.5393071,-0.5390238
1650,A,359623159357000,-10.413546,-2.3447242,-4.7469287,1.3837786,0.38136467,0.03834952
1650,A,359623179583000,-8.911868,-2.215393,-3.3626075,2.163552,0.30786142,0.6689861
1650,A,359623199679000,-8.57896,-2.2872438,-2.2800586,0.69774824,0.8628642,0.16192019
1650,A,359623219842000,-9.134604,-2.2656887,-1.7124391,-1.9899141,-1.3912354,-0.5816344
1650,A,359623239938000,-9.534574,-2.0525317,-1.456172,-1.6117451,-0.26418558,0.14487597
1650,A,359623260107000,-8.840017,-1.9902613,-1.1783496,-0.21411815,-0.41971418,-0.034088463
1650,A,359623280203000,-7.5179667,-1.9711012,-1.099314,0.5550028,-1.1984226,0.15339808
1650,A,359623300392000,-6.3132715,-1.7531544,-1.22146,1.5638082,-0.28442562,0.5997439
1650,A,359623320488000,-5.527705,-1.4106666,-1.331631,1.8546255,0.10439592,0.38456047
1650,A,359623340646000,-5.3073635,-1.1472144,-1.22625,1.587244,-0.29294774,0.1736381
1650,A,359623360742000,-5.3384986,-1.0298585,-1.2046949,1.3699301,-0.44315,0.1470065
1650,A,359623380945000,-5.465435,-1.1663746,-1.4154567,1.0215886,-1.128115,0.083090626
1650,A,359623401041000,-5.822293,-1.4441968,-1.7531544,0.11717909,-0.8277105,-0.20133498
1650,A,359623421240000,-6.5384035,-1.7028589,-1.947151,-0.65513766,-0.40053943,-0.34194988
1650,A,359623441336000,-7.6113725,-1.9279908,-2.1315675,-1.0812434,-0.19068234,-0.084155895
1650,A,359623461506000,-8.825647,-2.064507,-2.4980054,-1.3592775,-0.56885123,0.1438107
1650,A,359623481602000,-10.322535,-2.0357666,-3.2189064,-0.13209279,0.099069595,0.22370553
1650,A,359623501769000,-11.999048,-2.179468,-5.0822315,1.4604776,0.89588743,0.43036684
1650,A,359623521865000,-12.25771,-2.0932472,-7.790999,1.8801918,0.63915867,0.28975195
1650,A,359623542087000,-12.463682,-2.919529,-9.735755,0.080960095,0.38775626,-0.008522116
1650,A,359623562183000,-14.422809,-4.4762917,-8.337064,-1.3944311,0.8586032,-0.15126756
1650,A,359623582394000,-14.846726,-3.887117,-5.079837,-1.5020229,0.46658584,-0.3089267
1650,A,359623602490000,-12.061319,-3.2548318,-2.8788135,-1.055677,-0.18002969,-0.42717105
1650,A,359623622688000,-10.341695,-3.3506324,-1.710044,-0.27377295,0.00958738,-0.34194988
1650,A,359623642784000,-9.656719,-4.1721244,-0.059875492,0.66579026,0.9012137,-0.4346279
1650,A,359623662924000,-9.239985,-5.992339,2.562671,1.2335763,0.6924219,-0.28229508
1650,A,359623683020000,-8.183782,-7.486831,4.184099,1.8418423,1.0887003,0.18535602
1650,A,359623703210000,-7.070098,-6.1815457,2.0860622,0.7094661,0.060720075,-0.28122982
1650,A,359623723306000,-6.353987,-3.168611,-2.3854396,-0.8948221,-0.8330368,0.25566345
1650,A,359623743401000,-5.257068,-2.1387525,-3.8272414,-0.76059884,-0.23435818,0.33981937
1650,A,359623763497000,-4.7972245,-1.4873072,-3.8679566,-0.2066613,-0.43675843,0.027696876
1650,A,359623783692000,-4.071533,-1.1112891,-3.657195,0.07882957,-0.98110855,0.3888215
1650,A,359623803788000,-2.5339308,-0.39996827,-3.8655617,0.5113269,-0.30999196,0.572047
1650,A,359623823945000,-0.40954837,-1.6357985,-8.691526,0.6125271,0.007456851,0.15659387
1650,A,359623844041000,-0.8262818,-3.3218923,-7.8532696,0.61572284,-0.13315806,-0.14487597
1650,A,359623864435000,-5.1684523,-0.91729254,-5.942044,0.48682585,-0.18535602,-0.23222765
1650,A,359623884531000,-7.6017923,1.5495777,-3.796106,-0.27057716,-0.83729786,-0.29507825
1650,A,359623904691000,-9.702225,1.0035132,-1.0298585,-0.92464954,-0.5613944,-0.4708469
1650,A,359623924851000,-11.177557,-0.24908204,1.0753639,-1.8844528,-0.7094661,-0.4048005
1650,A,359623944979000,-12.492422,-1.3891114,1.2022998,-2.6035063,-0.350472,-0.09267801
1650,A,359623965197000,-14.259947,-1.7579445,0.19160157,-1.2090752,1.1568772,-0.21198763
1650,A,359623985293000,-14.947317,-1.719624,-2.6249416,0.8607337,1.4082797,0.15339808
1650,A,359624005515000,-13.754598,-3.4057178,-5.134922,2.6716833,0.19281286,0.4889564
1650,A,359624025611000,-13.869558,-4.0044727,-5.249883,2.2370553,-0.68176925,0.21624869
1650,A,359624045796000,-14.71979,-2.9003687,-4.718189,-0.40053943,0.015978966,-0.082025364
1650,A,359624065892000,-13.3618145,-3.67875,-3.6164796,-1.5456988,1.2144015,0.03834952
1650,A,359624086088000,-10.990746,-4.960086,-1.6860938,-1.1994878,0.81066626,-0.31638354
1650,A,359624106184000,-9.70941,-4.138594,-1.1783496,-0.5336975,1.5584819,-0.91612744
1650,A,359624126382000,-8.344249,-2.6656568,-2.4836354,-0.20985709,1.6724652,-0.5230448
1650,A,359624146478000,-6.6844997,-2.1722827,-2.3471193,-0.45593318,-0.8511463,0.082025364
1650,A,359624166673000,-6.2989016,-2.2537134,-1.3675562,0.05965481,-1.619202,0.101200126
1650,A,359624186769000,-6.3875175,-2.42855,-0.5221143,1.0301107,0.64555025,-0.2514024
1650,A,359624206990000,-6.239026,-2.5578809,0.15088624,0.23755397,-0.38029942,-0.098004326
1650,A,359624227086000,-6.1695704,-2.335144,0.4742139,-0.44208476,-0.5049353,0.46019423
1650,A,359624247314000,-6.1480155,-1.9255958,0.52690434,-0.91825795,-0.6498113,0.11717909
1650,A,359624267410000,-6.1408305,-1.4825171,0.2945874,-1.1675298,-0.5550028,-0.040480047
1650,A,359624287699000,-6.2510014,-1.0442286,-0.47181886,-0.5113269,-0.4165184,0.28122982
1650,A,359624307795000,-6.1312504,-0.75203615,-1.336421,1.4519554,0.7275756,0.7307714
1650,A,359624328034000,-5.604346,-0.81909674,-1.8202149,2.718555,-0.04474111,1.019458
1650,A,359624348130000,-6.0498195,-0.96758795,-2.189048,1.5595472,-0.91186637,0.47191215
1650,A,359624368369000,-7.2401443,-1.336421,-2.3830445,0.004261058,-0.25246766,-0.30040458
1650,A,359624388465000,-8.538245,-1.7914747,-2.7782228,-0.2428803,-0.13315806,-0.30040458
1650,A,359624408683000,-10.047108,-2.090852,-3.6164796,-0.36112466,-0.6402239,-0.34514567
1650,A,359624428779000,-11.282937,-2.066902,-4.9505057,-1.4221281,-1.2623384,-0.20240025
1650,A,359624449000000,-11.908037,-1.698069,-6.241421,-2.8229508,-0.23329292,-0.16724652
1650,A,359624469096000,-12.521163,-1.1759547,-7.441326,-2.3829966,0.35792887,-0.48363006
1650,A,359624489246000,-13.665982,-1.4585669,-8.384964,0.28016454,0.9257148,-0.06711166
1650,A,359624509342000,-14.245577,-2.5770411,-7.077283,2.6908581,0.91825795,0.6583334
1650,A,359624529567000,-13.297149,-3.1853762,-4.26074,2.9561088,0.6530071,1.087635
1650,A,359624549663000,-12.149935,-3.7314405,-1.5256275,1.3092101,0.34834146,0.6625945
1650,A,359624569843000,-11.407478,-4.7157936,1.1112891,-0.25885928,0.8767126,0.16937704
1650,A,359624589939000,-10.209969,-6.3084817,3.3530276,-0.8948221,1.0727214,-0.07137272
1650,A,359624610191000,-8.459209,-7.2760696,5.024751,-0.37071204,0.35260254,-0.23009712
1650,A,359624630287000,-8.226892,-6.847361,4.6583133,0.3930826,0.15765914,-0.33449304
1650,A,359624650543000,-8.3322735,-5.4462748,2.1076174,0.9491506,0.4878911,-0.21731395
1650,A,359624670639000,-7.553892,-3.7601807,-1.1256592,0.76272935,0.7222493,0.17044231
1650,A,359624690874000,-5.7312818,-2.440525,-3.3458424,-0.3153183,-0.2790993,-0.34940675
1650,A,359624710970000,-4.605623,-1.0777588,-4.8571,-0.73609775,-0.5699165,-0.004261058
1650,A,359624731210000,-4.2296047,0.043110352,-6.071375,-0.25672874,0.098004326,0.24074976
1650,A,359624751306000,-3.4248781,0.46702883,-6.3923073,-0.10226539,-0.8319715,0.27377295
1650,A,359624771464000,-2.9051588,0.49097902,-5.5372853,0.38136467,-0.77231675,0.7105314
1650,A,359624791560000,-3.3721876,0.39517823,-4.368516,1.0833739,-0.3653857,0.45486793
1650,A,359624811759000,-4.6032276,0.21794678,-3.5182838,1.4594123,-0.4282363,0.1438107
1650,A,359624831855000,-6.7395854,-0.20597169,-2.9746144,1.2708606,-0.49960902,-0.14913702
1650,A,359624852021000,-9.0076685,-0.89573735,-2.2848487,0.8021441,-0.8479505,-0.13741912
1650,A,359624872117000,-10.729688,-1.4944923,-1.3124708,0.73290193,-1.1899004,0.20879184
1650,A,359624892317000,-11.840977,-2.3423293,-0.87178713,0.5475459,-0.5251754,-0.06391586
1650,A,359624912413000,-13.134288,-3.0105398,-0.6730005,-0.10652645,0.7222493,-0.5230448
1650,A,359624932603000,-13.234879,-2.5291407,-2.5123756,-1.9792614,0.07456851,-0.13209279
1650,A,359624952699000,-12.006233,-2.914739,-7.1347637,-1.9899141,-0.007456851,0.10759171
1650,A,359624972897000,-12.513978,-3.2572267,-8.55501,0.67324716,0.7819041,0.3110572
1650,A,359624992993000,-12.425362,-3.532654,-5.400769,2.9912627,1.0546118,0.60293967
1650,A,359625013171000,-11.620635,-4.040398,-3.3051271,1.9526298,0.2790993,0.5273059
1650,A,359625033267000,-10.859019,-4.176914,-2.083667,-1.3507553,0.22050974,0.014913702
1650,A,359625053457000,-10.308165,-5.9372535,-0.6706055,-2.7419908,1.0471549,0.06711166
1650,A,359625073553000,-8.794512,-5.1061816,0.7089258,-2.2349248,0.6668556,-0.35579833
1650,A,359625093723000,-7.4844365,-3.4967287,0.49337405,-1.0950918,0.25353295,-1.0279802
1650,A,359625113819000,-7.391031,-2.574646,-0.38559815,0.22903186,0.4463458,-0.9619338
1650,A,359625134014000,-7.462881,-1.9088306,-1.0562036,1.1195929,0.33768883,-0.18855181
1650,A,359625154110000,-6.8904715,-1.341211,-1.5519727,1.1472899,0.5933523,0.31957933
1650,A,359625174282000,-6.222261,-0.9148975,-1.7866846,0.71479243,-0.18109496,0.29507825
1650,A,359625194378000,-5.9228835,-0.8430469,-1.4441968,1.2218584,0.35579833,0.5795039
1650,A,359625214569000,-5.726492,-0.70174074,-0.99393314,1.1408982,0.02876214,0.17470337
1650,A,359625234665000,-5.704937,-0.5292993,-0.9699829,-0.18748654,-0.5635249,0.20026971
1650,A,359625254841000,-5.721702,-0.5724097,-1.2717555,-0.67005134,-0.9672601,0.43036684
1650,A,359625274937000,-5.7696023,-0.9580079,-1.5519727,-0.10226539,-0.74461985,0.2908172
1650,A,359625295122000,-6.4426026,-1.468147,-1.7387843,0.4111921,-0.588026,-0.094808534
1650,A,359625315218000,-7.5874224,-2.088457,-1.9806812,0.08628642,-0.5336975,-0.567786
1650,A,359625335402000,-8.669971,-2.430945,-2.4956105,-0.6860303,-0.5422196,-0.9150622
1650,A,359625355498000,-9.366921,-2.3519094,-3.178191,-0.6221144,-0.0479369,-1.0620687
1650,A,359625375772000,-9.81,-2.1698878,-3.781736,-0.10439592,-0.16192019,-0.9470201
1650,A,359625395868000,-10.928474,-2.179468,-3.911067,-0.5954828,-1.0833739,-0.73822826
1650,A,359625416082000,-12.262501,-2.2585034,-3.5733693,-1.623463,-0.79255676,-0.6306366
1650,A,359625436178000,-14.252762,-2.806963,-2.550696,-2.6589,-0.6711166,-0.52837116
1650,A,359625456418000,-17.641714,-4.2056546,0.51492923,-2.4543693,-1.1302456,-0.11611383
1650,A,359625476514000,-16.202309,-4.5960426,-5.1828227,-0.06178534,0.098004326,0.24607609
1650,A,359625496766000,-12.25292,-2.1435425,-10.219549,2.973153,1.2389026,1.0759171
1650,A,359625516862000,-11.031461,-1.9998415,-4.8044095,2.961435,0.9683254,1.5744609
1650,A,359625537093000,-9.817185,-3.3626075,-0.91010743,1.2420983,0.4910869,1.1004182
1650,A,359625557189000,-8.432864,-3.9924977,0.1101709,-0.16085494,1.0205233,0.46339005
1650,A,359625577435000,-6.7659307,-4.2751102,0.059875492,-1.171791,0.52624065,-0.12357068
1650,A,359625597531000,-6.0689797,-4.8379397,-0.24668702,-0.9960223,0.4133226,-0.13848437
1650,A,359625617762000,-6.447393,-4.687053,-0.61552006,-0.25992453,0.87777793,-0.101200126
1650,A,359625637858000,-7.2832546,-3.6140847,-1.6453785,-0.113983296,0.0628506,-0.018109497
1650,A,359625658097000,-7.173084,-2.811753,-2.6081765,0.03834952,-0.9331717,0.19920446
1650,A,359625678193000,-6.346802,-2.208208,-2.7662477,0.25246766,-0.10546118,-0.8564726
1650,A,359625698472000,-5.8055277,-1.6453785,-2.9794044,-0.6359629,0.20559604,-0.29933932
1650,A,359625718568000,-5.3935843,-1.1975098,-3.8583767,-1.1590078,0.5475459,0.19387813
1650,A,359625738840000,-4.711004,-0.71371585,-4.5577226,-1.7449032,-0.8000136,-0.21944448
1650,A,359625758936000,-4.181704,-0.21076173,-4.4906616,-1.4231933,-0.97897804,-0.1736381
1650,A,359625779124000,-4.543352,-0.34009278,-3.9805226,-0.01917476,-0.6359629,-0.112918034
1650,A,359625799220000,-6.128855,-0.8310718,-3.3482375,1.438107,-0.5390238,0.008522116
1650,A,359625819415000,-7.8987746,-1.1879297,-2.816543,2.4980452,-0.26738137,0.0777643
1650,A,359625839511000,-9.168135,-1.6310084,-2.4716604,2.9497173,0.3834952,0.14913702
1650,A,359625859699000,-10.36804,-2.2441335,-2.6249416,2.0857878,-0.4910869,0.10333065
1650,A,359625879795000,-11.55118,-2.4213648,-3.1925611,0.5635249,-0.2759035,-0.19707392
1650,A,359625899993000,-12.276871,-2.071692,-4.87626,-0.4016047,0.3153183,-0.41864893
1650,A,359625920089000,-12.566668,-2.1363575,-7.565867,-1.6895094,0.15233281,-0.2790993
1650,A,359625940286000,-12.296031,-2.9482691,-6.6533647,-2.3212113,-0.6508766,-0.14274544
1650,A,359625960382000,-11.836187,-3.5542092,-4.4283915,-0.79042625,0.01917476,0.28016454
1650,A,359625980572000,-10.346485,-3.6548,-3.1326857,1.6010925,1.1249193,0.588026
1650,A,359626000668000,-9.505833,-5.362449,-1.2478052,1.3582122,0.4527374,0.69774824
1650,A,359626020878000,-9.065149,-5.7935524,0.64186525,-1.3507553,-0.9938917,0.37390783
1650,A,359626040974000,-8.095166,-4.509822,1.1615845,-2.3787355,0.531567,0.25033715
1650,A,359626061184000,-7.1251836,-3.276387,0.05748047,-1.9824572,0.7488809,-0.09374327
1650,A,359626081280000,-6.5336137,-2.9458742,-0.40954837,-1.4317155,0.026631612,-0.3057309
1650,A,359626101488000,-7.0581226,-2.6896071,-0.7113208,-0.9086706,0.1257012,-0.54648066
1650,A,359626121584000,-7.316785,-2.318379,-1.3723463,-0.08628642,0.39521313,-0.5432849
1650,A,359626141760000,-6.981482,-2.0549269,-2.0309765,0.67005134,0.67324716,0.11611383
1650,A,359626161856000,-6.715635,-1.8513502,-2.2848487,0.42184472,0.2609898,-0.051132694
1650,A,359626182038000,-6.6437845,-1.6693287,-2.4668703,0.09161274,0.07350325,0.37710363
1650,A,359626202134000,-6.600674,-1.5974782,-2.7734327,0.78083885,0.8724516,0.6668556
1650,A,359626222222000,-6.5791187,-1.7148341,-3.1207106,0.60080916,-0.43888897,0.25885928
1650,A,359626242318000,-6.825806,-1.8896705,-3.6332448,0.61678815,-0.9768475,0.5411543
1650,A,359626262578000,-7.2976246,-1.83219,-4.392466,1.6809874,-0.4111921,0.8149273
1650,A,359626282674000,-7.711963,-1.6477735,-5.0846267,1.7108147,-0.4878911,0.5773733
1650,A,359626302877000,-8.377779,-1.463357,-5.3552637,0.5997439,-0.49002165,-0.112918034
1650,A,359626322973000,-9.445957,-1.4825171,-4.976851,-0.26631612,-0.07989483,-0.6828345
1650,A,359626343176000,-10.4566555,-1.8585353,-3.9469924,-0.4463458,0.13635385,-0.7819041
1650,A,359626363272000,-11.120076,-2.2848487,-3.2404616,-0.65513766,0.20453078,-0.8362326
1650,A,359626383461000,-11.239827,-2.189048,-4.136199,-2.049569,-0.61891866,-0.9267801
1650,A,359626403557000,-11.805052,-1.961521,-5.47741,-4.173706,-1.6170714,-0.7882957
1650,A,359626423769000,-12.396622,-2.3519094,-5.216353,-3.2213597,-0.8383631,-0.3749731
1650,A,359626443865000,-12.255316,-2.6057813,-3.5877395,-0.013848438,1.4924355,0.17150758
1650,A,359626464052000,-11.409874,-2.8261232,-1.7651294,0.8873653,0.45380265,0.34621096
1650,A,359626484148000,-10.574012,-3.051255,-0.75203615,0.69774824,-0.33768883,0.43249738
1650,A,359626504320000,-9.869876,-4.009263,-0.18681154,0.2396845,0.37710363,0.32810146
1650,A,359626524416000,-8.737032,-5.3217335,0.7831714,-0.6689861,0.44847634,0.34194988
1650,A,359626544587000,-8.392149,-5.733677,1.0633887,-1.1217234,-0.31851408,0.10439592
1650,A,359626564683000,-8.286768,-5.43909,0.27542725,-0.41864893,-0.11717909,-0.26205507
1650,A,359626584854000,-7.9227247,-4.351751,-1.6645386,0.7318367,1.0578076,-0.35260254
1650,A,359626604950000,-6.715635,-3.3530276,-3.180586,1.6373115,1.0982877,-0.10546118
1650,A,359626625157000,-5.721702,-2.567461,-3.5685792,2.0793962,1.3337111,0.5368933
1650,A,359626645253000,-5.9204884,-1.6765138,-3.558999,1.2538162,0.5901565,0.21624869
1650,A,359626665452000,-5.877378,-1.104104,-3.290757,0.11504856,-0.19707392,0.46978164
1650,A,359626685548000,-5.398374,-1.0274634,-3.2692018,0.45699844,0.47297743,0.33981937
1650,A,359626705833000,-5.4103494,-1.0154883,-3.9709425,0.56245965,-0.018109497,-0.037284255
1650,A,359626725929000,-5.975574,-0.40715334,-4.679868,0.47297743,-0.608266,0.35899413
1650,A,359626746174000,-6.631809,0.3903882,-4.9361353,1.139833,-0.8362326,0.5294364
1650,A,359626766270000,-7.3694754,0.37601808,-4.380491,1.808819,-0.56245965,0.44208476
1650,A,359626786453000,-8.250843,-0.49576905,-3.1614258,1.6969663,-0.66365975,0.25566345
1650,A,359626806549000,-9.2256155,-1.0873389,-2.2297633,0.61891866,-0.6860303,-0.24927188
1650,A,359626826733000,-10.442286,-1.463357,-1.9279908,-0.39095205,-0.6178534,-0.49215218
1650,A,359626846829000,-11.249407,-1.5328126,-2.311194,-0.6135923,-0.16192019,-0.55606806
1650,A,359626867029000,-11.203902,-1.6022681,-3.293152,-1.4349113,-0.479369,-0.6828345
1650,A,359626887125000,-11.500884,-1.9567311,-4.773274,-3.3704967,-1.4988271,-0.36645097
1650,A,359626907355000,-12.221786,-2.4692652,-5.0822315,-3.8072553,-1.6969663,0.05965481
1650,A,359626927451000,-12.655284,-2.1722827,-3.8296363,-0.30466563,0.76272935,0.33768883
1650,A,359626947628000,-12.19544,-2.0333717,-2.9746144,1.9718045,0.5954828,0.3749731
1650,A,359626967724000,-10.756033,-3.6907253,-1.4897022,2.9188247,-0.29507825,0.39734364
1650,A,359626987909000,-10.068663,-4.993616,0.44307864,1.1749867,1.0386329,0.07456851
1650,A,359627008005000,-9.644744,-4.5601172,1.2765454,-1.0205233,1.3369069,-0.257794
1650,A,359627028215000,-8.023315,-3.891907,1.0585986,-0.350472,0.68389976,-0.1587244
1650,A,359627048311000,-6.5407987,-3.657195,0.8765772,0.3291667,0.44315,0.024501082
1650,A,359627068519000,-6.488108,-3.9661524,1.2094849,0.48682585,0.81066626,-0.24607609
1650,A,359627088615000,-7.688013,-4.2343946,1.223855,0.3121225,0.68389976,-0.32490566
1650,A,359627108856000,-8.073611,-4.1074586,0.28261232,0.23435818,0.21624869,0.037284255
1650,A,359627128952000,-7.699988,-3.7027004,-1.1088941,0.40266997,0.7275756,-0.28016454
1650,A,359627149112000,-7.3814507,-2.8931837,-2.5315359,-0.066046394,-0.2609898,-0.084155895
1650,A,359627169272000,-7.0245924,-1.7675245,-4.25595,-0.3206446,-0.22050974,0.51984906
1650,A,359627189400000,-6.1887307,-0.9148975,-6.8856816,-0.9139969,-1.3784522,0.2972088
1650,A,359627209846000,-5.3408937,-0.68018556,-8.432864,-0.6178534,-1.1068097,0.5091964
1650,A,359627229942000,-5.5372853,-0.81191164,-7.6281376,0.34194988,-0.25672874,0.716923
1650,A,359627250152000,-6.6270194,-0.852627,-5.2858086,0.89801794,-0.37071204,0.4346279
1650,A,359627270248000,-7.92512,-0.87897223,-3.032095,1.2367721,-0.27164245,0.11824436
1650,A,359627290448000,-9.026829,-0.8214917,-1.4944923,1.0535465,-0.0053263223,-0.128897
1650,A,359627310544000,-9.699829,-0.80712163,-0.68737066,0.10439592,-0.67537767,-0.23861924
1650,A,359627330899000,-10.269844,-0.94603276,-0.6490503,-0.8149273,-0.8948221,-0.32810146
1650,A,359627350995000,-11.031461,-1.2741505,-1.1232642,-1.9345202,-0.809601,-0.5028048
1650,A,359627371263000,-11.433824,-1.7938697,-2.0261867,-2.8985846,-0.5752428,-0.47191215
1650,A,359627391359000,-10.962005,-2.1722827,-4.0859036,-0.98750013,0.45167214,-0.39734364
1650,A,359627411525000,-10.597961,-1.8537452,-7.9682302,0.85966843,0.83516735,0.72011876
1650,A,359627431621000,-12.571458,-1.8441651,-10.523716,0.77231675,0.45060685,0.74035877
1650,A,359627451843000,-13.627662,-2.5315359,-7.692803,-0.51665324,-0.098004326,0.098004326
1650,A,359627471939000,-11.520044,-3.0847852,-2.818938,-0.9683254,0.40053943,-0.06498113
1650,A,359627492209000,-10.257869,-2.565066,-0.56522465,-0.7520767,1.0279802,0.26738137
1650,A,359627512305000,-10.454261,-3.04886,0.21076173,-0.59228706,0.9832391,0.38775626
1650,A,359627532433000,-10.054293,-3.9829175,1.5926881,-0.14913702,1.7331853,-0.1736381
1650,A,359627552529000,-9.256751,-3.774551,2.0453467,1.0780476,2.267948,-0.10652645
1650,A,359627572786000,-8.851993,-3.0105398,1.0322535,2.1294637,0.32384038,0.479369
1650,A,359627592882000,-7.8412943,-2.3686745,-0.081430666,2.7047064,-1.9249328,0.16831179
1650,A,359627613031000,-6.7779055,-1.7890797,-0.6777906,1.9686087,0.4261058,0.52624065
1650,A,359627633127000,-6.2797413,-1.0250684,-0.94603276,-1.1313108,0.7946873,-0.023435818
1650,A,359627653345000,-5.8845634,-0.5005591,-1.0681788,-2.010154,-1.0535465,-0.17896444
1650,A,359627673441000,-5.3408937,-0.11256592,-1.5519727,-0.8745821,-1.0737866,-0.10013486
1650,A,359627693603000,-5.0630717,0.122146,-3.0201197,-0.06498113,-0.71159667,0.07456851
1650,A,359627713699000,-5.2355127,0.38559815,-4.89542,0.386691,0.25566345,0.36964676
1650,A,359627733872000,-5.6977515,0.8334668,-5.5612354,-0.28016454,0.44741106,0.0127831735
1650,A,359627753968000,-6.5240335,1.2957057,-5.4199295,-1.4881744,-0.67005134,-0.49534798
1650,A,359627774162000,-7.9347,1.0705738,-4.9576907,-2.6162896,-1.5425029,-1.2154667
1650,A,359627794258000,-9.022039,-0.06227051,-4.006868,-2.7846012,-1.4892397,-1.5403724
1650,A,359627814415000,-9.745335,-1.1184741,-3.1207106,-1.5765914,-0.257794,-1.1867046
1650,A,359627834511000,-10.588382,-1.9878663,-2.7830129,0.13848437,0.07563378,-0.41438788
1650,A,359627854714000,-11.658956,-2.335144,-3.04407,2.026133,-0.25246766,0.80747044
1650,A,359627874810000,-11.963123,-1.8489552,-4.505032,1.9781961,0.28229508,1.3006879
1650,A,359627895025000,-11.651771,-2.184258,-6.567144,-0.06924219,0.5123922,0.406931
1650,A,359627915121000,-12.581038,-2.9482691,-5.637876,0.1555286,0.16405073,0.041545313
1650,A,359627935276000,-13.562996,-2.5411158,-4.7014236,1.8461033,0.21411815,0.4527374
1650,A,359627955372000,-12.030184,-2.8261232,-3.4967287,1.0705907,-0.660464,0.51026165
1650,A,359627975574000,-10.030342,-4.1960745,-1.1232642,-0.64768076,0.90654004,0.12996227
1650,A,359627995670000,-9.457932,-3.403323,0.2921924,-1.5116103,1.2804478,-0.05965481
1650,A,359628015826000,-8.617281,-2.4189699,-0.023950197,-0.96619487,0.29933932,0.013848438
1650,A,359628035922000,-7.223379,-2.1459377,-0.019160157,0.12250541,0.034088463,0.051132694
1650,A,359628056145000,-7.27128,-2.2129982,0.43589357,1.4168017,1.1163971,-0.20026971
1650,A,359628076241000,-8.777747,-2.3758595,0.6586304,2.3627565,1.5201324,-0.08735169
1650,A,359628096447000,-9.544153,-2.543511,0.68018556,2.694054,0.4293016,0.773382
1650,A,359628116543000,-9.086704,-2.560276,0.15328126,1.5542208,0.8809737,0.22690132
1650,A,359628136696000,-8.159832,-2.3998096,-0.613125,-1.128115,-1.0578076,-0.813862
1650,A,359628156792000,-7.32397,-2.1363575,-1.1591895,-1.2399678,-0.74461985,0.27483824
1650,A,359628177025000,-6.502478,-1.9423609,-1.7723145,-1.2676647,-0.7041398,-0.07456851
1650,A,359628197121000,-5.0989966,-1.949546,-3.173401,-1.067395,-0.52411014,-0.4889564
1650,A,359628217340000,-3.4775686,-1.8369801,-5.0894165,0.5187838,0.13209279,-0.28868666
1650,A,359628237436000,-3.4368532,-1.3220508,-6.9790874,1.6160061,-0.010652645,0.10865697
1650,A,359628257645000,-4.9002104,-0.7424561,-7.965835,1.5403724,-1.0045444,0.31957933
1650,A,359628277741000,-6.3060865,-0.8430469,-6.940767,1.4008228,-1.0237192,0.45380265
1650,A,359628297928000,-7.1275783,-1.6477735,-4.6271777,0.96406436,-1.5733956,0.77444726
1650,A,359628318024000,-8.327483,-2.4093897,-2.4261549,-0.42290998,-1.9068234,0.6988135
1650,A,359628338208000,-10.408755,-2.806963,-1.3076807,-0.9438243,-0.9757822,0.049002163
1650,A,359628358304000,-12.947476,-2.6512868,-1.8106349,-1.7204021,0.011717909,-0.035153728
1650,A,359628378535000,-14.676681,-1.8513502,-3.7266505,-1.6895094,0.30253512,0.45060685
1650,A,359628398631000,-14.039605,-1.2933106,-6.473738,0.35473305,0.24714136,0.39414784
1650,A,359628418835000,-13.780943,-1.8776954,-7.8436894,1.514806,0.69135666,0.10652645
1650,A,359628438931000,-13.553416,-2.7566676,-5.000801,1.3795174,0.5400891,0.15978967
1650,A,359628459125000,-11.534414,-2.955454,-1.092129,-0.6263755,0.5454154,0.03089267
1650,A,359628479221000,-9.766891,-2.339934,0.31135255,-2.1475732,1.026915,-0.1107875
1650,A,359628499427000,-8.971744,-2.787803,0.5891748,-1.8727349,0.7094661,-0.09374327
1650,A,359628519523000,-7.9897857,-4.4762917,1.6357985,-0.8426242,0.09267801,-0.10333065
1650,A,359628539640000,-7.7430983,-5.7719975,3.0105398,0.3057309,0.20985709,-0.26738137
1650,A,359628559736000,-8.636441,-6.5407987,3.288362,1.5329156,1.2761868,-0.28122982
1650,A,359628579945000,-10.147698,-5.886958,2.1315675,2.1742048,1.2996227,0.111852765
1650,A,359628600041000,-10.890154,-4.2176294,-0.46463382,1.6777915,0.7414241,0.5795039
1650,A,359628620252000,-9.637559,-3.1231055,-2.5770411,-0.78936094,0.26631612,0.020240024
1650,A,359628640348000,-8.162227,-2.186653,-5.381609,-1.9206718,-1.7544906,-0.567786
1650,A,359628660541000,-7.3886356,-0.41194338,-7.5299416,-1.1739215,-1.0524813,0.051132694
1650,A,359628680637000,-7.31918,1.223855,-7.781419,-1.0663297,-1.1345067,0.10013486
1650,A,359628700850000,-6.476133,1.2406201,-5.6522465,0.029827405,-0.3930826,0.35899413
1650,A,359628720946000,-4.8020144,0.27303225,-2.8668385,0.95447695,-0.10013486,0.36751625
1650,A,359628741147000,-3.5709743,-0.35685793,-1.0777588,1.0130665,-0.29614353,0.040480047
1650,A,359628761243000,-3.2332766,-0.5460645,-0.3305127,1.160073,-0.2759035,-0.113983296
1650,A,359628781433000,-4.5577226,-0.51013917,-0.28500733,0.30360037,-0.77125144,-0.24820662
1650,A,359628801529000,-6.6581545,-0.6682105,-0.48618898,-1.1888351,-0.71479243,-0.34514567
1650,A,359628821863000,-9.041199,-0.9053174,-1.0729688,-0.86499476,0.18642128,-0.50387007
1650,A,359628841959000,-11.539205,-0.9412427,-2.064507,-0.31638354,0.23755397,-0.21944448
1650,A,359628862161000,-12.78222,-0.859812,-3.408113,-1.8663434,0.75633776,0.002130529
1650,A,359628882257000,-11.778707,-1.0442286,-4.86189,-3.0913975,0.33129725,-0.22583607
1650,A,359628902425000,-10.39678,-3.9422023,-5.221143,-1.9302592,-0.40053943,-0.7190535
1650,A,359628922521000,-11.500884,-5.122947,-1.961521,0.9416938,0.6125271,-0.22370553
1650,A,359628942794000,-13.800103,-3.666775,-0.31135255,2.8613002,0.40266997,0.9502159
1650,A,359628962890000,-13.095967,-5.4989653,1.2022998,1.7033578,-0.793622,0.7052051
1650,A,359628983042000,-10.827884,-8.804092,3.6452198,-0.59122175,1.063134,0.040480047
1650,A,359629003138000,-11.402688,-8.495134,3.6811452,-1.9430424,0.7073356,-0.24927188
1650,A,359629023399000,-11.136841,-4.806804,0.035925295,-0.9651296,-0.066046394,-0.3121225
1650,A,359629043495000,-7.9969707,-2.7303224,-2.6249416,0.37390783,0.24927188,0.03834952
1650,A,359629063679000,-7.194639,-2.565066,-3.6763551,1.2431636,0.62317973,0.08735169
1650,A,359629083775000,-7.182664,-2.311194,-4.5002418,2.2349248,0.58056915,0.29188246
1650,A,359629103981000,-6.701265,-2.1818628,-4.248765,3.3289514,1.5520903,0.52411014
1650,A,359629124077000,-6.502478,-1.8202149,-3.2596216,2.0708742,0.020240024,0.26418558
1650,A,359629144248000,-6.143225,-1.4130616,-2.0094216,0.813862,0.051132694,0.19281286
1650,A,359629164344000,-5.745652,-1.3388159,-1.2478052,-0.37923414,-0.11717909,-0.27057716
1650,A,359629184549000,-5.2187476,-1.6501685,-0.66342044,-1.0748519,-0.6988135,-0.0063915867
1650,A,359629204645000,-5.0918117,-2.0022364,-0.11496094,-0.3888215,-1.026915,0.54435015
1650,A,359629224832000,-5.7887626,-2.4022048,0.1939966,0.6306366,-0.58483016,0.314253
1650,A,359629244928000,-6.9168167,-2.5914114,0.13651612,0.7669904,-0.29507825,0.05219796
1650,A,359629265117000,-7.549102,-2.4884255,-0.10538086,0.096939065,-0.47617322,-0.34940675
1650,A,359629285213000,-8.229287,-2.2704787,-0.49576905,-0.4165184,-0.3898868,-0.49747851
1650,A,359629305403000,-9.398057,-2.2848487,-0.97237796,-0.39627838,-0.15339808,-0.46339005
1650,A,359629325499000,-10.073453,-2.43813,-1.1807446,-0.7946873,-0.39627838,-0.28122982
1650,A,359629345692000,-10.473421,-2.7782228,-1.1927198,-1.9249328,-0.5997439,-0.020240024
1650,A,359629365788000,-11.074571,-2.7590625,-1.949546,-2.8229508,0.025566347,0.04261058
1650,A,359629385972000,-11.802657,-2.4141798,-4.7325587,-2.2466428,0.029827405,-0.11611383
1650,A,359629406068000,-12.760665,-1.951941,-11.251802,0.020240024,0.26738137,0.13528858
1650,A,359629426311000,-14.233602,-2.2465284,-11.498489,2.743056,0.7552725,0.48149952
1650,A,359629446407000,-14.499449,-2.4022048,-4.4762917,2.561961,0.39414784,0.64555025
1650,A,359629466619000,-13.924644,-2.440525,0.08861572,-0.14913702,0.6956177,0.29933932
1650,A,359629486715000,-14.08032,-3.0776002,1.8848804,-1.973935,0.8607337,0.11504856
1650,A,359629506910000,-12.497212,-4.6678934,3.180586,-1.4093449,0.0479369,-0.03834952
1650,A,359629527006000,-9.956097,-6.100115,4.26074,-0.25992453,-0.1555286,-0.15233281
1650,A,359629547223000,-8.416099,-6.7300053,4.390071,0.624245,0.66579026,-0.2759035
1650,A,359629567319000,-7.3790555,-6.5551686,3.6404297,1.3635385,0.8085357,-0.16298546
1650,A,359629587516000,-6.9886675,-4.8044095,1.5040723,1.6916399,0.67963874,0.43888897
1650,A,359629607612000,-6.365962,-2.816543,-0.85023195,0.09161274,0.1949434,-0.06178534
1650,A,359629627796000,-5.120552,-1.9232007,-1.9184108,-0.9534117,-1.24849,-0.022370555
1650,A,359629647892000,-4.4116263,-1.4202466,-2.2824538,0.1555286,-0.18855181,0.2428803
1650,A,359629668069000,-3.9565725,-1.0322535,-2.327959,0.22050974,-0.18109496,-0.024501082
1650,A,359629688165000,-3.3769777,-1.0106983,-2.8333082,-0.28229508,-0.8831042,0.16192019
1650,A,359629708366000,-3.2380664,-1.3100758,-4.481082,0.5752428,-1.1462245,0.21837921
1650,A,359629728462000,-3.796106,-0.6610254,-5.5612354,1.627724,-0.2514024,0.2695119
1650,A,359629748693000,-4.9217653,-0.1460962,-6.1791506,1.4359765,-0.14168017,0.2396845
1650,A,359629768789000,-5.9324636,-1.0130934,-5.958809,0.12037488,-0.8213189,-0.15233281
1650,A,359629788981000,-6.912027,-2.4333398,-5.108577,-1.0034791,-0.60720074,-0.42077947
1650,A,359629809077000,-9.251961,-3.288362,-4.4116263,-0.7616641,-0.060720075,-0.47510794
1650,A,359629829274000,-11.874507,-3.4967287,-4.016448,-0.82877576,-0.2695119,-0.35153726
1650,A,359629849370000,-12.444522,-3.1925611,-3.9661524,-1.9100192,0.15126756,-0.23648871
1650,A,359629869593000,-11.948753,-3.0776002,-5.1852174,-2.4394555,0.0031957934,-0.2428803
1650,A,359629889689000,-11.285333,-4.82357,-6.710845,-1.3273195,-0.25566345,-0.26312032
1650,A,359629909915000,-11.558365,-5.951624,-6.6270194,1.3763217,0.88843054,0.06924219
1650,A,359629930011000,-12.921131,-4.3541455,-6.327642,2.9976542,1.2580773,0.69774824
1650,A,359629950228000,-13.052857,-3.8152664,-5.8031325,1.4658039,0.52624065,0.700944
1650,A,359629970324000,-11.450589,-5.0487013,-3.7314405,-0.4612595,0.48682585,0.26205507
1650,A,359629990583000,-8.4304695,-5.096602,-1.7890797,-1.5680692,0.5763081,-0.054328486
1650,A,359630010679000,-6.9024467,-3.7170706,-1.9399658,-1.4125407,-0.31957933,-0.24607609
1650,A,359630030889000,-6.440208,-3.0608351,-1.7004639,-0.45167214,-0.6306366,-0.2396845
1650,A,359630050985000,-6.75156,-2.924319,-0.8334668,0.406931,0.12357068,-0.34301516
1650,A,359630071206000,-7.1156034,-2.692002,0.021555176,1.1249193,1.0407634,-0.17470337
1650,A,359630091302000,-6.828201,-2.3734643,0.69216067,1.1334413,1.3795174,-0.12676647
1650,A,359630111537000,-6.023474,-2.0980372,0.95561284,-0.22050974,-1.1217234,-0.10652645
1650,A,359630131633000,-5.470225,-1.9902613,1.2909156,-0.5581986,-0.62531024,0.4016047
1650,A,359630151852000,-5.384004,-2.0118165,1.6645386,-0.5965481,-0.41545314,-0.07563378
1650,A,359630171948000,-5.132527,-1.8609302,1.4418018,-0.515588,-0.84688526,0.02130529
1650,A,359630192130000,-4.9481106,-1.585503,0.5484595,1.071656,-0.4857606,0.24820662
1650,A,359630212226000,-5.333709,-1.2717555,-0.3520679,2.9912627,0.46232477,0.0628506
1650,A,359630232704000,-6.310877,-1.1208692,-0.7807764,3.4610443,0.16298546,0.13848437
1650,A,359630252800000,-7.917935,-1.1999048,-0.76880133,2.6567695,-0.1917476,0.05965481
1650,A,359630273002000,-10.157278,-1.2597803,-0.76880133,0.75101143,-0.8266452,-0.13741912
1650,A,359630293098000,-12.497212,-1.2813355,-1.1088941,-1.5861788,-0.7499462,-0.31318775
1650,A,359630313310000,-13.656402,-1.7483643,-1.7028589,-2.815494,-0.18109496,-0.40586576
1650,A,359630333406000,-13.816868,-2.3375392,-2.3614893,-4.2504053,-0.79042625,-0.101200126
1650,A,359630353547000,-13.366605,-3.2045362,-2.9003687,-4.559332,-1.3262542,0.10652645
1650,A,359630373643000,-13.548626,-4.430786,-3.6979103,-1.4572818,0.8490158,0.034088463
1650,A,359630393803000,-12.983401,-5.6522465,-8.847202,1.365669,0.8266452,0.06711166
1650,A,359630413963000,-13.304334,-5.242698,-12.319981,3.3981936,0.71159667,0.30679616
1650,A,359630434123000,-14.113851,-4.145779,-10.312955,3.5942023,1.3017532,0.67005134
1650,A,359630454282000,-12.85886,-3.427273,-6.361172,1.4924355,1.0258497,0.53476274
1650,A,359630474378000,-10.99314,-3.5110989,-4.1242237,-0.6540724,0.83942837,0.10972224
1650,A,359630494537000,-8.418494,-5.245093,-1.9639161,-1.5883093,0.25992453,-0.23222765
1650,A,359630514633000,-6.7803006,-6.440208,0.7089258,-1.361408,-0.21624869,-0.41545314
1650,A,359630534768000,-6.085745,-6.248606,2.2776637,-0.7286409,-0.60720074,-0.40586576
1650,A,359630554864000,-5.5229154,-4.976851,1.9998415,-0.025566347,-0.27377295,-0.12144015
1650,A,359630575070000,-5.022356,-3.3314724,0.5508545,0.9896307,0.7318367,-0.3057309
1650,A,359630595166000,-3.7290456,-2.5866213,-0.0023950196,1.160073,0.098004326,0.013848438
1650,A,359630615352000,-2.7207422,-2.3303542,0.119750984,1.0365024,0.8404937,0.57417756
1650,A,359630635448000,-3.3218923,-1.9208057,-0.1460962,-0.49747851,-0.7307714,0.10439592
1650,A,359630655576000,-4.0523734,-1.7315992,-0.40715334,-1.0258497,-1.2197278,0.22690132
1650,A,359630675672000,-4.387676,-1.8729054,-0.24668702,-0.06391586,-0.49960902,0.36751625
1650,A,359630695849000,-5.5492606,-1.9902613,0.37362307,1.123854,-0.53476274,0.11504856
1650,A,359630715945000,-8.428074,-1.5663428,0.42152345,1.804558,-0.23542345,-0.060720075
1650,A,359630736147000,-10.30098,-0.9316626,-0.90771246,1.7235979,0.20559604,-0.2908172
1650,A,359630756243000,-9.72378,-0.72569096,-2.9650342,1.0610034,0.24394555,-0.3387541
1650,A,359630776458000,-8.54543,-0.98435307,-5.367239,0.037284255,-0.17576863,-0.38136467
1650,A,359630796554000,-8.056846,-2.196233,-6.945557,-1.9355855,-1.4327807,-0.16831179
1650,A,359630816814000,-9.376502,-2.2129982,-7.3694754,-3.8285604,-0.6125271,-0.098004326
1650,A,359630836910000,-11.127261,-1.8537452,-8.296348,-3.84667,0.24820662,-0.45699844
1650,A,359630857096000,-11.436219,-1.5495777,-10.641072,-1.8141453,-0.066046394,-0.17044231
1650,A,359630877192000,-10.389595,-2.7303224,-12.631333,1.0013486,0.39095205,0.47723848
1650,A,359630897423000,-10.662627,-5.767207,-10.0063925,2.4586303,0.531567,0.8948221
1650,A,359630917519000,-12.861256,-5.9061184,-4.5720925,1.8983012,0.7669904,0.922519
1650,A,359630937743000,-13.785733,-3.671565,-2.335144,0.61891866,1.4988271,0.5550028
1650,A,359630957839000,-11.505674,-4.4619217,0.5676197,-0.680704,0.74781567,0.12037488
1650,A,359630978093000,-9.251961,-4.8906302,3.1494508,-1.1313108,-0.36432046,-0.14061491
1650,A,359630998189000,-8.413704,-4.028423,3.1231055,-1.031176,-0.48682585,-0.48363006
1650,A,359631018386000,-7.8197393,-3.3314724,2.5267458,-0.45060685,0.24607609,-0.6018744
1650,A,359631038482000,-7.585027,-3.2572267,2.5866213,0.7595336,0.8064052,0.018109497
1650,A,359631058643000,-7.5012016,-3.5901344,2.6776319,0.6562029,-0.35153726,-0.07137272
1650,A,359631078739000,-7.3527102,-3.774551,1.9782863,-0.28549087,-1.2016183,0.13954964
1650,A,359631098945000,-6.8689165,-3.6548,0.86939216,-0.21944448,0.17257284,0.29614353
1650,A,359631119041000,-6.828201,-3.2189064,-0.18681154,-0.23542345,-0.60293967,0.12144015
1650,A,359631139231000,-7.1371584,-2.811753,-0.855022,0.23329292,-0.94808537,0.36751625
1650,A,359631159327000,-7.460486,-2.435735,-1.3220508,1.3273195,-0.36218992,0.41438788
1650,A,359631179541000,-7.3742657,-2.1435425,-1.9974464,1.9313245,-0.12037488,0.27696875
1650,A,359631199637000,-6.1767554,-2.1555176,-2.5578809,1.598962,-0.28442562,0.112918034
1650,A,359631219825000,-5.0367265,-2.3830445,-2.924319,0.5113269,-0.37603834,-0.15659387
1650,A,359631239921000,-5.237908,-2.4453151,-2.924319,-0.660464,-0.4878911,-0.45699844
1650,A,359631260126000,-6.454578,-2.6393116,-2.4812403,-1.5978967,-0.07989483,-0.7041398
1650,A,359631280222000,-7.8580594,-2.8907888,-2.299219,-2.8048413,-0.16618125,-0.57417756
1650,A,359631300406000,-8.686736,-3.2189064,-2.7327175,-3.8370826,-0.7435546,-0.22690132
1650,A,359631320502000,-8.519085,-3.7050953,-3.2668068,-2.9475868,-0.036218993,-0.38775626
1650,A,359631340663000,-8.56938,-4.2367897,-3.3673975,-0.44741106,0.4857606,-0.16298546
1650,A,359631360759000,-10.626702,-4.9361353,-2.9027638,2.1731396,0.3568636,0.5230448
1650,A,359631380975000,-13.328284,-5.5684204,-4.6607084,3.0519826,0.5134575,0.9917612
1650,A,359631401071000,-14.420413,-5.326524,-8.420889,1.5329156,0.6860303,0.5571333
1650,A,359631421274000,-13.725858,-4.102669,-9.352551,-0.20240025,1.0897655,0.2034655
1650,A,359631441370000,-13.943805,-4.2176294,-4.984036,-1.1984226,0.17789917,-0.08948222
1650,A,359631461553000,-14.001285,-4.1146436,-0.34009278,-1.0098706,-0.49747851,-0.2609898
1650,A,359631481649000,-13.414505,-4.0930886,1.9806812,-0.29507825,0.20772657,-0.28549087
1650,A,359631501836000,-11.419454,-4.864285,2.8380983,0.45699844,0.922519,-0.21198763
1650,A,359631521932000,-9.426797,-5.4462748,2.943479,1.0684602,0.6743124,0.12037488
1650,A,359631542091000,-8.617281,-5.8270826,3.2284865,1.1739215,0.26844665,-0.34301516
1650,A,359631562187000,-8.329878,-5.3241286,2.7758276,0.16085494,-0.10013486,-0.113983296
1650,A,359631582402000,-8.255632,-3.5997145,0.6586304,-0.76592517,-0.44741106,0.1470065
1650,A,359631602498000,-7.4820414,-2.0190015,-1.2645704,-1.1973573,-0.79255676,0.10226539
1650,A,359631622696000,-6.449788,-1.0035132,-2.572251,-0.19281286,-0.66365975,0.29933932
1650,A,359631642792000,-6.0330544,-0.19160157,-3.8631666,1.5361114,-0.21518342,0.314253
1650,A,359631662971000,-5.5157304,0.20597169,-4.4691067,2.541721,0.1768339,0.25566345
1650,A,359631683067000,-4.4643164,0.29698244,-3.923042,2.7409256,0.26525086,0.13315806
1650,A,359631703266000,-2.919529,0.05748047,-2.6057813,1.587244,-0.74675035,-0.10652645
1650,A,359631723362000,-1.6070582,-0.45744875,-1.6022681,-0.7819041,-0.7052051,-0.49002165
1650,A,359631743570000,-2.0860622,-0.84544194,-1.0394385,-2.1486385,0.13741912,-0.7126619
1650,A,359631763666000,-4.4331813,-1.1184741,-0.68018556,-3.2650356,-0.51665324,-0.44101948
1650,A,359631783869000,-6.825806,-1.5495777,-0.36164796,-3.78595,-1.2101405,-0.13528858
1650,A,359631803965000,-9.21364,-1.6621436,-0.5412744,-1.6490294,0.03195793,-0.068176925
1650,A,359631824126000,-11.623031,-1.5184424,-1.6789087,1.2303804,0.61678815,0.40266997
1650,A,359631844222000,-13.2564335,-1.2981006,-3.530259,2.2136195,0.17896444,0.6114618
1650,A,359631864411000,-13.385765,-1.4418018,-5.4223247,0.9267801,0.6178534,0.12357068
1650,A,359631884507000,-12.569063,-3.3410523,-6.330037,-1.406149,0.95234644,-0.1736381
1650,A,359631904722000,-12.231365,-5.494175,-5.3121533,-2.3190808,0.24394555,-0.12996227
1650,A,359631924818000,-13.072017,-5.369634,-5.1540823,-1.5190672,-0.16085494,-0.082025364
1650,A,359631945193000,-13.814473,-5.125342,-5.47741,-0.5795039,0.09054748,-0.30786142
1650,A,359631965289000,-12.73432,-5.6929617,-3.2644117,0.21624869,0.4463458,-1.3720607
1650,A,359631985478000,-10.212363,-5.2810183,-1.6477735,1.284709,0.45912898,-1.2090752
1650,A,359632005574000,-8.49753,-4.3158255,-2.0118165,2.6642263,1.5808525,0.7797736
1650,A,359632025779000,-6.9096317,-3.7434156,-1.7699195,2.2338595,0.3568636,0.77125144
1650,A,359632045875000,-6.6509695,-3.04407,-1.1472144,1.1835088,-0.5550028,0.75420725
1650,A,359632066065000,-7.3742657,-2.1770728,-1.2597803,1.3219932,-0.14913702,0.6135923
1650,A,359632086161000,-7.673643,-1.4202466,-1.3723463,0.4293016,-0.41758367,0.7669904
1650,A,359632106365000,-7.6592727,-0.8669971,-1.3148658,0.12463594,-0.80107886,0.8064052
1650,A,359632126461000,-7.510782,-0.5748047,-1.0514137,1.0237192,0.07669904,0.624245
1650,A,359632146651000,-6.847361,-0.52690434,-0.5963599,1.0748519,0.10439592,0.27377295
1650,A,359632166747000,-5.8965383,-0.5340894,-0.29698244,0.3387541,-0.6860303,0.066046394
1650,A,359632186946000,-4.996011,-0.5939649,-0.30895755,-0.27696875,-0.6412892,-0.01917476
1650,A,359632207042000,-4.0787187,-0.852627,-0.37122804,-0.43249738,-0.084155895,-0.12144015
1650,A,359632227308000,-3.786526,-1.2693604,-0.29937744,-0.4910869,-0.16085494,-0.14061491
1650,A,359632247404000,-4.519402,-1.6932789,-0.15088624,-0.87351686,-0.628506,-0.13635385
1650,A,359632267616000,-5.949229,-1.8513502,-0.33290774,-1.901497,0.060720075,-0.15339808
1650,A,359632287712000,-7.4509063,-1.7004639,-1.0274634,-3.0679617,-0.27164245,-0.23222765
1650,A,359632307920000,-8.971744,-1.6238233,-1.698069,-2.1156151,-0.34408042,-0.41225734
1650,A,359632328016000,-11.057806,-1.7579445,-2.095642,0.8266452,1.3496901,-0.04261058
1650,A,359632348240000,-13.491145,-2.059717,-2.5530908,2.0559604,1.4434333,0.7669904
1650,A,359632368336000,-15.18203,-2.3926246,-3.0943654,0.793622,-0.10546118,0.5411543
1650,A,359632388537000,-15.80234,-2.4836354,-3.8080812,-0.7435546,-0.12357068,0.027696876
1650,A,359632408633000,-14.858702,-2.9698243,-5.4127445,-1.1611383,1.3347764,-0.026631612
1650,A,359632428810000,-13.476775,-4.5409575,-9.77168,-0.74461985,0.37710363,-0.24820662
1650,A,359632448906000,-13.313914,-5.1756372,-9.594449,-0.15765914,-0.10013486,-0.30679616
1650,A,359632469080000,-12.073294,-4.622388,-4.5936475,0.4101268,-0.046871636,-0.24074976
1650,A,359632489176000,-12.226575,-2.8979738,-1.7292042,1.0322412,0.039414786,0.23435818
1650,A,359632509309000,-11.740386,-3.2476466,-1.1184741,1.2761868,0.9353022,0.84581995
1650,A,359632529405000,-9.489068,-5.6809864,0.4143384,0.3153183,-0.21837921,0.40373522
1650,A,359632549627000,-8.162227,-7.0341725,2.0812721,0.5699165,0.8873653,0.46232477
1650,A,359632569723000,-8.008945,-6.569539,2.440525,0.76059884,0.80107886,0.20453078
1650,A,359632589922000,-7.94907,-5.2043777,1.2789404,-0.45060685,-0.84688526,0.13954964
1650,A,359632610018000,-7.1874537,-3.515889,-0.22513184,-0.6295713,-1.2037488,0.33129725
1650,A,359632630224000,-6.0833497,-2.3543043,-0.9508228,0.5997439,-0.91825795,0.24607609
1650,A,359632650320000,-5.4223247,-1.585503,-1.2549903,1.474326,-0.8926916,0.22050974
1650,A,359632670531000,-4.6104126,-1.1567944,-1.1520045,0.2759035,-1.2090752,-0.2428803
1650,A,359632690627000,-3.6500099,-0.98914313,-1.4465919,-1.0205233,-0.8042747,-0.87564737
1650,A,359632710855000,-3.166216,-0.69695073,-2.936294,0.24607609,0.27164245,-0.7190535
1650,A,359632730951000,-3.159031,-0.102985844,-3.9254372,0.96939063,0.20879184,-0.2066613
1650,A,359632751162000,-3.295547,0.42152345,-3.8344264,-0.44101948,-1.196292,0.21198763
1650,A,359632771258000,-4.402046,0.16765137,-3.3937428,-1.973935,0.10013486,0.19281286
1650,A,359632791479000,-6.373147,-0.80233157,-2.8572583,-2.0037625,0.0010652645,-0.08948222
1650,A,359632811575000,-8.313113,-1.5376027,-2.215393,-0.5954828,0.0777643,-0.0063915867
1650,A,359632831777000,-10.195599,-1.8681153,-1.6118482,1.5861788,0.9619338,0.21837921
1650,A,359632851873000,-12.020603,-2.1650977,-1.7603394,2.8112328,0.7861652,0.5336975
1650,A,359632872074000,-13.534256,-2.315984,-3.422483,1.2548815,0.60507023,0.33768883
1650,A,359632892170000,-13.637241,-2.4980054,-7.072493,-1.1089402,1.1611383,0.018109497
1650,A,359632912379000,-12.23376,-4.351751,-9.513018,-1.3241237,0.39627838,-0.096939065
1650,A,359632932475000,-11.726016,-4.263135,-7.1132083,-0.4463458,-0.35153726,-0.10226539
1650,A,359632952682000,-12.305611,-3.2213013,-5.319339,0.34301516,0.19600865,0.007456851
1650,A,359632972778000,-11.757152,-3.9685476,-3.6859353,1.2708606,1.0855045,-0.05219796
1650,A,359632992959000,-9.632769,-5.774392,-0.86220706,2.1880531,0.7584683,0.30146983
1650,A,359633013055000,-8.50711,-5.3217335,0.4239185,2.6013758,0.93423694,0.535828
1650,A,359633033322000,-7.8436894,-3.3051271,-0.6466553,0.056459017,-0.5230448,-0.22583607
1650,A,359633053418000,-6.9958525,-2.2896388,-1.1735597,-0.93423694,-0.6412892,0.111852765
1650,A,359633073601000,-7.695198,-2.0429518,-0.855022,-0.9406285,-0.49002165,-0.24394555
1650,A,359633093697000,-8.53106,-1.8154249,-0.60354495,-1.8876486,-0.9555422,-0.40906155
1650,A,359633113896000,-7.893985,-1.6836988,-0.56522465,-1.4636734,-1.381648,-0.10759171
1650,A,359633133992000,-6.7755103,-1.477727,-0.9963282,0.37603834,-0.7819041,0.0053263223
1650,A,359633154200000,-5.879773,-1.101709,-1.6262183,1.4008228,-0.020240024,0.020240024
1650,A,359633174296000,-5.4462748,-0.74724615,-1.7890797,1.0439591,-0.30146983,-0.03195793
1650,A,359633194505000,-5.575606,-0.45744875,-1.5926881,0.16831179,-0.06498113,-0.30146983
1650,A,359633214601000,-5.6570363,-0.40954837,-1.4154567,-0.8948221,-0.5305017,-0.49747851
1650,A,359633234754000,-5.369634,-0.6825806,-1.2813355,-1.5648735,-0.5539375,-0.5752428
1650,A,359633254850000,-5.2882032,-1.2933106,-1.0490186,-1.0578076,-0.17257284,-0.53476274
1650,A,359633275028000,-6.1504107,-1.7603394,-0.855022,-1.2261194,0.008522116,-0.15765914
1650,A,359633295124000,-7.702383,-1.7675245,-1.1496094,-1.1739215,0.101200126,-0.05539375
1650,A,359633315333000,-9.062755,-1.8106349,-1.7339942,0.05965481,0.5954828,0.2130529
1650,A,359633335429000,-10.095008,-2.1148024,-1.9998415,1.5286545,0.71159667,0.4612595
1650,A,359633355636000,-11.457774,-2.6464968,-2.0046315,2.086853,0.27483824,0.48149952
1650,A,359633375732000,-13.627662,-2.9626393,-2.4908204,0.922519,0.31957933,0.3057309
1650,A,359633395941000,-16.156803,-2.4213648,-4.4283915,-0.7861652,0.9981528,0.17789917
1650,A,359633416037000,-16.659756,-1.5591577,-9.376502,-1.3997575,0.3920173,-0.060720075
1650,A,359633436264000,-15.613133,-1.9327809,-9.72857,-0.74248934,-0.2034655,-0.314253
1650,A,359633456360000,-14.602435,-2.1627028,-3.906277,-0.051132694,0.515588,-0.4261058
1650,A,359633476587000,-13.893509,-1.7794995,-0.23471193,0.6380934,1.071656,-0.42717105
1650,A,359633496683000,-12.79659,-2.0549269,0.61073,1.8791265,1.051416,0.3121225
1650,A,359633516869000,-11.100916,-3.661985,1.698069,2.5811357,0.61678815,0.19600865
1650,A,359633536965000,-9.524993,-5.774392,3.5134938,1.6927053,0.0031957934,-0.2034655
1650,A,359633557134000,-8.835227,-7.1299734,4.485872,0.096939065,0.39414784,-0.02130529
1650,A,359633577230000,-8.020921,-7.903565,4.8834453,-1.397627,-1.3081448,-0.4644553
1650,A,359633597450000,-6.7779055,-7.7598634,4.3637257,-1.6319852,-1.9803267,0.027696876
1650,A,359633617546000,-5.9228835,-6.0665846,1.9830762,-0.27057716,-0.7819041,0.84581995
1650,A,359633637706000,-5.223538,-3.7338357,-1.1448194,1.0279802,-0.010652645,0.8522116
1650,A,359633657866000,-4.040398,-2.1674929,-3.0776002,0.7755125,-0.8032094,0.13954964
1650,A,359633677994000,-3.290757,-1.2621753,-4.0427933,-0.004261058,-0.7254451,-0.4612595
1650,A,359633698531000,-3.2428565,-0.9699829,-4.1984696,-0.49002165,-0.32810146,-0.50600064
1650,A,359633718627000,-3.166216,-1.1280543,-3.7098854,-0.77444726,-0.17150758,-0.48682585
1650,A,359633738866000,-3.2452517,-1.3196558,-3.2500417,-1.0769824,-0.5400891,-0.51665324
1650,A,359633758962000,-3.8056862,-1.4202466,-3.5973196,-1.5137408,-0.8404937,-0.19387813
1650,A,359633779190000,-5.0606766,-1.5950831,-6.100115,-2.356365,0.38242993,0.02130529
1650,A,359633799286000,-7.453301,-1.7555494,-8.485555,-2.389388,0.2972088,0.24607609
1650,A,359633819662000,-9.730965,-1.829795,-8.064031,-0.11504856,0.18642128,0.5400891
1650,A,359633839758000,-10.540482,-1.9830762,-5.721702,2.364887,0.69774824,1.0375676
1650,A,359633859978000,-11.280542,-1.9112257,-4.3206153,2.6642263,0.76485986,1.4114754
1650,A,359633880074000,-13.218113,-2.191443,-4.390071,1.442368,0.9395633,1.0088054
1650,A,359633900231000,-14.02763,-4.3637257,-4.0978785,-0.28336033,1.3475596,0.33662358
1650,A,359633920327000,-12.334352,-7.3886356,-2.2393434,-0.8969527,0.5656554,-0.10226539
1650,A,359633940539000,-11.812237,-8.090376,-1.4609619,-0.60507023,-0.004261058,-0.36218992
1650,A,359633960635000,-13.002562,-6.3060865,-3.0296998,-0.72651035,0.84581995,-0.62531024
1650,A,359633980859000,-11.963123,-5.5468655,-2.9003687,0.020240024,0.50387007,-0.1438107
1650,A,359634000955000,-9.208851,-4.3325906,-2.6009912,2.163552,0.20026971,0.9406285
1650,A,359634021136000,-8.068821,-2.8524685,-3.3937428,2.4543693,0.080960095,0.6423545
1650,A,359634041232000,-7.4030056,-2.4740553,-2.7494826,0.9438243,-0.083090626,0.40053943
1650,A,359634061513000,-6.67971,-2.7470875,-1.4010864,-1.8780613,-0.6892261,-0.24501082
1650,A,359634081609000,-5.9947343,-2.8955786,-0.364043,-2.7675571,-1.5787219,-0.68389976
1650,A,359634101731000,-5.225933,-2.6321266,0.21794678,-0.36964676,-1.2335763,-0.30466563
1650,A,359634121827000,-4.864285,-2.1076174,0.4143384,1.2069446,-0.34834146,0.054328486
1650,A,359634142050000,-5.007986,-1.5232325,0.37362307,0.86179894,-1.1483551,0.02876214
1650,A,359634162146000,-5.0702567,-1.0370435,0.2945874,-0.39521313,-1.3624732,-0.39414784
