Subject-Id,Activity Label,Time stamp,Accel_x,Accel_y,Accel_z,Gyro_x,Gyro_y,Gyro_z
1611,A,3203022194898,-2.2660675,-11.392975,-0.5365906,-0.7655487,2.6141357,-0.9122467
1611,A,3203072548901,-2.2186737,-10.749329,-1.6755829,-3.022583,-1.0811005,-2.5076141
1611,A,3203122902905,0.46350098,-10.185318,-4.8039703,-2.206604,0.73435974,-1.2023621
1611,A,3203173256909,0.6261139,-10.551819,-2.2221375,0.18130493,0.9173584,-1.7637787
1611,A,3203223610913,-2.5966492,-14.215668,3.0959015,-0.5917206,0.266037,-1.17482
1611,A,3203273964917,1.8852234,-13.814636,-3.9431915,-0.57022095,-1.6177826,-0.6731262
1611,A,3203324318921,-4.640106,-13.850128,-1.7654877,0.48979187,-1.1102295,0.519928
1611,A,3203374672925,-10.208786,-13.470749,12.545578,1.0400085,-0.46780396,1.8532867
1611,A,3203425026929,0.34375,-11.836639,-2.7899017,-0.26982117,-5.101013,0.33573914
1611,A,3203475380933,-5.0812225,-6.1431274,-1.1431274,-0.13188171,-1.0300293,-0.67829895
1611,A,3203525734937,-2.789856,-2.7121124,3.2480927,0.7392273,-1.3126831,-0.19508362
1611,A,3203576088941,-5.866852,-3.1278076,2.0684204,-1.024765,-0.066604614,0.19892883
1611,A,3203626442944,-6.1479034,-4.8053436,1.0130463,-1.0231323,-1.323349,0.953125
1611,A,3203676796948,13.539627,-18.972412,8.297562,-0.45903015,-4.328644,1.0578766
1611,A,3203727150952,-6.130707,-8.860825,-1.5185089,3.7822418,-1.8690033,-0.49835205
1611,A,3203777504956,-11.486176,-16.848557,-9.784271,2.211975,3.6785736,-0.64785767
1611,A,3203827858960,-2.7292175,-8.850525,2.4766998,0.71131897,-1.3222961,0.90774536
1611,A,3203878212964,-3.2792358,-3.4501343,0.10832214,1.0945282,1.9327545,0.0077667236
1611,A,3203928566968,-2.7953339,-12.034454,6.55249,0.71928406,1.4899445,0.45767212
1611,A,3203978920972,-2.1855469,-7.968689,5.0992584,-0.04786682,-0.02796936,0.73161316
1611,A,3204029274976,-5.0797424,-10.472488,-4.3234253,0.056427002,-0.6109619,0.37272644
1611,A,3204079628980,-1.0833893,-7.603424,-0.5296478,0.79145813,0.28468323,-0.29145813
1611,A,3204129982983,-3.0297394,-9.5095215,1.5364838,-2.7768555,3.4392242,-2.4007568
1611,A,3204180336987,-3.1141815,-9.065079,-0.50735474,-3.1118011,-1.2027283,-2.25589
1611,A,3204230690991,-1.3337555,-10.554993,-0.31410217,0.70336914,4.2240143,-2.088501
1611,A,3204281044995,-0.24763489,-11.777222,2.2661133,-0.70288086,1.5832214,-0.8515167
1611,A,3204331398999,1.1828613,-15.287338,2.045395,-1.0186157,-0.40156555,-0.84150696
1611,A,3204381753003,-0.39486694,-17.249786,-15.083649,-0.25708008,-1.3325958,-0.17774963
1611,A,3204432107007,-7.338974,-15.363007,9.94162,0.45687866,-0.7691803,0.8415985
1611,A,3204482461011,-11.018082,-12.632782,-3.9084167,0.943985,-1.4512024,1.4182129
1611,A,3204532815015,1.2921143,-7.2687225,0.8481293,-0.34687805,-2.1972046,-0.018569946
1611,A,3204583169019,-2.4085236,-4.0917664,0.38694763,-0.28341675,-1.0520325,-0.3631134
1611,A,3204633523023,-4.9839783,-4.0388947,2.9027863,1.0746307,0.5131378,-0.017074585
1611,A,3204683877026,-5.253647,-2.8268585,0.91922,-0.44091797,1.8515167,0.29475403
1611,A,3204734231030,-2.689682,-7.0240936,1.227951,-0.39141846,0.09761047,0.6009369
1611,A,3204784585034,5.057205,-16.341736,1.8623657,-0.4457245,0.19702148,1.0354462
1611,A,3204834939038,-7.3398743,-5.890686,2.2679596,0.14349365,-1.3001709,1.1846313
1611,A,3204885293042,-7.960556,-7.1163025,1.7727509,1.6500549,-3.0284271,0.76898193
1611,A,3204935647046,-3.8023224,-13.212189,-1.3525848,2.8552246,-1.1720734,0.022003174
1611,A,3204986001050,-5.2930603,-5.141159,2.230774,2.313858,2.4058228,-0.16992188
1611,A,3205036355054,-5.714218,-9.443924,1.8109131,2.242981,3.5665588,0.1121521
1611,A,3205086709058,-2.1242676,-9.450668,0.22990417,1.3286438,2.67688,0.534317
1611,A,3205137063062,-0.20298767,-7.5401,2.4723358,-1.6677704,-1.9175262,0.93244934
1611,A,3205187417066,-0.89105225,-8.487457,3.7811127,-1.6107178,0.500412,-0.87864685
1611,A,3205237771069,-2.2037811,-9.482544,-0.46873474,-2.9367828,3.3753662,-3.3497162
1611,A,3205288125073,-2.1608582,-12.175903,-6.675766,-2.0766907,-0.5646515,-3.2261505
1611,A,3205338479077,0.8036041,-12.457504,-12.887131,-0.32330322,0.4925995,-1.5862427
1611,A,3205388833081,2.1965942,-13.348114,0.69821167,-1.2016449,-1.224411,-1.0324097
1611,A,3205439187085,2.9234314,-15.68779,0.8082428,-0.5888672,-1.1295624,-0.756546
1611,A,3205489541089,-2.9815369,-15.867966,-3.2075195,0.34240723,-1.0870209,0.43400574
1611,A,3205539895093,-11.796631,-14.294754,1.6097107,0.13067627,-1.9497223,1.9332886
1611,A,3205590249097,-6.480438,-7.619446,0.1605835,0.69148254,0.684433,0.8630676
1611,A,3205640603101,1.0072327,-5.536026,2.0551453,1.1148376,2.6344147,-0.56744385
1611,A,3205690957105,-4.5254364,-2.3042145,1.7750702,-0.15682983,1.5538788,-0.20690918
1611,A,3205741311108,-6.4057617,-0.50219727,2.230072,-1.1097565,1.4690857,0.24105835
1611,A,3205791665112,-2.7103577,-9.435242,-8.327774,-0.94233704,1.1381073,1.0768585
1611,A,3205842019116,3.5310059,-18.118347,-19.753006,-0.080444336,-0.38191223,1.3600006
1611,A,3205892373120,-1.1835632,-12.102417,-7.025055,1.1223755,-3.437378,1.103653
1611,A,3205942727124,-6.265854,-8.309402,1.9979248,3.0474854,-3.2167816,0.40849304
1611,A,3205993081128,-3.623352,-4.882553,0.5150757,3.0135345,0.8611145,-0.09614563
1611,A,3206043435132,-5.1184845,-6.359787,1.8875427,2.2871552,5.117279,-0.13311768
1611,A,3206093789136,-4.322006,-9.724548,0.9623718,-0.7026062,2.2320557,0.6468506
1611,A,3206144143140,-1.026886,-6.8237457,1.4771576,-1.271637,-2.8027039,0.55773926
1611,A,3206194497144,-0.8154602,-7.839447,3.764145,-0.57325745,4.0489655,-1.3004608
1611,A,3206244851148,-2.0436249,-9.975769,2.995758,-2.899475,0.21722412,-2.4109192
1611,A,3206295205151,-1.2503357,-10.817001,-11.247299,-2.1328888,1.307785,-3.0365295
1611,A,3206345559155,0.11958313,-11.776199,-7.6422577,-0.5163727,1.4763947,-2.197525
1611,A,3206395913159,1.6223755,-12.816177,3.4026794,-0.85647583,-1.2529907,-1.2301025
1611,A,3206446267163,3.9269257,-12.752396,-6.5395966,-0.98210144,-2.4893036,-0.79911804
1611,A,3206496621167,0.8297272,-16.095825,-3.06073,0.10620117,-1.0038452,0.0105896
1611,A,3206546975171,-9.021744,-18.937622,11.352936,1.3604584,-0.69343567,1.7024841
1611,A,3206597329175,-9.861664,-12.775024,5.5218964,2.047165,-1.5720367,-0.21717834
1611,A,3206647683179,-3.7950592,-6.5555267,1.2988892,0.5422821,-1.6684875,-0.5042114
1611,A,3206698037183,-4.5449677,-2.7987823,3.429062,1.2390442,-0.68714905,0.18739319
1611,A,3206748391187,-7.52359,0.09840393,2.557663,-0.97377014,0.06503296,0.6694336
1611,A,3206798745191,-7.838257,-3.8816986,-2.1229553,-1.1439819,-0.579422,0.91822815
1611,A,3206849099194,4.1035767,-15.828796,7.207672,-0.07524109,-0.08746338,0.86099243
1611,A,3206899453198,-5.239197,-9.577759,10.405792,0.3503723,-0.7078705,1.0862427
1611,A,3206949807202,-7.3697968,-16.325226,-5.7637787,1.7711487,-2.3583832,0.7865143
1611,A,3207000161206,-2.929596,-8.427643,-1.0929718,3.5157623,-0.6208801,0.0034484863
1611,A,3207050515210,-3.4082947,-3.804016,3.1724243,3.4514923,2.6254578,0.21981812
1611,A,3207100869214,-6.3711243,-10.056015,3.0479279,0.027755737,2.7521515,0.4560852
1611,A,3207151223218,-2.7431335,-7.3686676,0.03895569,-1.8380127,-0.313385,1.1478729
1611,A,3207201577222,0.23210144,-6.249054,5.5743866,0.8179321,-0.93525696,0.3448639
1611,A,3207251931226,-2.4139557,-9.98558,1.5913544,-2.8481445,1.6545258,-2.7225342
1611,A,3207302285230,-2.845398,-11.1909485,-1.4003906,-4.449127,-1.8806763,-3.8901825
1611,A,3207352639233,-3.4566345,-11.83728,-1.7974701,2.8220673,2.7413177,-3.0848083
1611,A,3207402993237,1.2330017,-12.567184,3.1672974,-1.3598022,-0.52104187,-0.96813965
1611,A,3207453347241,3.4763641,-14.815338,3.5704956,-1.4553223,-1.8683167,-0.8639679
1611,A,3207503701245,2.006134,-15.887711,-13.458221,-0.2834015,-1.4062042,-0.17337036
1611,A,3207554055249,-5.740082,-19.083694,14.149399,1.3285217,-0.7711487,1.9777222
1611,A,3207604409253,-11.09259,-10.211609,-17.333313,-0.04699707,-5.806732,0.66539
1611,A,3207654763257,2.173767,-5.555588,0.6451721,-0.4267578,-0.70474243,-0.520874
1611,A,3207705117261,-2.960556,-1.1804199,1.0733795,0.7256012,0.5924988,0.1131134
1611,A,3207755471265,-9.539215,1.9929047,3.5851746,-1.7484436,1.6856384,0.6332092
1611,A,3207805825269,-5.997925,-1.5561523,1.9443512,-1.52005,0.09007263,1.3225403
1611,A,3207856179273,14.561539,-19.353516,19.214432,0.32458496,-0.049453735,1.2475128
1611,A,3207906533276,-3.0033875,-7.520508,-1.4553223,1.4836426,-2.9632874,1.3215637
1611,A,3207956887280,-14.00177,-18.94194,-10.87764,2.901825,-3.3699188,0.6301422
1611,A,3208007241284,-5.234665,-5.5374756,1.7514496,2.743576,1.1730804,-0.3391266
1611,A,3208057595288,-3.9214783,-4.1581726,2.5479584,3.9192352,4.9510956,-0.098968506
1611,A,3208107949292,-5.4766083,-11.4544525,2.5069427,-1.9060059,1.3310394,0.6865845
1611,A,3208158303296,0.07055664,-6.544327,1.8074799,-1.0921478,-2.330307,0.7626343
1611,A,3208208657300,0.6417694,-7.756958,4.48085,0.7655945,2.532364,-1.1508026
1611,A,3208259011304,-1.1580658,-10.1362,2.060135,-3.8916779,-2.5916138,-2.8743286
1611,A,3208309365308,-3.8669128,-13.067612,-0.5561981,-2.0895538,-0.44177246,-3.8345947
1611,A,3208359719312,-1.7079773,-13.271988,-2.0632324,1.4451447,1.8500519,-2.1022491
1611,A,3208410073316,4.388153,-12.568985,6.0745544,-1.2958984,-2.1797485,-0.9716339
1611,A,3208460427319,4.796112,-14.803421,-6.248108,-0.59884644,-2.2608795,-0.82321167
1611,A,3208510781323,-2.2526245,-16.514557,0.95526123,0.5552826,-1.1091309,0.3044281
1611,A,3208561135327,-10.739517,-17.557648,7.0335236,1.1802216,-1.8435211,1.7255859
1611,A,3208611489331,-4.7436066,-6.4081116,-6.6124573,-0.4543457,-4.161499,0.58569336
1611,A,3208661843335,0.5487213,-4.7061005,4.2906036,0.5283966,1.1626587,-0.83444214
1611,A,3208712197339,-5.4911804,-1.7783813,2.4302826,1.0009613,-0.39813232,-0.31539917
1611,A,3208762551343,-9.929611,0.9775696,3.0604095,-2.0526886,1.1423035,0.76646423
1611,A,3208812905347,-1.7182465,-5.470871,5.1166687,-0.3678589,1.35849,1.1871338
1611,A,3208863259351,13.658508,-16.063492,13.186722,0.7037811,0.16270447,1.0118408
1611,A,3208913613355,-3.0964966,-8.027466,-8.021149,1.0700836,-2.182953,1.3985901
1611,A,3208963967358,-8.833405,-15.313583,-6.893051,2.465744,-2.8497314,0.9925537
1611,A,3209014321362,-4.424286,-2.9520416,5.0394745,3.3997955,-0.63313293,0.21678162
1611,A,3209064675366,-6.5476227,-6.850937,3.2729797,2.227707,3.8217773,-0.054870605
1611,A,3209115029370,-7.785385,-12.817871,-0.19281006,-0.026931763,3.5030823,0.27774048
1611,A,3209165383374,-0.14198303,-4.9944,0.51023865,-1.4481049,-1.3550415,0.12553406
1611,A,3209215737378,-0.25306702,-8.125793,2.8843994,-1.0594177,1.043396,-1.8860626
1611,A,3209266091382,-0.99461365,-12.0898285,3.3968353,-3.0493622,-1.3226471,-3.229004
1611,A,3209316445386,-0.14831543,-11.601364,-4.8181458,-1.7813721,0.23603821,-3.0915527
1611,A,3209366799390,3.3729858,-12.643219,-11.299484,-0.19244385,0.88822937,-1.9468689
1611,A,3209417153394,3.7355652,-12.696793,0.33963013,-1.3428802,-2.2578278,-1.1037445
1611,A,3209467507398,1.5397034,-14.758713,-5.413208,-0.4180603,-1.8347626,-0.5609741
1611,A,3209517861401,-5.450302,-17.858292,3.4617157,0.8907776,-0.83143616,0.9020691
1611,A,3209568215405,-11.494644,-15.785385,5.833008,1.319809,-2.2973938,1.0813446
1611,A,3209618569409,-5.133209,-8.857681,-5.159775,0.32850647,-2.7912598,-0.18061829
1611,A,3209668923413,0.39167786,-5.2088165,4.0616302,0.19767761,0.24490356,-0.61613464
1611,A,3209719277417,-5.638443,-0.84552,2.842514,0.024230957,1.859024,-0.07002258
1611,A,3209769631421,-7.327942,0.92822266,1.0628815,-0.63920593,1.3847198,1.0735474
1611,A,3209819985425,1.2352448,-9.177811,6.3595734,-0.38531494,-0.32595825,1.4454346
1611,A,3209870339429,0.93585205,-14.982986,11.170502,0.3487091,-2.8092499,1.2864075
1611,A,3209920693433,-10.002045,-14.235001,0.99890137,1.7402344,-3.796936,0.74082947
1611,A,3209971047437,-8.577316,-11.829163,-0.5614166,2.8824463,-0.91093445,-0.16798401
1611,A,3210021401441,-5.183319,-7.8257446,2.5300598,3.1959991,3.811966,-0.4992981
1611,A,3210071755444,-3.5015564,-9.498032,1.0033875,0.9013214,4.1916046,0.24510193
1611,A,3210122109448,-1.1156769,-7.780426,1.5722351,-1.1244202,-0.5424042,1.265625
1611,A,3210172463452,0.27700806,-7.6352844,2.3309784,-0.045547485,-1.6803894,0.65560913
1611,A,3210222817456,-0.7571869,-8.6297455,3.4276276,-1.4309998,3.4811554,-1.5260773
1611,A,3210273171460,-2.2480927,-9.501114,3.3365173,-3.2812805,0.561615,-2.8634796
1611,A,3210323525464,-2.9108276,-11.374664,-1.4927063,-1.8847351,0.25779724,-3.1448212
1611,A,3210373879468,1.6200867,-12.374481,-0.09185791,-0.39778137,0.93800354,-2.4552765
1611,A,3210424233472,4.051544,-12.208481,1.3083191,-0.5009613,-0.4890442,-1.6156769
1611,A,3210474587476,2.0890503,-12.094971,-8.006027,-0.37298584,-1.4871674,-0.80026245
1611,A,3210524941480,-0.8232727,-13.992966,-4.3932953,0.6980133,-0.71907043,0.63212585
1611,A,3210575295483,-8.244354,-17.884476,8.272659,-0.93203735,-2.5885468,2.5840912
1611,A,3210625649487,-9.466888,-12.607162,1.5516815,1.4872437,0.68336487,0.9244385
1611,A,3210676003491,-7.1028748,-6.270752,-1.0275116,1.0295258,0.51519775,-0.07962036
1611,A,3210726357495,-6.694031,-0.91090393,4.1438904,-1.4973145,1.8936768,-0.119400024
1611,A,3210776711499,-6.468643,0.71138,4.1045837,-1.53125,0.2514038,0.18130493
1611,A,3210827065503,-2.5993958,-13.487717,-13.279953,-0.589798,0.7928009,0.79927063
1611,A,3210877419507,3.9106293,-18.145767,-5.4755096,-0.5717926,-0.094573975,1.05867
1611,A,3210927773511,-4.109436,-10.546173,3.566803,1.2431793,-3.0424805,0.61131287
1611,A,3210978127515,-6.2299805,-16.658356,4.439438,3.6983795,-2.4658508,0.29122925
1611,A,3211028481519,-2.401413,-4.3536835,3.1365967,4.163864,0.5243683,-0.23753357
1611,A,3211078835523,-4.163803,-3.4284363,3.5748901,-0.14683533,2.324356,0.6575775
1611,A,3211129189526,-4.562027,-9.767029,2.0768738,-0.277771,-1.33107,1.0988617
1611,A,3211179543530,-1.9625397,-5.834717,2.4926453,0.6922455,1.968399,0.23435974
1611,A,3211229897534,-1.9315948,-9.386261,3.7111053,-2.2012482,0.8331146,-0.98553467
1611,A,3211280251538,-6.084549,-11.848007,0.21492004,-3.2250824,-2.1880646,-3.111374
1611,A,3211330605542,-3.9638367,-10.62886,-1.002533,-2.1904144,3.1749725,-3.8781128
1611,A,3211380959546,0.39775085,-12.965576,1.7893829,-1.3368988,-0.76724243,-1.4815369
1611,A,3211431313550,6.6694946,-10.568085,-6.9848175,-2.153778,-2.6136627,-1.597992
1611,A,3211481667554,3.8824005,-12.445007,-7.0288696,-1.8035583,-3.3698425,-0.63430786
1611,A,3211532021558,0.31018066,-18.752014,-0.21281433,0.11279297,-0.9466858,1.1872406
1611,A,3211582375562,-17.82219,-19.386353,17.414871,-0.9321289,-2.6168823,2.7609253
1611,A,3211632729566,-8.433105,-10.156448,7.0364685,0.07884216,0.34783936,-1.4036102
1611,A,3211683083569,-3.9546661,-5.462448,1.5309448,-0.1013031,2.3860016,-0.9426117
1611,A,3211733429839,-6.093094,-0.5606384,6.071396,0.5685272,0.62467957,0.35813904
1611,A,3211783783843,-5.870636,2.6024933,6.27861,0.58555603,0.82722473,1.4757996
1611,A,3211834137847,-1.1575623,-13.67012,-19.433243,1.6309052,-6.4073486,1.4662628
1611,A,3211884491851,-4.4610596,-19.376175,-4.7825623,1.5586243,0.25421143,0.29292297
1611,A,3211934845855,-10.666199,-6.398407,1.4888153,0.6687317,1.6163025,0.4459076
1611,A,3211985199859,-1.5572815,2.2043304,3.1221771,0.8150482,-2.1387177,0.24617004
1611,A,3212035553863,-11.551498,-19.325775,-1.8069153,2.2852173,-4.3905487,-0.86502075
1611,A,3212085907867,0.58354187,-3.0091553,1.0121613,1.1510925,5.6477203,-0.7859192
1611,A,3212136261871,-2.586975,-9.006607,-1.8435059,-0.21505737,-0.23001099,0.39674377
1611,A,3212186615874,-0.14305115,-8.810547,1.7779846,0.32606506,-1.5777588,-0.022766113
1611,A,3212236969878,-2.5327759,-7.768463,-1.4389496,-1.0518188,2.7302246,-1.6864166
1611,A,3212287323882,-5.6737213,-9.634918,5.19223,-3.2968903,-0.13768005,-1.9307709
1611,A,3212337677886,-4.7194977,-9.651627,-2.145523,-2.919464,-0.37182617,-1.3553467
1611,A,3212388031890,-0.77311707,-12.364349,-2.560196,-0.02116394,2.4219513,-1.0131836
1611,A,3212438385894,1.391983,-14.674774,2.6602173,-1.4785156,1.565918,-1.0993652
1611,A,3212488739898,0.60939026,-15.749802,-7.2785797,-0.8065033,0.43276978,-1.4398499
1611,A,3212539093902,-5.147766,-14.613434,-1.7816162,-0.2602539,-0.39474487,-0.67341614
1611,A,3212589447906,-7.916733,-12.891312,7.5756226,0.058639526,-0.58714294,0.56437683
1611,A,3212639801910,-2.7489014,-10.719315,-5.9629517,0.6204529,-0.5757599,0.91845703
1611,A,3212690155914,-1.4834137,-7.02182,-0.27191162,1.4870148,1.0957642,-0.24873352
1611,A,3212740509917,-3.9449005,-3.3251343,-0.117889404,1.2064362,1.1978455,0.21751404
1611,A,3212790863921,-5.7878876,-2.8732147,2.847046,0.15119934,2.5688477,0.34062195
1611,A,3212841217925,-4.0513306,-3.8579102,-0.4021454,0.92225647,2.9851685,1.2740021
1611,A,3212891571929,1.8250122,-14.75853,-9.971573,0.14294434,1.0730133,1.8451385
1611,A,3212941925933,-1.0773621,-15.979019,-7.0698853,-0.12680054,-2.1562347,2.323349
1611,A,3212992279937,-6.837967,-14.158554,-0.7149353,1.8037109,-3.8929749,1.105484
1611,A,3213042633941,-5.1754,-2.2248993,2.5728607,3.4879456,-1.1076965,-0.49804688
1611,A,3213092987945,-5.171219,-6.8733673,2.1464233,2.9638214,4.7895966,-1.3085175
1611,A,3213143341949,-5.6361847,-14.204056,-0.6354675,1.4629822,2.7901154,-0.027954102
1611,A,3213193695953,0.48405457,-8.726501,0.53100586,-0.65211487,-0.28936768,0.5798187
1611,A,3213244049957,2.8499146,-9.483704,3.955841,0.05253601,1.0610504,-0.4949646
1611,A,3213294403960,1.258667,-10.192673,4.1474,-2.1443481,2.394043,-1.7153168
1611,A,3213344757964,-4.688675,-10.017563,-5.8065643,-3.1633453,0.7987671,-2.8815002
1611,A,3213395111968,-7.6216125,-11.785614,-11.061798,-1.2992249,1.2855988,-3.300705
1611,A,3213445465972,-0.06845093,-11.73877,2.516571,0.6014404,0.24578857,-2.269043
1611,A,3213495819976,0.9478302,-12.439957,-5.3782043,-0.51190186,-1.6381836,-1.1249084
1611,A,3213546173980,0.7446747,-14.420197,-7.8138123,-0.57273865,-1.8043365,-0.43348694
1611,A,3213596527984,-3.934967,-16.295654,4.7336884,0.17687988,-0.80929565,0.9539032
1611,A,3213646881988,-9.475082,-15.59259,3.1826324,-0.023849487,-1.8687592,2.0159302
1611,A,3213697235992,-4.3261566,-7.979782,-5.3139496,0.31088257,-0.5249176,1.1409607
1611,A,3213747589996,0.3876648,-4.279907,0.6377106,0.23699951,1.3510284,-0.24336243
1611,A,3213797943999,-5.409012,-2.901474,3.0006714,-0.3073578,1.2788696,-0.07737732
1611,A,3213848298003,-7.4889374,-0.57128906,4.5897217,-0.31610107,2.281479,0.7079773
1611,A,3213898652007,0.8631134,-8.640244,-3.0727844,-1.187088,0.4762268,1.309082
1611,A,3213949006011,11.065552,-17.031403,-12.5863495,-0.71832275,-1.7966766,0.9939728
1611,A,3213999360015,-0.019073486,-10.5659485,-10.521286,1.5206604,-2.766983,0.4615326
1611,A,3214049714019,-9.434418,-5.930908,-1.9483795,3.1503143,-0.67848206,0.09298706
1611,A,3214100068023,-3.83609,-5.4438934,1.7657166,2.4366913,1.7513275,0.04396057
1611,A,3214150422027,-2.7861938,-9.815445,-0.16923523,3.855194,1.1356812,0.19308472
1611,A,3214200776031,-1.8540497,-9.581268,1.2805328,0.59994507,1.730011,0.6191559
1611,A,3214251130035,-1.3996124,-6.7523804,2.745163,-1.5947723,-0.5063019,0.653183
1611,A,3214301484039,-2.9533386,-8.776352,2.8432465,0.70118713,-0.47605896,-0.45703125
1611,A,3214351838042,-2.2157288,-9.61055,3.8727264,-1.8899536,-0.5161438,-2.0405426
1611,A,3214402192046,-4.065445,-11.992416,-1.6411896,-3.7109833,-1.8684235,-2.8849335
1611,A,3214452546050,-3.2752686,-12.384201,-3.497055,-0.21575928,1.55867,-2.8051147
1611,A,3214502900054,1.4669037,-12.794189,4.3984375,-0.4849701,0.3013153,-1.3554382
1611,A,3214553254058,1.3551178,-14.690826,3.5986328,-1.4260406,-1.520752,-0.93315125
1611,A,3214603608062,0.08531189,-15.413605,-1.5635529,-0.26687622,-0.9376068,-0.4107666
1611,A,3214653962066,-6.752899,-18.002502,8.591415,0.44744873,-0.4302063,0.90667725
1611,A,3214704316070,-11.338181,-11.463821,-6.1560364,-0.20895386,-1.4958801,1.861969
1611,A,3214754670074,0.48127747,-7.7638245,-1.6242371,0.9704132,2.631775,0.3145752
1611,A,3214805024078,-0.51060486,-5.1703796,2.655182,0.54785156,1.6778107,-0.042907715
1611,A,3214855378082,-5.4714355,-2.215805,3.239853,-0.07688904,1.377182,0.33888245
1611,A,3214905732085,-5.627365,0.07199097,5.330353,-0.34036255,1.1222992,0.8359833
1611,A,3214956086089,3.881607,-13.911133,-7.2498627,-0.852417,-0.01776123,1.4062042
1611,A,3215006440093,8.770279,-18.473663,-17.822327,-0.93800354,-2.2571259,1.4048004
1611,A,3215056794097,-6.806656,-11.619873,-6.702896,1.2281494,-4.037323,0.53790283
1611,A,3215107148101,-3.694748,-5.1456604,-1.3068542,3.0716705,-2.6306458,-0.29174805
1611,A,3215157502105,-3.8319092,-5.951248,1.7844238,2.9994354,2.9203033,-0.8265381
1611,A,3215207856109,-3.8269653,-10.544617,0.003540039,0.19717407,2.0739136,0.47218323
1611,A,3215258210113,-0.5955353,-6.3868103,1.006897,-1.1462555,-0.3529663,1.1877136
1611,A,3215308564117,-1.189682,-9.127594,3.7472687,0.17018127,-1.181076,0.5779877
1611,A,3215358918121,0.8058014,-7.4858856,7.1873016,1.2067719,0.87524414,-0.79711914
1611,A,3215409272124,-3.2297516,-9.612503,6.470703,-3.2276917,-0.65608215,-1.4104004
1611,A,3215459626128,-4.360428,-9.840393,-1.1666107,-2.930313,-0.39416504,-3.0061798
1611,A,3215509980132,-0.86151123,-10.986206,1.8430481,0.057647705,1.4796295,-3.153595
1611,A,3215560334136,2.4309998,-12.472427,5.0753174,-1.157196,1.2561188,-0.6893463
1611,A,3215610688140,-0.92445374,-13.208588,4.9630737,-0.6899719,0.40042114,-1.3223114
1611,A,3215661042144,1.2722015,-12.704514,-3.8350067,-0.36863708,-2.0225372,-0.6845398
1611,A,3215711396148,-4.0076294,-17.285797,0.17332458,0.7285614,-0.36950684,0.38049316
1611,A,3215761750152,-15.960892,-15.850388,2.2731323,1.1825104,-0.5272522,2.2079315
1611,A,3215812104156,-0.20022583,-6.0044556,5.2832184,2.2049866,1.1064148,-0.52970886
1611,A,3215862458160,-3.037735,-4.884903,-1.8780823,-0.0184021,-0.4998169,-0.3353119
1611,A,3215912812164,-5.1691437,-3.2134857,4.0587006,0.6165314,-0.95150757,0.076828
1611,A,3215963166167,-7.102417,-0.4429474,0.60939026,-1.2384949,1.0368042,0.33851624
1611,A,3216013520171,-9.944565,-3.9437408,-3.7377777,-0.83465576,0.17066956,0.71362305
1611,A,3216063874175,6.9481506,-19.028198,5.808853,0.24073792,0.73861694,1.1614685
1611,A,3216114228179,-7.639679,-7.537323,7.249069,-0.14407349,-1.4513397,1.6345062
1611,A,3216164582183,-1.6824646,-18.980026,0.4296875,1.3057251,-4.139206,0.9979706
1611,A,3216214936187,-4.5785217,-3.9328918,1.3788605,3.691208,-2.1330872,0.16070557
1611,A,3216265290191,-4.446869,-3.3688507,2.9143524,2.5169525,2.993515,-0.47216797
1611,A,3216315644195,-7.248642,-12.015305,0.8857727,2.7482605,5.468155,0.06362915
1611,A,3216365998199,-1.3023834,-7.383194,-0.2936859,-1.520462,0.39604187,1.2569275
1611,A,3216416352203,0.2059021,-10.640121,2.985489,-0.63838196,-2.0628662,0.50105286
1611,A,3216466706207,-0.48927307,-6.8845825,3.8120422,-0.97224426,2.4801636,-1.731247
1611,A,3216517060210,-2.8325958,-9.457886,-0.6538696,-3.0569458,-1.2910614,-3.066803
1611,A,3216567414214,-4.687378,-12.311707,-5.847275,-2.590622,0.40151978,-3.581543
1611,A,3216617768218,0.23937988,-11.875214,-1.0440521,0.9298706,0.07583618,-2.0999146
1611,A,3216668122222,3.9499512,-13.914337,4.197647,-1.2900391,-1.8512421,-1.0460815
1611,A,3216718476226,1.6203918,-13.815063,-4.8401947,-0.66648865,-1.9404602,-0.8456116
1611,A,3216768830230,-3.3541412,-16.74562,-0.12321472,0.7198639,-0.84065247,0.33584595
1611,A,3216819184234,-11.104996,-17.59401,9.534897,0.39544678,-2.0547028,1.7652588
1611,A,3216869538238,-8.280029,-8.995834,-9.315887,-1.2166443,-3.6753235,1.2023315
1611,A,3216919892242,2.4728851,-6.2001038,4.903488,0.39801025,1.2176056,-0.629364
1611,A,3216970246246,-4.889221,-3.1539001,3.1141052,-0.31718445,0.19213867,0.058639526
1611,A,3217020600249,-7.1280975,-1.2016907,3.1641846,-1.6050873,1.046341,0.4489441
1611,A,3217070954253,-0.9307251,-5.602371,8.447464,-0.70903015,0.68614197,0.8519287
1611,A,3217121308257,11.160004,-16.569748,10.336029,0.45332336,0.6600952,1.0304718
1611,A,3217171662261,-2.6043549,-11.780029,-11.493866,0.6017914,-2.1651154,1.4016724
1611,A,3217222016265,-10.748459,-14.386581,-4.2866364,1.8242493,-3.99823,0.90078735
1611,A,3217272370269,-4.244095,-2.837799,2.3398743,3.2602234,-0.9313965,0.004180908
1611,A,3217322724273,-5.2264404,-6.0650787,3.3510132,3.1253204,4.573761,-0.25164795
1611,A,3217373078277,-6.0168304,-11.889282,0.9910736,0.7640991,3.5364075,0.5688324
1611,A,3217423432281,-1.1014862,-8.335083,0.019515991,-1.2974396,-1.4413757,1.0057983
1611,A,3217473786285,-0.19911194,-8.550049,3.3799744,0.19224548,0.19544983,-0.3757782
1611,A,3217524140289,-0.91651917,-8.166336,3.9864502,-1.5445404,1.1114807,-2.0896149
1611,A,3217574494292,-3.5723724,-10.68602,-8.074905,-3.3962708,-0.9991913,-3.3865051
1611,A,3217624848296,-3.3029175,-11.1332855,-11.551361,-1.4424896,1.2773438,-3.258545
1611,A,3217675202300,2.5544891,-11.936676,3.3226013,-0.20593262,0.36167908,-1.8507843
1611,A,3217725556304,3.8566742,-13.684219,2.0425568,-0.8188019,-1.445282,-1.1738586
1611,A,3217775910308,0.8325043,-15.229675,-2.5129852,-0.17025757,-1.7406616,-0.46714783
1611,A,3217826264312,-6.349777,-17.814728,6.43985,0.62483215,-0.5011444,0.8186493
1611,A,3217876618316,-12.253616,-14.923355,4.876343,-1.6371155,-3.2319946,2.5428772
1611,A,3217926972320,-5.2919617,-8.470856,-2.2108002,-0.6473694,-0.55737305,1.1356812
1611,A,3217977326324,-0.33407593,-5.566696,3.3059845,1.3627167,1.8189545,-0.30541992
1611,A,3218027680328,-5.9478607,-2.5035706,2.8980103,-0.05632019,0.54592896,0.09440613
1611,A,3218078034332,-8.901245,-0.87690735,2.7062378,-1.1137543,0.22772217,0.48825073
1611,A,3218128388335,4.110031,-10.036118,11.765747,-0.98210144,-0.12693787,0.7357788
1611,A,3218178742339,12.066574,-13.073288,-0.772522,-0.17614746,-0.043136597,0.9402466
1611,A,3218229096343,-0.84106445,-12.4140625,-11.142258,0.67259216,-1.7760162,1.061676
1611,A,3218279450347,-4.3079224,-9.9383545,-3.9866028,2.3495026,-2.7686157,0.5676575
1611,A,3218329804351,-2.9245148,-3.6819305,-0.008087158,3.0714417,0.22953796,0.04901123
1611,A,3218380158355,-7.021927,-8.656189,2.6663513,3.5192719,2.8051453,0.21809387
1611,A,3218430512359,-5.1863403,-9.09198,1.4056854,0.46600342,3.4125214,0.30332947
1611,A,3218480866363,-1.6367645,-7.86821,1.0626373,-1.7697449,-0.81448364,0.5595703
1611,A,3218531220367,-1.7590332,-8.38826,4.772476,0.8842163,-1.4983063,-0.21162415
1611,A,3218581574371,-2.686264,-9.833542,2.945694,-1.4728088,1.7852783,-2.0921478
1611,A,3218631928374,-2.4272003,-11.377823,0.9708252,-3.2740479,0.15287781,-3.0961761
1611,A,3218682282378,-2.1027222,-11.449982,-2.2646484,0.48594666,2.316742,-2.9410553
1611,A,3218732636382,1.1681366,-12.0550995,1.1827545,-0.1477356,-0.13212585,-1.2817688
1611,A,3218782990386,1.0004272,-13.27623,3.425949,-0.80366516,-1.1766052,-1.004364
1611,A,3218833344390,-1.1917114,-14.530899,-8.722015,-0.20747375,-1.1062927,-0.61408997
1611,A,3218883698394,-5.8918457,-16.706207,2.6486359,0.89575195,-0.43515015,0.50379944
1611,A,3218934052398,-9.721481,-14.372162,-7.619293,1.7875061,-1.9421844,2.3518524
1611,A,3218984406402,1.6839905,-9.281097,0.28201294,2.2527618,4.2302704,0.35403442
1611,A,3219034760406,-1.437561,-5.5718994,0.3270874,0.08439636,0.74957275,-0.020309448
1611,A,3219085114410,-5.6916046,-1.5508575,4.3306427,0.27926636,0.4295349,0.03479004
1611,A,3219135468414,-7.9374084,0.3130188,3.620926,-1.5534973,0.3059082,0.06341553
1611,A,3219185822417,-8.619095,-13.765091,-14.563034,-1.2185516,0.6255646,0.39379883
1611,A,3219236176421,5.7541656,-19.100784,-12.088516,0.49256897,1.8187103,1.0244446
1611,A,3219286530425,-1.215683,-9.203049,3.0167694,0.061416626,-0.78622437,1.3752747
1611,A,3219336884429,-3.231308,-15.578659,-3.0254517,1.8765259,-4.55748,1.157608
1611,A,3219387238433,-4.398468,-5.255661,-0.056747437,3.692154,-0.65335083,0.69607544
1611,A,3219437592437,-9.59108,-8.239059,5.322586,2.6225128,7.9569244,-0.14523315
1611,A,3219487946441,-4.871826,-6.098358,0.35643005,-1.4633636,-0.2500763,0.61553955
1611,A,3219538300445,-2.638382,-8.916382,-0.3054657,-0.6608124,-0.2019043,0.32748413
1611,A,3219588654449,0.69970703,-10.799088,5.6688232,0.77915955,-0.651947,-0.15396118
1611,A,3219639008453,-0.13380432,-10.634811,3.713791,-1.236145,7.196472,-1.2583771
1611,A,3219689362457,1.0493622,-12.71814,-17.84291,-2.520401,-0.0644989,-2.037674
1611,A,3219739716460,-1.2082825,-9.056717,0.8301697,-1.1190338,1.7436218,-3.5407104
1611,A,3219790070464,-0.31285095,-10.856369,4.979233,-0.3473053,2.6380463,-2.0004425
1611,A,3219840424468,-0.11213684,-12.671066,2.3994446,0.037261963,-0.56414795,-1.7059479
1611,A,3219890778472,-0.04147339,-15.272232,-19.174606,-0.17089844,-2.2926636,-0.9624634
1611,A,3219941132476,1.2940063,-11.087097,3.4069672,0.45480347,-1.9637146,0.04611206
1611,A,3219991486480,-10.256409,-14.5455475,8.632141,1.1667023,-0.7780762,1.27594
1611,A,3220041840484,-6.815613,-11.652451,0.70121765,-1.7287445,-2.9596252,2.7744904
1611,A,3220092194488,1.2033386,-9.188049,-3.5212708,2.757492,6.008423,-0.31910706
1611,A,3220142548492,-6.0398254,-5.171463,-0.08666992,-0.6992798,-0.9062042,0.5092468
1611,A,3220192902496,-6.6835785,-0.591156,4.9118195,-0.6081238,1.3843842,0.3972168
1611,A,3220243256499,-8.128632,-1.2702026,5.5723114,-1.2194519,-1.2451172,0.2420044
1611,A,3220293610503,9.251358,-18.978745,-0.4985199,-0.9237976,1.3195496,0.7453308
1611,A,3220343964507,10.477142,-12.78891,-16.187607,-0.9524689,0.72636414,1.1588593
1611,A,3220394318511,-5.353119,-7.1367645,-2.9185486,0.40756226,-3.4103699,1.3142548
1611,A,3220444672515,0.054779053,-10.970688,-5.1068115,3.5164337,-3.6079712,0.5530243
1611,A,3220495026519,-3.2158966,-2.0205536,1.262497,2.9849548,1.3355865,0.11975098
1611,A,3220545380523,-12.825851,-15.814194,6.424988,-0.3531494,2.521347,0.2909088
1611,A,3220595734527,-2.5008698,-5.9490814,-0.08950806,-1.6720123,-1.0905151,0.7851715
1611,A,3220646088531,-0.8710785,-9.405243,4.740921,0.34817505,-1.1504669,-0.06277466
1611,A,3220696442535,-0.7444,-9.064728,5.8530884,0.79888916,2.45813,-1.1676025
1611,A,3220746796539,-1.7809753,-11.992737,4.5496216,-3.1499329,-0.8538208,-2.1035614
1611,A,3220797150542,-2.3238068,-10.41507,-3.908966,-0.85765076,0.98147583,-3.317459
1611,A,3220847504546,1.160614,-11.231155,3.0623322,0.4372406,1.6165771,-2.182907
1611,A,3220897858550,0.9827728,-12.361389,6.6842194,0.0143585205,-1.2050476,-1.3111725
1611,A,3220948212554,-2.155243,-12.233368,0.6037445,-0.29344177,-1.4220886,-1.0636597
1611,A,3220998566558,-0.7602844,-11.808731,0.018173218,-0.030838013,-1.9296417,0.052368164
1611,A,3221048920562,-5.8954315,-14.255692,2.6061554,1.1666412,-1.4423828,1.147644
1611,A,3221099274566,-3.5768127,-12.103622,-6.172241,2.2832336,-1.230011,1.3043671
1611,A,3221149628570,3.4775085,-8.979095,1.4021912,1.4509583,-0.74079895,0.011444092
1611,A,3221199982574,-5.387512,-5.3210144,0.12454224,-0.32176208,-0.17596436,-0.23202515
1611,A,3221250336578,-6.189621,-2.426422,3.5556335,-0.10432434,1.2936707,0.054122925
1611,A,3221300690582,-9.37999,-3.0065918,-1.5428467,-0.65844727,0.83369446,1.131958
1611,A,3221351044585,-6.0261536,-9.108658,-5.072571,-0.9476929,-2.1508636,1.8663635
1611,A,3221401398589,0.71769714,-17.889648,4.8580627,0.02798462,-4.4306793,0.7985077
1611,A,3221451752593,-10.024429,-10.621033,-4.8041534,1.411972,-2.206131,0.2843933
1611,A,3221502106597,-3.7647858,-2.0431213,3.8815613,2.7509766,1.9205322,-0.25801086
1611,A,3221552460601,-2.5366364,-7.298767,-0.96702576,1.2952728,2.839264,0.4251709
1611,A,3221602814605,-1.4258118,-12.547333,-2.1354828,-0.37145996,-0.32458496,1.2306061
1611,A,3221653168609,-1.8735352,-6.8249664,1.4377899,-0.5472717,-0.7172241,1.0167236
1611,A,3221703500135,-1.9499054,-10.04097,4.5011444,-0.09579468,0.5215149,0.3749237
1611,A,3221753854139,-1.7117767,-8.534851,4.327347,-0.7889252,1.2689514,-1.078064
1611,A,3221804208143,-3.57341,-9.878174,-0.9986572,-2.4363098,-0.1932373,-2.6522522
1611,A,3221854562146,-2.5406647,-10.768204,-1.4238281,-0.47833252,-0.11708069,-3.590744
1611,A,3221904916150,-0.15766907,-11.860138,1.1945648,0.20391846,0.10510254,-2.542694
1611,A,3221955270154,2.2473297,-11.760941,2.357071,-0.72566223,-1.4424591,-1.3876038
1611,A,3222005624158,2.6699066,-11.656982,-2.9846802,-0.7359619,-2.6287994,-0.81881714
1611,A,3222055978162,0.5404053,-13.566284,-1.5512543,-0.12789917,-2.3867645,0.1984253
1611,A,3222106332166,-7.8262024,-17.827286,3.6621246,1.2775421,-0.9531708,1.4725647
1611,A,3222156686170,-8.583221,-14.3284,3.0963898,2.1513824,0.05029297,0.5919647
1611,A,3222207040174,-3.9177856,-7.801758,1.8671417,0.8947754,-0.16932678,-0.7928772
1611,A,3222257394178,-5.462494,-4.19429,2.491272,1.2623444,-1.730545,-0.5331421
1611,A,3222307748182,-7.895508,-0.4600525,4.619293,-0.4020691,-1.2625275,0.1999054
1611,A,3222358102186,-10.138168,-2.047104,-4.6312256,-1.5580444,-0.8599396,0.7891083
1611,A,3222408456189,-1.3030243,-12.988693,0.9245453,-0.21185303,-0.11248779,0.8004608
1611,A,3222458810193,-0.37086487,-11.366257,8.391769,0.5389099,-0.5175171,0.94522095
1611,A,3222509164197,-8.250275,-13.783218,4.7773438,1.3063507,-2.2552795,0.87646484
1611,A,3222559518201,-6.8131104,-9.891815,1.9900055,2.8641815,-1.1170349,0.20391846
1611,A,3222609872205,-4.0064697,-3.7355652,2.7621918,2.933014,1.8993683,-0.17773438
1611,A,3222660226209,-4.9957275,-8.614059,2.377121,2.5726929,2.6823578,0.09172058
1611,A,3222710580213,-3.2258606,-8.659454,-0.1770935,-1.2831116,1.1266785,0.7681122
1611,A,3222760934217,0.50579834,-6.6127777,2.9989471,-0.9547882,-2.1921234,0.24627686
1611,A,3222811288221,-0.66812134,-8.475433,2.426056,-0.9370117,4.5780487,-1.3832855
1611,A,3222861642225,-3.321289,-11.074844,1.3618927,-2.7614594,-0.8593292,-3.0731812
1611,A,3222911996229,-1.0869141,-12.17897,-7.846634,-1.1719513,1.3067932,-2.5988007
1611,A,3222962350232,0.22122192,-12.106079,-3.973709,-1.0680695,0.36819458,-1.0914154
1611,A,3223012704236,1.1624146,-13.15741,4.3927765,-1.3092194,-0.79940796,-1.0604706
1611,A,3223063058240,4.966324,-12.743774,-5.011856,-0.60362244,-1.5662079,-0.742157
1611,A,3223113412244,-1.5220795,-15.359299,-1.7635345,0.23924255,-1.2146149,0.34465027
1611,A,3223163766248,-11.135773,-12.554703,5.0611115,1.4503326,-1.2820587,1.786911
1611,A,3223214120252,-2.143509,-9.581528,4.9259033,0.59809875,-1.4924927,0.3212433
1611,A,3223264474256,-3.1321564,-6.671921,-0.60150146,0.105773926,-0.6729584,-0.78596497
1611,A,3223314828260,-6.2103424,-3.1516876,3.7518005,2.1036835,-2.824295,-0.21058655
1611,A,3223365182264,-6.473007,-0.97273254,3.1810303,-1.2342072,1.9575348,0.60736084
1611,A,3223415536268,-6.096634,-2.3608246,0.21611023,-1.0003662,-0.3633423,0.8831024
1611,A,3223465890271,5.125702,-16.421875,6.2495575,-0.38656616,-0.5780792,1.0304565
1611,A,3223516244275,-4.661484,-7.103134,8.058029,0.024642944,-1.5705261,0.9673004
1611,A,3223566598279,-17.113571,-17.33574,0.6399536,2.1455383,-3.2704926,0.44702148
1611,A,3223616952283,-3.5754395,-6.3548737,-1.9438934,3.3259277,1.1551666,-0.4250641
1611,A,3223667306287,-2.1303406,-2.2454681,1.7011566,2.9135437,2.8914185,-0.050369263
1611,A,3223717660291,-6.7894897,-15.265533,1.8695984,-0.6676483,2.8153534,0.43374634
1611,A,3223768014295,-1.2489624,-6.7045593,1.4073486,-2.2276459,-0.45671082,0.91822815
1611,A,3223818368299,0.49900818,-7.6449738,6.941345,0.5697632,-3.0993347,0.2995758
1611,A,3223868722303,-2.3757935,-11.17659,1.2040253,1.5156403,3.5295258,-1.0339966
1611,A,3223919076307,-1.8812408,-9.977982,5.178116,-3.9467926,-2.6091309,-2.3291168
1611,A,3223969430311,-3.2379913,-9.973343,-2.3160858,-3.1455078,-0.79797363,-2.843399
1611,A,3224019784314,0.31210327,-12.505508,2.2747955,1.0256195,2.4623566,-2.3736725
1611,A,3224070138318,2.289444,-12.998444,4.8470154,-1.2325897,-0.9374695,-0.9958191
1611,A,3224120492322,1.9294434,-14.995682,-1.0283203,-0.8172455,-1.0487823,-1.0823975
1611,A,3224170846326,0.38275146,-14.227371,-2.8615417,0.6109009,-0.5133972,-0.1541748
1611,A,3224221200330,-9.576752,-17.474655,14.616364,0.57855225,-1.1091614,1.4548492
1611,A,3224271554334,-10.562454,-10.086075,-15.228973,-1.4806976,-4.006729,2.4571533
1611,A,3224321908338,4.832855,-8.062729,5.4960327,1.4524078,4.1194916,-0.5558014
1611,A,3224372262342,-3.6102905,-4.224716,0.23628235,0.4155426,0.61605835,-0.09272766
1611,A,3224422616346,-6.5542297,-1.985321,3.3539276,-1.0976105,2.0071716,0.19856262
1611,A,3224472970350,-5.1548157,-0.75942993,3.5142212,-0.76971436,0.26530457,0.92230225
1611,A,3224523324354,8.445084,-18.81839,-11.42308,-0.6524353,-0.68655396,1.1237488
1611,A,3224573678357,7.0344696,-11.434235,-17.789825,-0.05026245,-1.7187042,0.8665924
1611,A,3224624032361,-8.655594,-8.212524,1.3294067,1.765976,-2.3725586,0.41362
1611,A,3224674386365,-3.6566925,-7.6207886,2.0905304,3.4201813,-0.025527954,-0.12948608
1611,A,3224724740369,-3.347992,-4.5132446,0.928833,2.994751,2.3377838,0.11288452
1611,A,3224775094373,-5.588623,-12.074036,0.858551,3.5799713,2.2079773,0.1641388
1611,A,3224825448377,-1.6731873,-6.5890045,2.9806213,-1.7838287,1.3210144,0.8916168
1611,A,3224875802381,-2.1080627,-8.852463,3.4231873,-0.94595337,-2.6961975,0.5894928
1611,A,3224926156385,-2.7325745,-10.1775055,4.1346893,0.19078064,0.32002258,-1.0818939
1611,A,3224976510389,-3.1010437,-10.367996,-3.8540497,-3.069519,6.518112,-3.0692291
1611,A,3225026864393,-4.258972,-11.514175,-16.021347,-2.7617493,-0.68692017,-2.9937744
1611,A,3225077218396,-0.5502777,-11.058212,-0.6754761,0.6549988,3.376114,-2.142044
1611,A,3225127572400,1.8808746,-13.078857,3.6273804,-1.4776917,-0.6000366,-0.71266174
1611,A,3225177926404,0.37800598,-14.294098,0.34014893,-0.718338,-0.93899536,-0.8220062
1611,A,3225228280408,-1.8516846,-14.512863,-12.269943,0.1595459,-1.2607727,0.09121704
1611,A,3225278634412,-7.8022003,-15.869827,5.6740265,0.32385254,-1.5115662,1.3338623
1611,A,3225328988416,-9.583008,-12.321167,-4.6324615,-0.3695221,-1.6249237,1.2588654
1611,A,3225379342420,1.0798798,-6.6660614,4.222,0.8360138,2.3366394,-0.18643188
1611,A,3225429696424,-4.5070953,-2.7844849,1.0319519,-0.0513916,0.7352295,0.114364624
1611,A,3225480050428,-5.2610474,-0.23583984,5.4743958,-0.5792084,1.0331726,0.3803711
1611,A,3225530404432,-2.991867,-6.4222717,-3.9790192,0.18263245,0.59181213,0.8610382
1611,A,3225580758436,4.4950714,-17.64981,-18.165695,-0.0765686,-0.7731476,1.3294678
1611,A,3225631112439,2.4194946,-11.68985,-7.3803864,-0.020614624,-2.74057,1.2587433
1611,A,3225681466443,-6.1472015,-7.8292236,5.2631226,1.341095,-3.205307,0.685318
1611,A,3225731820447,-3.7849426,-7.222702,3.443756,2.2405243,-0.78234863,-0.07640076
1611,A,3225782174451,-5.27536,-7.8744507,1.3740997,2.9405518,3.5437012,-0.5872345
1611,A,3225832528455,-4.4276733,-10.60025,-0.8452759,1.8799438,3.5059967,0.091537476
1611,A,3225882882459,-1.2536163,-7.904236,0.23474121,-0.85723877,0.064453125,0.9676666
1611,A,3225933236463,-0.04244995,-8.44902,3.158905,-1.0363312,-2.2397919,0.84588623
1611,A,3225983590467,0.04838562,-8.177124,3.6322021,-0.06726074,-0.6246338,-0.18489075
1611,A,3226033944471,-2.7377625,-10.143372,-0.31777954,-0.72946167,2.3672943,-1.8139496
1611,A,3226084298475,-3.5205688,-10.418137,-2.5053253,-2.7918549,0.124420166,-2.8177948
1611,A,3226134652479,-1.7967072,-11.085114,-1.586319,-1.4408569,1.0084381,-2.428299
1611,A,3226185006482,1.4792786,-12.412003,3.117035,-0.31602478,1.4044952,-1.5531311
1611,A,3226235360486,1.728653,-13.545502,3.2795563,-0.93226624,-1.0167999,-1.1969299
1611,A,3226285714490,0.19418335,-13.637268,-8.793488,-0.20111084,-1.114563,-0.7611542
1611,A,3226336068494,-4.03627,-13.731735,-3.3414001,0.6584625,-0.7030792,0.5792084
1611,A,3226386422498,-7.6496124,-13.583267,0.5641022,-0.36026,-2.1371002,2.288681
1611,A,3226436776502,-2.216751,-10.654144,-1.2287292,0.9295044,1.3258057,1.0512085
1611,A,3226487130506,-1.6427765,-6.227188,2.5813904,1.0576782,1.5909882,-0.4111786
1611,A,3226537484510,-6.1490784,-2.6508331,2.5957336,-0.27970886,0.26135254,-0.5520172
1611,A,3226587838514,-7.2691193,-1.135376,3.251297,-0.44699097,0.438797,0.1270752
1611,A,3226638192518,-4.4683685,-12.065674,-10.9362335,-0.24520874,0.8486786,0.8560028
1611,A,3226688546521,4.565735,-18.911072,-13.169266,-0.7331848,-0.7563629,1.2733917
1611,A,3226738900525,-4.016342,-13.382263,-1.7513733,0.2516327,-3.3951569,0.9427185
1611,A,3226789254529,-6.7135925,-8.476456,4.952591,1.5906677,-4.044571,0.5301056
1611,A,3226839608533,-2.6785736,-2.950943,3.0573883,2.4574432,0.6153717,-0.46539307
1611,A,3226889962537,-7.6840363,-12.948212,1.0585175,3.2286987,4.193924,-0.55311584
1611,A,3226940316541,-4.583603,-10.506653,0.25546265,0.027816772,2.3647156,0.5711365
1611,A,3226990670545,-1.0319214,-6.2119904,-0.024459839,-1.8049622,0.014190674,1.0185242
1611,A,3227041024549,-0.1368866,-8.671082,3.3404999,0.119018555,-1.7328644,0.3728485
1611,A,3227091378553,-1.2634735,-8.172806,3.6605682,0.98495483,4.5505066,-0.959671
1611,A,3227141732557,-4.3622284,-10.849121,0.714447,-2.9965668,-1.0562439,-2.1101227
1611,A,3227192086561,-4.0052032,-10.712799,-1.2951508,-3.0969086,0.67752075,-3.278946
1611,A,3227242440564,-0.4810791,-12.342361,1.8608093,-0.3128662,0.88298035,-2.3026428
1611,A,3227292794568,1.9340668,-12.84404,3.590683,-0.22973633,0.53022766,-1.7424164
1611,A,3227343148572,3.7055664,-13.185089,-5.582672,-0.9290924,-2.0772095,-1.018753
1611,A,3227393502576,1.2767639,-15.131027,-0.8025665,0.34883118,-1.4939423,0.0748291
1611,A,3227443856580,-7.475601,-17.718552,12.682709,0.6852417,-0.48579407,1.3830414
1611,A,3227494210584,-11.081833,-11.33371,-5.190628,-1.9531097,-3.7099915,2.3400116
1611,A,3227544564588,-3.3027344,-8.842758,-0.9915314,1.3049316,1.9532776,-0.3380127
1611,A,3227594918592,-2.791809,-4.2477264,2.2824097,1.3049469,1.8377991,-0.4947052
1611,A,3227645272596,-6.1898193,-1.8615875,2.947815,0.5074463,1.8245087,0.528183
1611,A,3227695626600,-6.8649445,0.01272583,5.6240997,-0.97442627,0.1071167,0.86213684
1611,A,3227745980604,5.227722,-17.123276,-6.261963,-0.4520874,-0.8626251,0.93989563
1611,A,3227796334607,10.982483,-12.864532,-16.919113,-0.47543335,-2.1004028,1.2121277
1611,A,3227846688611,-9.24556,-0.75312805,-6.349701,0.35461426,-3.4497986,0.7967682
1611,A,3227897042615,0.70051575,-14.453918,-5.370407,2.7987366,-2.1870728,-0.034606934
1611,A,3227947396619,-3.67247,-6.590683,1.5266113,2.4590912,2.8178406,-0.43544006
1611,A,3227997750623,-5.818344,-9.06102,1.5652466,4.681595,4.0475616,0.009765625
1611,A,3228048104627,-3.0049133,-8.5924225,-0.5051117,-1.4285583,0.80744934,1.1209259
1611,A,3228098458631,-0.4557953,-7.956238,3.4003296,-1.0867462,-0.800827,0.914093
1611,A,3228148812635,-0.56381226,-8.634567,5.3228607,0.62838745,-1.2216492,0.14839172
1611,A,3228199166639,-2.0531921,-8.769684,0.71435547,0.33992004,6.2749176,-1.4870453
1611,A,3228249520643,-6.5660095,-12.450226,-12.527283,-3.7595825,-3.1446838,-2.3409271
1611,A,3228299874646,-2.088211,-9.385239,0.34204102,-1.965332,0.5098419,-2.9131622
1611,A,3228350228650,1.0139008,-12.166962,3.2008057,-0.41827393,1.8375397,-1.5739899
1611,A,3228400582654,2.3088074,-14.338242,3.4050293,-0.56721497,0.3671112,-1.6089325
1611,A,3228450936658,3.2763062,-14.370926,-11.080261,-0.7002411,-1.7541809,-0.93600464
1611,A,3228501290662,0.69847107,-13.700653,0.7713318,0.42703247,-1.3019867,0.062301636
1611,A,3228551644666,-10.301834,-14.269913,11.439178,0.4942932,-1.1797638,1.4726257
1611,A,3228601998670,-8.908447,-9.951523,-2.8159332,-1.8109436,-2.587387,1.9953918
1611,A,3228652352674,0.7390442,-9.47731,-0.33921814,1.2194672,3.556961,-0.5768585
1611,A,3228702706678,-4.7218323,-4.3926086,1.9333344,0.21694946,0.8214569,0.09550476
1611,A,3228753060682,-6.8335876,-1.5875549,2.60849,-0.7187805,3.0099487,-0.057647705
1611,A,3228803414686,-5.024811,-2.7415314,1.5910339,-1.3037567,-0.6070099,0.960022
1611,A,3228853768689,9.735474,-18.057693,-6.8103027,-0.4522705,-0.22857666,1.0711365
1611,A,3228904122693,8.629852,-8.496582,-16.605179,0.09651184,-1.253479,1.2759552
1611,A,3228954476697,-5.347763,-5.886917,2.2986603,1.4858704,-3.2406616,1.0592651
1611,A,3229004830701,-4.269699,-11.150436,-4.48761,3.5233917,-1.1859741,0.09971619
1611,A,3229055184705,-3.7032623,-3.0183105,2.3724976,3.203827,2.706192,-0.2516632
1611,A,3229105538709,-6.0217285,-8.508469,3.426529,3.4581451,5.628998,0.083984375
1611,A,3229155892713,-2.4188995,-8.44783,1.4697266,-2.086792,-0.46180725,0.8947296
1611,A,3229206246717,-0.10343933,-6.934265,2.7908783,-0.04083252,-1.5061646,-0.003189087
1611,A,3229256600721,-0.40777588,-9.443115,4.1321564,-0.5751648,2.3072662,-1.7024384
1611,A,3229306954725,-1.9830322,-10.155411,-3.1780548,-3.5207367,-2.1127472,-2.8327026
1611,A,3229357308729,-4.147522,-13.607407,-15.270081,-1.80159,0.97203064,-2.962555
1611,A,3229407662732,0.19442749,-12.214493,0.59602356,-0.19798279,-0.12199402,-1.8949127
1611,A,3229458016736,3.5933075,-13.520569,2.5182648,-1.2183685,-1.804657,-1.3008728
1611,A,3229508370740,3.5055847,-14.820999,-5.4960785,-0.45913696,-2.0930023,-0.7816162
1611,A,3229558724744,-3.2211761,-17.334229,4.7576447,1.0133362,-1.024353,0.58399963
1611,A,3229609078748,-11.708084,-16.419998,11.754852,-0.04208374,-2.983307,1.9723511
1611,A,3229659432752,-6.3064423,-9.655457,-2.0966034,-1.4855804,-3.8269348,1.0301056
1611,A,3229709786756,1.3297424,-6.7574005,3.571167,0.6088867,1.0952301,-0.6139679
1611,A,3229760140760,-5.0788727,-2.4556732,3.472229,0.11526489,1.4522552,-0.09552002
1611,A,3229810494764,-7.116272,-0.6479645,2.8997498,-0.6196747,1.3742371,0.8504791
1611,A,3229860848768,0.93740845,-7.7867126,8.656662,-0.57592773,0.044387817,1.3680725
1611,A,3229911202771,8.156708,-16.397293,7.874237,-0.119155884,-2.4818115,1.1046295
1611,A,3229961556775,-5.86232,-14.639038,-8.208008,1.6173859,-3.7964783,0.54470825
1611,A,3230011910779,-7.018036,-12.929642,-2.5656433,2.7210236,-0.5411682,-0.22912598
1611,A,3230062264783,-4.702133,-5.0285797,3.1432953,3.2916412,3.7259064,-0.41641235
1611,A,3230112618787,-4.2986603,-9.023346,0.5143585,1.2220459,2.3871307,0.49075317
1611,A,3230162972791,-2.1138763,-9.056625,1.0541229,-0.85920715,0.19795227,1.1490631
1611,A,3230213326795,-0.12988281,-7.605606,3.1994934,-0.120666504,-0.38822937,0.8473816
1611,A,3230263680799,-1.1546173,-9.070251,2.9490051,-0.45256042,3.2093964,-0.85180664
1611,A,3230314034803,-3.1411438,-9.94696,0.38613892,-2.2035217,2.1121368,-2.5284576
1611,A,3230364388807,-4.211899,-10.830551,0.4074707,-2.4720001,0.020355225,-3.2366028
1611,A,3230414742811,-1.2467041,-10.973038,1.951828,-1.619461,1.5124054,-2.3561096
1611,A,3230465096814,2.8280334,-12.794098,2.8516388,-0.9645233,0.54130554,-1.5705872
1611,A,3230515450818,3.237091,-14.349808,-8.696854,-0.796875,-1.2117462,-1.2159119
1611,A,3230565804822,-0.3413086,-15.134277,-7.9404297,0.071014404,-1.4168243,-0.42099
1611,A,3230616158826,-7.641617,-15.340378,8.190353,0.91116333,-1.1434174,0.947464
1611,A,3230666512830,-10.448639,-12.347504,5.35878,-1.6001129,-3.098648,1.9488983
1611,A,3230716866834,-4.684372,-9.092865,-0.4075775,-1.0106964,-1.0689697,0.17033386
1611,A,3230767220838,-3.1659088,-5.5153656,2.3318481,1.0494537,0.683136,-0.7046509
1611,A,3230817574842,-4.753723,-2.1091003,3.4381104,-0.23710632,2.131424,-0.079559326
1611,A,3230867928846,-5.355942,-1.1564484,3.6218872,-0.8340759,1.0909576,0.47865295
1611,A,3230918282850,4.1349487,-12.51593,0.6954498,-0.22628784,0.41618347,0.88079834
1611,A,3230968636854,5.617996,-13.869919,-9.220963,-0.15200806,-0.59262085,1.0604858
1611,A,3231018990857,-7.290741,-6.5918274,-3.085617,0.8317566,-2.0282745,0.93058777
1611,A,3231069344861,-5.906967,-8.561371,-1.6037903,2.8709106,-2.8932343,0.4424286
1611,A,3231119698865,-3.5424957,-5.963806,1.3955536,3.0743256,0.6938324,0.018234253
1611,A,3231170052869,-6.2413483,-9.0394745,2.738617,2.84964,5.3567657,0.15507507
1611,A,3231220406873,-4.4128723,-10.123306,1.3278809,-0.44137573,1.7257385,0.9870148
1611,A,3231270760877,-1.0069122,-7.49971,1.7482605,-0.79563904,-1.1841278,1.1859589
1611,A,3231321114881,-0.40234375,-7.9868927,4.0214844,0.82492065,-0.19075012,-0.4348297
1611,A,3231371468885,-1.9742126,-8.537643,1.4392395,-1.6441345,4.059326,-1.9855042
1611,A,3231421822889,-2.7965393,-10.870605,-14.73613,-3.1292877,0.38310242,-3.1062012
1611,A,3231472176893,-1.5899048,-11.703964,-4.197281,-1.0962982,1.530014,-3.5382538
1611,A,3231522530896,2.027832,-12.311188,2.3252716,-1.5508423,1.3302917,-1.3173065
1611,A,3231572884900,0.8923187,-13.08194,2.965088,-0.85209656,0.31895447,-1.3339691
1611,A,3231623238904,-0.054107666,-13.874985,-14.948029,-0.44914246,-1.2408905,-0.7945862
1611,A,3231673592908,-2.8581848,-15.690384,-0.7341156,0.7940674,-0.6025238,0.21191406
1611,A,3231723970706,-13.505905,-18.654068,11.941742,1.3898468,-0.6452179,2.2073212
1611,A,3231774324710,-5.5826263,-9.3151245,4.3687286,1.4592285,-1.4166412,0.28547668
1611,A,3231824678714,-3.658371,-6.7953644,-1.6789398,-0.23477173,-1.2954102,-0.6987915
1611,A,3231875032718,-5.4112854,-2.6902924,3.4340363,1.2621155,-1.6983795,-0.037368774
1611,A,3231925386722,-5.706024,-0.49456787,2.5635529,-1.059845,1.4451904,0.4273224
1611,A,3231975740726,-7.3765564,-3.2425385,0.511322,-1.0910645,-0.3936615,0.8532715
1611,A,3232026094730,6.3341217,-17.720581,9.907623,0.089416504,0.88490295,0.7892151
1611,A,3232076448733,-5.707382,-7.380768,6.2989655,0.37077332,-0.0602417,1.1461792
1611,A,3232126802737,-10.487976,-18.348862,-3.069397,1.1321716,-4.0135345,1.1583862
1611,A,3232177156741,-4.746048,-8.029388,0.20565796,3.7454224,-2.2213287,0.19488525
1611,A,3232227510745,-2.2117157,-1.3982086,2.012848,4.430481,10.825806,-0.3152008
1611,A,3232277864749,-9.123642,-13.1492,3.9342499,-1.7679291,-1.3977203,1.1041107
1611,A,3232328218753,-2.2357635,-6.355591,0.49983215,-0.987442,-1.3641205,0.65779114
1611,A,3232378572757,0.15940857,-9.626892,5.241104,0.5175934,-0.98779297,0.018722534
1611,A,3232428926761,-0.7598572,-11.428574,4.754486,0.8425293,3.4073792,-0.95002747
1611,A,3232479280765,2.1286774,-10.551743,-19.553131,-3.5342865,-1.0167236,-2.0390472
1611,A,3232529634769,-0.9695587,-8.800049,0.67471313,-1.9844971,0.48860168,-3.6582947
1611,A,3232579988773,0.33590698,-10.442337,3.2036438,1.8058777,1.0848694,-2.671936
1611,A,3232630342776,0.5236206,-10.748688,3.6006927,-0.9640808,-0.7194824,-1.0792542
1611,A,3232680696780,-0.5388031,-13.17746,-0.44691467,-1.1239014,-2.3063812,-1.0153503
1611,A,3232731050784,0.8345337,-13.345474,-3.7520294,0.17881775,-1.7793579,-0.18182373
1611,A,3232781404788,-5.783249,-16.437408,4.580261,1.113678,-1.064148,1.004837
1611,A,3232831758792,-10.062851,-15.764435,-10.776627,2.1599274,-0.27345276,1.8600159
1611,A,3232882112796,0.34831238,-8.522522,3.4053192,2.8560333,2.0963593,-0.81611633
1611,A,3232932466800,-3.6781158,-4.262039,-0.1951294,-0.13897705,-1.2020721,-0.3487091
1611,A,3232982820804,-6.5513763,-0.24461365,5.210251,0.21235657,-0.97366333,-0.03538513
1611,A,3233033174808,-8.700516,-1.1111908,0.17045593,-1.0812836,-0.85905457,0.33024597
1611,A,3233083528812,-9.47287,-9.995178,-14.986618,-0.7432709,-0.44952393,0.6909332
1611,A,3233133882815,7.0900116,-17.169693,10.18544,0.40623474,0.58462524,0.7180939
1611,A,3233184236819,-3.2783966,-8.62178,4.2104034,0.34829712,-1.2788696,1.3276215
1611,A,3233234590823,-1.1069946,-16.662323,-7.003113,0.9997711,-3.025711,1.0589142
1611,A,3233284944827,-5.7721252,-4.947937,1.1175537,2.7665863,-1.8322906,0.21955872
1611,A,3233335298831,-5.9121094,-5.1605835,3.9156952,3.0706787,2.7304993,-0.2756958
1611,A,3233385652835,-8.2153015,-9.298431,2.2740479,1.9122314,4.646332,0.16348267
1611,A,3233436006839,-2.3284454,-8.794388,-1.0193024,-1.1393127,-0.24949646,1.0085754
1611,A,3233486360843,-0.74046326,-9.782379,1.5184937,-0.23727417,-0.6133728,0.28941345
1611,A,3233536714847,-1.017868,-8.712631,3.960785,-0.55781555,1.9958954,-1.4210968
1611,A,3233587068851,-3.1045837,-9.984573,-3.0180664,-2.5934143,2.0264587,-3.0570984
1611,A,3233637422855,-3.860962,-11.096039,-11.378555,-1.7584839,0.18829346,-3.5599518
1611,A,3233687776858,0.024353027,-11.699081,0.45588684,0.18916321,1.6516113,-2.328415
1611,A,3233738130862,2.6118927,-12.386597,2.1040344,-1.9844208,-1.5664063,-1.0853271
1611,A,3233788484866,1.3461456,-13.684616,-5.5699615,-1.5001831,-2.1714935,-1.011383
1611,A,3233838838870,-2.0918121,-15.697113,-11.775604,-0.2539215,-1.1868744,-0.29408264
1611,A,3233889192874,-8.750504,-17.798553,2.57193,1.1418152,-0.86047363,0.9756012
1611,A,3233939546878,-8.748871,-13.891708,0.861084,2.1790009,-0.4294281,0.9725342
1611,A,3233989900882,1.4138489,-8.061081,3.5024414,0.99009705,-0.07788086,-0.04295349
1611,A,3234040254886,-4.362213,-3.8385773,2.8534393,0.58091736,-0.47169495,0.44718933
1611,A,3234090608890,-6.1258545,-0.07388306,5.228531,0.57077026,1.53302,0.5175476
1611,A,3234140962894,-7.044449,-0.60557556,-1.7259369,0.069885254,0.71351624,0.6188507
1611,A,3234191316898,-2.2048187,-10.483459,-5.4884644,0.34872437,-1.9609375,0.7593231
1611,A,3234241670901,2.8181152,-12.168945,1.4981232,-0.85272217,0.3993225,1.1563263
1611,A,3234292024905,-5.1543274,-5.5405884,5.6929016,-0.059829712,-0.4361725,1.0439453
1611,A,3234342378909,-8.60022,-13.735535,4.2688293,2.7458038,-2.4020538,0.086242676
1611,A,3234392732913,-4.1432343,-10.650558,1.7215271,2.6825104,-0.36601257,-0.6981354
1611,A,3234443086917,-2.3087769,-1.0905304,1.9682922,1.8706055,2.1151428,-0.16267395
1611,A,3234493440921,-2.1857147,-10.019424,2.9607391,0.81817627,2.0169678,0.97821045
1611,A,3234543794925,-0.39686584,-11.176743,2.6783142,0.34231567,1.4481964,0.8968506
1611,A,3234594148929,-0.15367126,-6.681656,3.6298523,-0.5841522,0.7370453,-0.10127258
1611,A,3234644502933,-2.617218,-9.090637,4.041794,-2.5944977,0.17623901,-1.5207367
1611,A,3234694856937,-6.634094,-10.316772,-4.8227997,-2.899475,-0.21679688,-2.6569214
1611,A,3234745210940,-1.5378876,-11.611008,-0.857605,-0.7432556,0.7707062,-2.5013733
1611,A,3234795564944,4.3246307,-13.277954,1.0161285,-0.24415588,0.047958374,-1.3369598
1611,A,3234845918948,3.0464478,-14.503433,-4.9084473,-1.2310028,-1.2504425,-1.1793213
1611,A,3234896272952,0.8216095,-13.75795,-3.8383942,-1.1805267,-2.1878815,-1.0069275
1611,A,3234946626956,-4.4309387,-16.484222,2.421112,0.09832764,-1.4243164,-0.1715393
1611,A,3234996980960,-8.044662,-13.39119,-3.043274,1.8676605,-0.60017395,1.3180237
1611,A,3235047334964,-0.732193,-8.083633,-2.3077545,1.5450745,-2.001892,1.0021362
1611,A,3235097688968,-1.2450104,-6.2717133,0.6242676,-0.10295105,-1.1159363,0.008544922
1611,A,3235148042972,-5.0299683,-3.6071472,3.8802643,1.197052,-0.37109375,-0.47062683
1611,A,3235198396976,-6.501007,-1.0310059,3.6101074,-0.34597778,0.41732788,0.31300354
1611,A,3235248750980,-7.956024,-2.5553436,1.471878,-0.88038635,0.016738892,0.96492004
1611,A,3235299104983,6.1156616,-14.407379,13.093597,-0.048706055,-0.24266052,0.9296417
1611,A,3235349458987,0.24920654,-10.06459,9.278473,0.5654907,-1.0481262,1.0142822
1611,A,3235399812991,-7.747986,-15.157196,-3.0458374,1.5160217,-2.4613495,0.86587524
1611,A,3235450166995,-4.862503,-8.909042,-0.64764404,3.3406982,-0.30407715,-0.026504517
1611,A,3235500520999,-4.2006073,-5.2402344,2.335785,2.6585999,2.6538086,-0.17912292
1611,A,3235550875003,-4.7633057,-8.731461,2.0629425,0.11100769,4.092972,0.19277954
1611,A,3235601229007,-2.2771606,-8.063156,0.42710876,-1.3514252,-0.5571594,0.95806885
1611,A,3235651583011,0.8879852,-7.269058,3.767685,0.3244934,-2.169632,0.25932312
1611,A,3235701937015,-2.0290527,-9.45697,3.1311798,-0.85040283,6.4602203,-1.6416931
1611,A,3235752291019,-3.4788055,-11.073013,5.8891296,-2.9687195,-0.3468933,-2.6650848
1611,A,3235802645023,-3.2160492,-10.910385,-2.563736,-2.6595001,0.66641235,-3.3887787
1611,A,3235852999026,1.0794067,-11.784714,1.2698517,-1.0334625,1.5920715,-1.8161926
1611,A,3235903353030,2.838272,-12.455795,7.619919,-0.84643555,-0.0793457,-1.5713806
1611,A,3235953707034,3.231903,-13.609268,-14.915314,-0.96972656,-1.9212799,-0.97143555
1611,A,3236004061038,-0.25097656,-15.751511,-1.5731354,0.33488464,-1.5722198,-0.026382446
1611,A,3236054415042,-9.6298065,-18.579529,13.889465,0.4390869,-0.99772644,2.1566925
1611,A,3236104769046,-9.676712,-10.616058,-1.0302124,-0.695282,-5.2230377,1.4554443
1611,A,3236155123050,-1.8090363,-8.040146,-0.6102295,0.91352844,0.1065979,-0.46217346
1611,A,3236205477054,-4.0641785,-4.006607,6.655899,0.88731384,1.0447235,0.17767334
1611,A,3236255831058,-7.230789,-1.3293304,1.253891,-0.67401123,1.7039185,0.52381897
1611,A,3236306185062,-9.123856,-1.8175201,2.9260406,-0.74697876,0.9609833,1.2324219
1611,A,3236356539065,14.6280365,-14.445389,15.906708,-0.5949402,-0.63967896,1.0518188
1611,A,3236406893069,-5.1321564,-11.093124,-0.71687317,0.055511475,-2.1726685,0.8315582
1611,A,3236457247073,-12.2256775,-18.966751,-7.6872253,2.3190918,-2.9687653,0.38502502
1611,A,3236507601077,-1.3185272,-4.7430115,-0.04434204,3.2738037,-0.12866211,-0.3070221
1611,A,3236557955081,-2.9606476,-3.2656708,1.9958649,2.842163,3.6380615,-0.1071167
1611,A,3236608309085,-5.499405,-12.683105,0.5137329,0.31848145,2.649109,0.7003479
1611,A,3236658663089,-1.1257477,-7.5173187,3.3640747,-1.1128235,-0.5231323,1.4450684
1611,A,3236709017093,-0.9715576,-7.73674,1.9637299,0.035339355,-1.2558899,0.86250305
1611,A,3236759371097,-3.0294342,-9.346497,3.780838,0.850647,2.850357,-1.4487762
1611,A,3236809725101,-3.7599182,-9.839691,2.0489044,-3.6457977,-0.7339325,-2.3501434
1611,A,3236860079105,-4.837311,-10.484146,-6.0197296,-2.2743225,0.67904663,-3.8845673
1611,A,3236910433108,0.74942017,-12.515228,1.5701447,2.1457825,1.4541168,-2.8904266
1611,A,3236960787112,3.7422028,-11.660645,3.150772,-1.03862,-0.802475,-0.9776764
1611,A,3237011141116,0.22955322,-13.1167145,-1.1697235,-0.75090027,-1.6891632,-1.0675964
1611,A,3237061495120,-0.1641388,-13.916016,-4.4693146,0.35682678,-1.6032104,-0.23402405
1611,A,3237111849124,-5.724579,-17.133469,2.7900238,0.8654785,-0.64360046,1.3638
1611,A,3237162203128,-10.484512,-14.94191,-11.900681,-0.11564636,-1.5650482,2.4736023
1611,A,3237212557132,1.4637604,-7.299408,2.973465,3.3891907,4.428177,-0.74458313
1611,A,3237262911136,-3.7037354,-3.4171753,0.057006836,0.06726074,-0.20480347,0.02671814
1611,A,3237313265140,-7.0853577,-0.019165039,5.4910736,-0.16615295,-0.4729309,0.33096313
1611,A,3237363619144,-9.044235,-3.3714905,-0.1322174,-1.5606384,-1.0089111,0.4283142
1611,A,3237413973148,-1.2940369,-19.131927,-17.370377,-0.74002075,-0.92907715,0.60557556
1611,A,3237464327151,4.426071,-16.1633,-3.1654968,0.09541321,0.028869629,0.8242035
1611,A,3237514681155,-7.6916656,-11.091843,4.7821503,0.58291626,-2.1680603,0.85002136
1611,A,3237565035159,-4.690033,-16.43245,0.059432983,2.857071,-2.2729187,0.40698242
1611,A,3237615389163,-3.6002197,-4.78331,1.7803345,3.8174744,2.929016,-0.1589508
1611,A,3237665743167,-4.331497,-5.6544647,3.3827362,2.3371887,5.2911224,0.46800232
1611,A,3237716097171,-4.170212,-8.258453,0.46003723,-1.3683319,-0.53855896,1.2724304
1611,A,3237766451175,-0.6639099,-7.2437286,2.4252472,-0.39109802,-1.2924957,0.86709595
1611,A,3237816805179,-0.13044739,-9.03569,5.977112,0.5700836,1.7711182,-0.48295593
1611,A,3237867159183,-2.704361,-10.093399,-4.4535675,-1.150116,5.122238,-1.9053345
1611,A,3237917513187,-3.328537,-13.11441,-13.669952,-2.8854523,-0.8428345,-2.6377106
1611,A,3237967867190,-0.74806213,-10.751038,1.5768585,-0.6850891,1.2046509,-3.2117004
1611,A,3238018221194,2.2311249,-12.217651,3.308197,0.02619934,0.36546326,-2.043335
1611,A,3238068575198,2.2623901,-12.226196,-3.0134583,-0.475708,-1.4111328,-1.3257294
1611,A,3238118929202,0.17082214,-12.292694,-8.213608,-0.2718506,-1.9823608,-0.4695282
1611,A,3238169283206,-1.3596954,-14.149719,7.43779,0.84013367,-0.79693604,0.884552
1611,A,3238219637210,-6.32518,-14.795395,4.1720886,-1.2790833,-2.1927795,2.121582
1611,A,3238269991214,-5.694809,-10.735367,-3.6892853,-1.4222565,-0.5254822,0.99201965
1611,A,3238320345218,-3.3008728,-5.818344,-0.3430481,1.5053711,3.0125427,-0.5002594
1611,A,3238370699222,-5.6853485,-2.540451,2.6522675,0.27449036,-0.19619751,0.5424042
1611,A,3238421053226,-7.4419556,-1.7070313,3.304718,-0.30270386,-0.28753662,0.8500824
1611,A,3238471407230,2.4569855,-9.425415,8.023972,-0.886734,-0.9684448,0.76901245
1611,A,3238521761233,12.033539,-16.733871,0.31863403,-0.88887024,-2.2626953,1.0016327
1611,A,3238572115237,-2.5740814,-10.73732,-15.48587,0.030792236,-2.8644562,0.89382935
1611,A,3238622469241,-9.349228,-8.208923,-6.4248962,1.7760468,-2.2425232,0.17362976
1611,A,3238672823245,-1.8845673,-6.9927673,1.0583649,2.582779,1.306488,-0.51893616
1611,A,3238723177249,-3.87146,-8.962082,-0.3478241,3.1231384,3.5286713,-0.14682007
1611,A,3238773531253,-3.6972656,-9.524094,1.3296204,0.52601624,1.3675232,0.9625244
1611,A,3238823885257,-1.2211304,-7.185898,2.251419,-1.1306305,-1.1699524,1.2940063
1611,A,3238874239261,0.20562744,-7.6941376,6.731262,0.113845825,-0.2955017,0.4335327
1611,A,3238924593265,-1.6313782,-8.640305,5.1190033,-0.6535797,1.9789734,-1.4616852
1611,A,3238974947269,-6.313156,-10.356613,-10.5902405,-3.2775726,-0.18635559,-2.9944763
1611,A,3239025301273,-4.927353,-11.842178,-8.797226,-0.91477966,1.8559418,-3.0974731
1611,A,3239075655276,0.30924988,-12.37207,1.2209015,-0.44386292,1.3016052,-1.8140564
1611,A,3239126009280,2.9191437,-12.848572,1.2867279,-1.0997314,-1.4042053,-1.2019043
1611,A,3239176363284,3.6272125,-13.140076,-11.223145,-0.48338318,-2.10701,-0.6409302
1611,A,3239226717288,-1.3078766,-15.757889,0.60668945,0.4260559,-1.1032867,0.7023163
1611,A,3239277071292,-10.87262,-16.45987,8.128189,0.48078918,-2.055359,2.1142578
1611,A,3239327425296,-6.5559235,-10.594025,1.4800415,2.706482,1.1518555,0.6382904
1611,A,3239377779300,-2.947403,-4.7676086,-0.100875854,1.1681061,0.1716156,-0.4878235
1611,A,3239428133304,-6.607483,-1.3389282,3.0404968,0.32261658,0.5492401,-0.53982544
1611,A,3239478487308,-9.012238,-0.49467468,4.1548157,-0.85990906,-0.56217957,0.01524353
1611,A,3239528841312,-10.1323395,-13.335556,-12.131363,-1.1183014,-0.80682373,0.40968323
1611,A,3239579195315,0.63697815,-19.386353,-4.623291,-0.035125732,0.24731445,0.8124542
1611,A,3239629549319,-2.439087,-11.865768,2.0875244,0.15357971,-1.0466766,1.1837006
1611,A,3239679903323,-7.0123444,-16.32077,-0.08854675,1.7895813,-2.8778229,0.70980835
1611,A,3239730257327,-5.512253,-8.04895,1.2339783,3.8429565,-0.5079651,0.08103943
1611,A,3239780611331,-6.7802277,-6.572632,4.2316284,2.534195,2.3516083,-0.016799927
1611,A,3239830965335,-5.4846344,-7.450897,1.710144,0.78356934,4.8486786,-0.019515991
1611,A,3239881319339,-2.3097992,-7.276535,-0.45892334,-1.7336884,-0.5724182,0.57373047
1611,A,3239931673343,-0.11607361,-8.229355,5.9550476,0.34320068,-2.2282104,-0.25709534
1611,A,3239982027347,-1.27565,-9.712357,1.1267395,-1.5180359,7.136444,-1.9959564
1611,A,3240032381351,-1.8382568,-11.15303,1.9364624,-3.0223236,-1.1830444,-2.7968903
1611,A,3240082735355,-1.492691,-11.7595825,-4.843872,-1.7875366,1.3545227,-2.4141388
1611,A,3240133089358,1.5011444,-11.656525,1.8683014,-1.3336334,1.2528534,-1.233902
1611,A,3240183443362,-0.078201294,-12.821884,5.217758,-0.99261475,-0.307312,-1.5330353
1611,A,3240233797366,2.3520966,-13.626068,-16.463287,-0.90615845,-1.734024,-0.9898224
1611,A,3240284151370,-2.714264,-15.611725,-1.5534363,0.83335876,-0.38072205,0.02027893
1611,A,3240334505374,-10.314987,-14.617325,14.992279,1.2070465,-1.0575256,2.0175018
1611,A,3240384859378,-7.528305,-10.107132,3.3202972,0.5426178,-3.6574097,0.7457886
1611,A,3240435213382,-1.966568,-8.10881,0.7786255,0.04650879,-0.34727478,-0.99212646
1611,A,3240485567386,-5.2559814,-2.7471466,6.18985,0.7187958,-0.6345062,0.022415161
1611,A,3240535921390,-6.3578033,-1.3440857,1.8782196,-1.1781921,1.4889679,0.5163727
1611,A,3240586275394,-6.7236023,-2.3299408,1.6754456,-0.96492004,-0.7310791,0.9830017
1611,A,3240636629398,10.126236,-18.787445,17.882797,-0.10134888,-0.25506592,1.3496704
1611,A,3240686983401,-5.034729,-6.191574,-0.4501648,0.07499695,-2.1484528,1.3975983
1611,A,3240737337405,-12.689346,-16.609009,-3.1034393,2.2161713,-4.4380035,0.48675537
1611,A,3240787691409,-3.9158478,-7.0927277,-1.2672424,3.7570648,1.2761078,-0.793808
1611,A,3240838045413,-3.0976257,-2.5625,2.808899,4.3699036,7.782547,-0.43019104
1611,A,3240888399417,-5.512436,-11.713684,0.99324036,-1.3044586,0.1867218,1.098877
1611,A,3240938753421,-0.5566864,-7.1846313,1.2326355,-1.2249603,-1.7554016,1.000885
1611,A,3240989107425,1.7738953,-7.6860504,5.877365,0.5790558,-0.9697571,-0.26663208
1611,A,3241039461429,-2.6267548,-12.233368,0.3733673,-1.8397522,7.30748,-2.4729767
1611,A,3241089815433,-2.87117,-11.282181,-7.8173065,-3.9141998,-1.8157806,-3.0066223
1611,A,3241140169437,-1.7085724,-9.809647,-1.179779,-1.1026459,2.2930756,-3.5708313
1611,A,3241190523440,2.2487183,-12.235947,3.7294312,-0.7187042,1.1674652,-1.575531
1611,A,3241240877444,3.0325623,-11.073471,3.286438,-0.7863922,-1.2803802,-1.1675568
1611,A,3241291231448,2.7426758,-17.404343,-16.952042,-0.58891296,-2.3547974,-0.47320557
1611,A,3241341585452,-2.4831085,-16.991272,6.660324,0.6342926,-0.82073975,0.782547
1611,A,3241391939456,-14.166,-18.123047,12.583237,1.0662384,-0.94914246,1.847992
1611,A,3241442293460,-7.725403,-8.237595,-0.21868896,0.9243622,-0.1403656,-0.32337952
1611,A,3241492647464,-0.7941284,-5.2852783,1.8143005,0.24745178,-1.1616211,-0.49058533
1611,A,3241543001468,-5.2964325,-2.1226501,4.8088684,1.0532227,-0.90270996,0.21789551
1611,A,3241593355472,-7.448044,-0.77363586,1.474823,-0.72276306,0.5505066,0.35301208
1611,A,3241643709476,-4.1639557,-6.793045,0.2577057,-0.14480591,0.8371277,0.9514923
1611,A,3241694070662,6.9661255,-16.634247,11.716232,0.11505127,-0.22840881,1.2407074
1611,A,3241744424665,-9.124878,-8.125931,9.923859,0.63845825,-2.7785492,1.3076935
1611,A,3241794778669,-0.50901794,-15.700882,-1.7003937,2.5711975,-3.551941,0.37008667
1611,A,3241845132673,-4.6865387,-3.4638214,3.5895386,3.9359283,1.4805298,-0.5991516
1611,A,3241895486677,-5.352722,-5.974579,2.2633972,2.331009,5.5344696,-0.25149536
1611,A,3241945840681,-4.7458344,-10.8480835,-0.41027832,-0.85769653,0.11972046,0.97024536
1611,A,3241996194685,-0.12042236,-6.99971,1.7687378,-0.7987213,-1.1363678,0.8087616
1611,A,3242046548689,0.6581726,-9.138992,4.849289,0.68148804,1.2780609,-0.3778839
1611,A,3242096902693,-2.175415,-10.801956,1.9381256,-1.1341248,3.3583527,-1.6183777
1611,A,3242147256697,-2.6612396,-11.055038,-1.5725403,-3.561142,-1.2845154,-2.6363373
1611,A,3242197610701,-1.5469818,-10.361404,-0.5844269,-1.3443298,0.47232056,-3.23201
1611,A,3242247964705,1.8186798,-12.481735,3.3071594,0.5505829,0.32774353,-1.9487152
1611,A,3242298318708,1.9617004,-12.316452,-0.8675995,-1.1014557,-1.7044373,-0.99768066
1611,A,3242348672712,0.9086304,-14.095322,-4.829132,-0.57466125,-1.6397858,-0.7479553
1611,A,3242399026716,-2.020691,-15.457153,4.5566864,0.5509949,-1.0423889,0.43148804
1611,A,3242449380720,-8.501053,-15.234802,-0.87924194,-0.32029724,-1.7288666,1.9139557
1611,A,3242499734724,-5.0076294,-9.549835,-7.8080597,-0.17126465,0.42897034,0.9901581
1611,A,3242550088728,1.3642426,-5.422989,3.2116852,1.2121124,2.9210968,-0.65960693
1611,A,3242600442732,-4.8157196,-2.9205017,2.3560486,-0.11639404,1.7649384,0.041931152
1611,A,3242650796736,-6.9813385,-1.0303192,4.2624207,-1.0069275,1.5061951,0.59724426
1611,A,3242701150740,-2.4504395,-8.44191,-6.2762756,-0.85650635,-0.001739502,0.9461212
1611,A,3242751504744,6.0177765,-17.091446,-19.753006,-0.18267822,-0.7906189,1.1643982
1611,A,3242801858747,0.25320435,-10.603882,-8.5,0.83457947,-2.6579895,1.1675262
1611,A,3242852212751,-6.1644135,-8.060532,0.0039367676,2.774475,-3.0044708,0.48731995
1611,A,3242902566755,-2.453476,-6.032028,-1.4308014,4.094269,2.457367,-0.39387512
1611,A,3242952920759,-5.3505554,-7.5110626,2.3477325,1.7894592,3.3361816,0.14678955
1611,A,3243003274763,-4.8429565,-9.989716,2.5051575,-0.8730469,-0.25291443,1.0581665
1611,A,3243053628767,-0.39341736,-7.5545197,2.8417053,-0.19923401,-1.3326416,0.76734924
1611,A,3243103982771,-0.23756409,-9.195282,3.4151459,0.47987366,2.809082,-0.6648102
1611,A,3243154336775,-2.1245728,-10.971832,1.1248627,-2.1952667,0.85139465,-1.8254852
1611,A,3243204690779,-3.0600128,-10.477814,-2.5891113,-3.6702118,-0.9521332,-2.916031
1611,A,3243255044783,-1.014801,-11.448044,-0.16668701,-0.40390015,1.1360321,-3.0693054
1611,A,3243305398787,2.2598267,-12.929657,3.4147491,-0.14299011,-0.2611847,-1.5819855
1611,A,3243355752790,1.6156158,-13.875183,-4.3305817,-1.0928497,-1.7133179,-0.9014435
1611,A,3243406106794,0.099365234,-14.009094,-2.295868,-0.2508545,-1.3684387,-0.421875
1611,A,3243456460798,-4.731369,-15.854111,7.4709167,0.756897,-1.1865234,0.82785034
1611,A,3243506814802,-11.921112,-13.913132,-7.3942566,-1.275177,-4.0900726,2.0558014
1611,A,3243557168806,-1.8511353,-8.398315,-3.247757,-0.12236023,-1.326416,0.04978943
1611,A,3243607522810,0.14830017,-4.8205414,3.0711517,0.7107544,0.46235657,-0.2921753
1611,A,3243657876814,-5.0094757,-2.2377777,3.0451813,-0.6904602,1.497879,0.12890625
1611,A,3243708230818,-5.52005,0.1789093,3.899826,-0.5048828,1.8484802,0.88345337
1611,A,3243758584822,6.5707703,-13.010635,5.158966,-0.63191223,0.3652954,1.2002716
1611,A,3243808938826,0.9957123,-12.011154,-8.447433,-0.4516449,-2.3043823,1.5574036
1611,A,3243859292830,-9.079163,-13.619629,-5.876587,1.7668762,-4.295807,0.8579254
1611,A,3243909646833,-6.803772,-7.166153,3.093872,3.6867218,-1.9596558,-0.31785583
1611,A,3243960000837,-4.2838287,-3.3096619,2.4958344,3.4140472,4.271164,-0.78952026
1611,A,3244010354841,-5.9735565,-11.239838,-0.75112915,0.4452362,2.4277802,0.5121155
1611,A,3244060708845,-1.5866089,-8.822739,0.7310791,-1.072937,-0.5848541,1.3289948
1611,A,3244111062849,0.15914917,-8.261871,2.4129639,0.28918457,-0.78248596,0.41571045
1611,A,3244161416853,-2.032898,-9.232086,2.4467316,-1.1409149,5.286804,-1.7861176
1611,A,3244211770857,-4.053314,-10.37558,1.8277435,-3.4108582,-0.8198395,-2.8305664
1611,A,3244262124861,-4.456787,-10.64563,-1.7967529,-2.4775696,0.59225464,-3.1126862
1611,A,3244312478865,0.7230377,-12.693481,2.798111,-0.24201965,0.8049164,-1.8220215
1611,A,3244362832869,3.8314056,-14.157364,4.5109406,-0.53492737,-0.9256592,-1.37883
1611,A,3244413186872,3.33049,-15.180237,-16.050095,-0.6785431,-2.1565094,-1.0164337
1611,A,3244463540876,-0.8284302,-15.438248,-1.5930328,0.70344543,-1.013855,-0.26423645
1611,A,3244513894880,-9.703812,-17.472107,13.725464,1.4253998,-0.96138,1.6696014
1611,A,3244564248884,-9.303787,-9.391998,-4.186081,-1.285675,-5.2399597,1.7655182
1611,A,3244614602888,2.755539,-8.060562,1.4218445,0.7154846,0.9147186,-0.9506531
1611,A,3244664956892,-3.9340668,-3.9716797,2.429245,0.43159485,0.10760498,0.017974854
1611,A,3244715310896,-7.0646515,-1.4633331,2.5628967,-1.8383636,2.047821,0.09336853
1611,A,3244765664900,-8.733765,-1.2125702,3.3888245,-2.0288696,-0.49334717,0.88708496
1611,A,3244816018904,13.499054,-18.380676,18.371902,0.084625244,0.52453613,0.32855225
1611,A,3244866372908,2.4098969,-7.9386597,-6.502884,0.9434204,-0.2328949,1.1219635
1611,A,3244916726912,-9.049973,-12.1757965,-3.5946198,1.0230103,-2.4026337,1.0947418
1611,A,3244967080915,-4.8719635,-6.2326508,-1.032959,3.6980286,-2.3686066,0.65963745
1611,A,3245017434919,-2.7920685,-1.1093597,3.6953888,2.449707,0.35139465,0.4256134
1611,A,3245067788923,-11.816895,-13.981262,4.076645,3.7486572,6.912079,-0.006652832
1611,A,3245118142927,-2.401764,-6.941971,-0.5810547,-1.624054,-0.50598145,0.88053894
1611,A,3245168496931,-0.804718,-7.938324,1.4838562,-0.24720764,-3.403244,0.05078125
1611,A,3245218850935,-2.4192657,-10.152252,3.1165009,-0.7807007,4.9114075,-1.5684357
1611,A,3245269204939,-2.0814362,-9.239258,-0.5321808,-3.4488525,-0.9202423,-2.353485
1611,A,3245319558943,-0.35411072,-11.429657,-8.987656,-2.8162384,-0.25061035,-3.1411896
1611,A,3245369912947,0.46166992,-11.617157,-2.221054,1.7133484,2.4489899,-1.9280853
1611,A,3245420266951,2.7572174,-12.897659,8.103699,-1.2052155,-1.3027954,-0.88171387
1611,A,3245470620955,0.3199463,-12.924591,-5.930954,-0.94981384,-1.8859558,-1.0081177
1611,A,3245520974958,-1.5536041,-14.455856,-0.4930725,0.37002563,-1.5982819,-0.12704468
1611,A,3245571328962,-6.960495,-16.025024,5.7965546,0.43911743,-1.3613892,1.367569
1611,A,3245621682966,-4.9615173,-10.172867,-12.227814,-1.0568695,-2.066269,1.921875
1611,A,3245672036970,3.920044,-7.327759,3.936493,1.9060974,4.508774,-0.7003174
1611,A,3245722390974,-4.546585,-3.5476837,1.093216,-0.10977173,0.65501404,-0.15757751
1611,A,3245772744978,-6.868469,-0.75964355,5.40036,-0.36958313,1.8528595,-0.021881104
1611,A,3245823098982,-6.3431244,-3.280075,-0.58818054,-1.0217285,0.56889343,0.7572479
1611,A,3245873452986,6.005142,-18.976181,-19.753006,-0.457016,0.09963989,1.0559692
1611,A,3245923806990,5.2124634,-15.015869,-14.395187,-0.19889832,-1.5132751,1.3480682
1611,A,3245974160994,-6.2701874,-7.501953,3.4203491,1.3058319,-3.466156,1.0563812
1611,A,3246024514997,-2.3344727,-9.776123,-5.460449,3.5559082,-2.4477386,0.035003662
1611,A,3246074869001,-4.9944153,-3.9599,2.6753693,3.3777466,3.676361,-0.35406494
1611,A,3246125223005,-7.8968353,-10.547714,2.4454803,1.7281189,5.3797455,0.26052856
1611,A,3246175577009,-2.7370148,-8.20726,0.5331421,-1.2489929,-0.77690125,1.2343597
1611,A,3246225931013,-0.2711792,-7.972824,2.5398102,0.25483704,-0.8019867,0.39483643
1611,A,3246276285017,-1.2532196,-9.716919,5.7157745,-0.07064819,0.8328552,-1.2071075
1611,A,3246326639021,-3.1236115,-10.082062,-5.018509,-2.7537994,0.49961853,-2.5354156
1611,A,3246376993025,-5.2245026,-12.007294,-13.023529,-2.1549225,0.10531616,-3.313797
1611,A,3246427347029,0.38180542,-11.56781,2.6230316,-0.80041504,1.5492401,-2.335373
1611,A,3246477701033,2.84523,-12.324585,3.9572906,-1.264267,-0.102493286,-1.09021
1611,A,3246528055037,1.2180176,-13.434082,-3.0284576,-0.8457031,-1.1486206,-1.077713
1611,A,3246578409040,-0.40426636,-14.814926,-9.428055,-0.1638794,-1.5739136,-0.28967285
1611,A,3246628763044,-7.398529,-16.556015,6.5890656,1.1633606,-0.99645996,1.0310516
1611,A,3246679117048,-9.652145,-12.466034,10.283142,1.7076569,-0.8410492,1.1267242
1611,A,3246729471052,-2.8951416,-7.0360107,0.7980194,0.6177368,-0.7091522,-0.19042969
1611,A,3246779825056,-4.5269165,-4.5599213,1.303482,0.3611908,-1.5313416,-0.13591003
1611,A,3246830179060,-6.27269,-1.4587555,4.5107574,0.067489624,0.22880554,0.065826416
1611,A,3246880533064,-7.7168884,-2.3697052,1.8603668,-1.3838806,1.056076,0.42903137
1611,A,3246930887068,-0.42463684,-11.126572,4.608032,-0.5657501,-0.33943176,0.92881775
1611,A,3246981241072,2.7721405,-13.096909,9.971954,0.12574768,-0.81362915,1.157608
1611,A,3247031595076,-8.7161255,-11.6698,4.7078247,1.1143188,-2.8595886,1.105896
1611,A,3247081949080,-8.34668,-13.0351715,-2.1542816,3.1105652,-2.096634,0.21246338
1611,A,3247132303083,-4.158066,-3.6974945,0.5462494,3.76799,2.373291,-0.4730072
1611,A,3247182657087,-5.865326,-7.671051,2.83667,1.4005737,3.4496613,0.041763306
1611,A,3247233011091,-5.147415,-10.727386,2.1898804,-1.2360382,0.49647522,0.88360596
1611,A,3247283365095,-0.045150757,-7.618927,3.3754272,0.028045654,-1.3091431,0.55926514
1611,A,3247333719099,-0.79122925,-9.406143,2.5706635,-0.6273041,4.0783234,-1.3737335
1611,A,3247384073103,-2.699707,-10.942917,2.5765533,-2.7083435,2.1128082,-2.9649963
1611,A,3247434427107,-3.8639832,-11.261139,0.29589844,-1.9785309,1.446228,-3.6229706
1611,A,3247484781111,-0.89364624,-11.899155,1.008667,-1.276535,1.5160828,-2.2032928
1611,A,3247535135115,2.730301,-12.623062,4.700775,-1.1001282,-0.31233215,-1.3128967
1611,A,3247585489119,3.018509,-14.490601,-9.665298,-1.1234283,-1.7960205,-1.0011292
1611,A,3247635843122,0.47395325,-16.95137,-6.042282,-0.09223938,-1.4883575,-0.072265625
1611,A,3247686197126,-9.301102,-18.796234,11.310486,1.5493774,-0.60253906,1.478775
1611,A,3247736551130,-10.041611,-12.24202,7.2763824,0.5883484,-3.2916412,1.3848724
1611,A,3247786905134,-4.6767273,-6.5840454,-0.59773254,-0.42045593,-2.33786,-0.059539795
1611,A,3247837259138,-4.5809937,-2.636322,2.767929,1.0595703,-1.0371552,-0.44473267
1611,A,3247887613142,-6.9934998,-0.40107727,3.7398224,-0.7578583,1.8973541,0.2697754
1611,A,3247937967146,-7.375992,-1.924469,3.818695,-1.1416321,-0.2837677,0.94241333
1611,A,3247988321150,5.3663177,-14.108719,11.592514,-0.49752808,-1.1480713,0.9348297
1611,A,3248038675154,-0.65319824,-10.651794,9.4605255,0.22918701,-0.70840454,0.8222656
1611,A,3248089029158,-13.623917,-8.631744,-4.3224335,1.3606262,-1.958725,0.72410583
1611,A,3248139383162,-8.318192,-11.297104,-2.8021088,3.4772186,0.7866211,-0.15318298
1611,A,3248189737165,-2.847992,-4.862335,1.1202087,2.669281,3.0272827,-0.22987366
1611,A,3248240091169,-6.0482635,-10.113785,3.590393,4.6554565,-0.7835541,0.25448608
1611,A,3248290445173,-3.1668243,-8.582733,2.5986328,-1.1178589,0.6419983,1.0182037
1611,A,3248340799177,-0.29403687,-6.196274,3.3973694,0.1365509,-0.40226746,0.687912
1611,A,3248391153181,-1.6104431,-10.112686,1.5651093,0.11830139,5.747345,-1.0830994
1611,A,3248441507185,-1.179779,-10.063721,2.958603,-3.3019714,-1.041275,-2.2483215
1611,A,3248491861189,-5.060562,-14.543045,-15.354462,-3.0088806,-1.1900787,-3.1665497
1611,A,3248542215193,-1.0404205,-12.284515,-1.6349792,1.0400543,1.0931091,-2.5525055
1611,A,3248592569197,3.1026611,-12.727722,3.8406677,-0.8230896,-1.3973999,-1.3388367
1611,A,3248642923201,4.812912,-12.562683,-15.872955,-1.1773529,-2.338379,-1.1662903
1611,A,3248693277205,1.6473541,-14.438126,-0.6757355,0.082962036,-1.9507599,-0.1612854
1611,A,3248743631208,-6.509033,-18.649963,11.560593,0.9455719,-0.30085754,1.3428497
1611,A,3248793985212,-8.002304,-12.587952,-11.710236,-4.8673096,-6.282089,3.4376068
1611,A,3248844339216,2.2463531,-8.499985,0.2819214,3.0709991,5.2594147,-1.0501099
1611,A,3248894693220,-2.7977753,-3.2010193,1.813324,1.1533813,0.93492126,-0.38186646
1611,A,3248945047224,-6.3360443,-1.191391,4.1624603,-1.6365356,1.638794,-0.020431519
1611,A,3248995401228,-8.625397,-0.23547363,4.3381195,-1.1923218,-0.86950684,0.5855713
1611,A,3249045755232,5.0202026,-18.255219,-18.334198,-0.27293396,-0.054336548,0.8224945
1611,A,3249096109236,7.310013,-15.797165,-14.33432,-0.10795593,-0.8365631,1.1748962
1611,A,3249146463240,-8.03154,-9.331436,2.3476563,0.575058,-3.3891296,1.0912933
1611,A,3249196817244,-2.8417053,-10.685104,3.3635864,2.9871826,-4.2246704,0.2546234
1611,A,3249247171247,-2.6635132,-1.074997,1.7860413,3.0236359,1.2116089,-0.6092682
1611,A,3249297525251,-9.512924,-13.087311,4.1094055,2.336441,6.0832825,0.03993225
1611,A,3249347879255,-2.830902,-6.314102,-0.55281067,-1.2852783,-0.473526,1.1905975
1611,A,3249398233259,-0.012481689,-6.185608,1.7281952,-0.52427673,-1.727768,0.99824524
1611,A,3249448587263,-1.5018463,-10.320618,6.8930817,1.1675415,0.8223572,-0.7477875
1611,A,3249498941267,-2.705017,-7.928894,6.1328278,-2.276474,2.1231995,-2.2639008
1611,A,3249549295271,-5.412964,-10.890015,-18.949036,-2.8087463,-1.6072235,-3.4501648
1611,A,3249599649275,-1.5821075,-11.036713,-0.016601563,0.17408752,2.3816528,-3.151245
1611,A,3249650003279,3.206314,-12.757172,4.8981476,-1.476532,-0.396698,-0.5487671
1611,A,3249700357283,1.58078,-13.19072,1.5072479,-0.72706604,-0.5497589,-1.1931
1611,A,3249750711287,2.0884552,-13.6406555,-16.121094,-0.38168335,-1.5436401,-0.49447632
1611,A,3249801065290,-4.554306,-17.493484,2.6916199,0.81700134,-0.8903351,0.63597107
1611,A,3249851419294,-14.793289,-17.721802,10.941391,1.956192,-0.34579468,1.7336578
1611,A,3249901773298,0.7171631,-5.714264,5.093521,1.5413208,0.8356323,-0.40177917
1611,A,3249952127302,-3.6942291,-5.3396454,-2.1827545,0.27505493,-0.7398834,-0.5553131
1611,A,3250002481306,-6.8089447,-1.2563171,4.073639,0.7312622,-0.7946472,-0.16726685
1611,A,3250052835310,-7.4701996,-0.3930359,1.5144043,-1.1918335,1.1347961,0.2754364
1611,A,3250103189314,-6.6084137,-5.5782623,2.3641815,-0.97084045,-0.16693115,1.0103455
1611,A,3250153543318,5.165024,-16.772827,10.3224945,0.1312561,-0.17982483,1.0505219
1611,A,3250203897322,-6.488693,-8.555908,7.15625,0.75639343,-1.9073944,1.1656036
1611,A,3250254251326,-9.723328,-16.069122,3.8605652,2.7403412,-2.9117432,0.73405457
1611,A,3250304605330,-5.473175,-3.8607025,1.0922852,3.4868317,0.7749634,0.2905426
1611,A,3250354959333,-5.313675,-5.5252533,2.9843597,2.2464447,3.8334503,0.25297546
1611,A,3250405313337,-6.2009125,-10.968689,1.0888062,1.1463318,3.2809143,0.7769623
1611,A,3250455667341,-0.7186432,-6.562195,1.8759308,-1.1534119,-1.5703125,0.4368286
1611,A,3250506021345,1.2654877,-9.325714,6.365982,-0.41073608,1.3630066,-1.3152313
1611,A,3250556375349,-1.1654663,-9.66629,1.6943359,-2.5097961,2.0627136,-2.6915283
1611,A,3250606729353,-1.2240295,-10.575867,-0.3139038,-2.3407593,-0.07270813,-3.2153473
1611,A,3250657083357,0.79789734,-13.569092,-13.160965,-0.3313141,2.0602417,-2.1485443
1611,A,3250707437361,1.780014,-12.232742,1.5697632,-1.3112183,0.67248535,-0.97758484
1611,A,3250757791365,0.3186798,-14.098633,-5.103363,-0.7311859,-0.3590393,-1.174469
1611,A,3250808145369,-2.3939667,-14.577026,-10.9405365,0.06716919,-1.092804,-0.18409729
1611,A,3250858499372,-8.553452,-16.04602,4.5171814,0.91944885,-1.6321716,1.3974457
1611,A,3250908853376,-9.208221,-11.410141,7.0453033,1.6695251,-0.09169006,0.98661804
1611,A,3250959207380,-1.5260925,-5.6300507,1.5751038,1.1613464,1.9514008,-0.72813416
1611,A,3251009561384,-4.305069,-4.264572,0.3658905,0.15740967,1.1158752,-0.2441864
1611,A,3251059915388,-6.126251,-1.0114441,3.3529663,-0.14215088,2.1269073,0.1949768
1611,A,3251110269392,-8.756165,-5.5677795,-7.303787,-0.52763367,1.4571838,1.0419312
1611,A,3251160623396,-4.2969055,-15.941971,-16.382553,-0.6217804,-0.551239,1.5399323
1611,A,3251210977400,-0.8952637,-13.570816,-2.6966248,-0.0662384,-3.4257965,1.447937
1611,A,3251261331404,-7.280304,-9.549133,0.80818176,2.4913788,-4.2200317,0.5765228
1611,A,3251311685408,-4.495224,-8.531601,-2.7259827,3.6399841,0.18174744,-0.45462036
1611,A,3251362039412,-6.02417,-6.416687,2.1658783,2.6088104,4.0202484,-0.32731628
1611,A,3251412393415,-4.7504425,-9.999252,0.35107422,-0.05378723,1.8451843,0.75660706
1611,A,3251462747419,-0.77194214,-7.9370575,1.550003,-0.61172485,-0.48947144,0.9429016
1611,A,3251513101423,1.2138062,-7.414688,5.6564026,0.81895447,2.2242737,-0.4333496
1611,A,3251563455427,-0.43470764,-8.591568,6.150421,-1.8783875,0.46426392,-1.6516418
1611,A,3251613809431,-4.905884,-10.040787,-6.640167,-3.5800018,-0.3939209,-3.1697845
1611,A,3251664163435,-3.0605774,-11.854706,-5.793976,-0.20478821,0.69970703,-3.244995
1611,A,3251714517147,2.177887,-12.962082,3.4884796,0.10066223,-0.91415405,-1.6877289
1611,A,3251764871151,1.6521606,-14.309265,-4.8826294,-0.8900604,-1.5075226,-1.1603394
1611,A,3251815225155,0.62428284,-13.726288,-1.4498596,-0.48905945,-1.8507233,-0.7243805
1611,A,3251865579159,-3.3510742,-15.705994,5.1383057,0.3894043,-1.3700867,0.31170654
1611,A,3251915933163,-11.562012,-14.085831,-4.507141,-1.2125244,-2.558731,2.2202759
1611,A,3251966287166,-3.0408783,-8.925415,-1.2219238,1.3941803,1.7745819,-0.09790039
1611,A,3252016641170,-0.7730713,-5.1057434,0.91056824,1.5991364,1.3672485,-0.55300903
1611,A,3252066995174,-5.287735,-1.973877,3.618332,0.17996216,2.3766022,-0.122665405
1611,A,3252117349178,-7.5017395,0.47964478,4.842453,-0.8079529,1.0063171,0.687912
1611,A,3252167703182,-1.8223419,-12.616196,-11.876221,-0.38809204,0.3120575,0.8468628
1611,A,3252218057186,3.208664,-16.143768,-19.753006,-0.06011963,0.32286072,1.2935486
1611,A,3252268411190,-4.177597,-8.139221,-1.2499695,-0.08467102,-1.9586487,1.6867828
1611,A,3252318765194,-7.1696625,-15.204666,-8.091354,2.4372406,-4.2323456,0.6790161
1611,A,3252369119198,-5.564148,-7.2925873,-0.649353,3.5865173,-0.8666382,-0.3787384
1611,A,3252419473202,-5.557373,-4.4521637,4.396759,3.2137604,7.0777435,-0.65878296
1611,A,3252469827205,-5.787857,-11.218521,-0.2315216,-0.3477173,2.0363312,0.818985
1611,A,3252520181209,-0.5744934,-7.4665985,0.28242493,-0.7523651,-0.86898804,1.1705322
1611,A,3252570535213,0.49423218,-8.774521,4.1236267,0.71006775,-0.38433838,-0.25952148
1611,A,3252620889217,-1.412323,-9.070236,1.3798676,-1.9231873,1.1519623,-1.8791962
1611,A,3252671243221,-5.3471375,-12.30014,-14.710129,-3.719223,-0.9759369,-3.2076263
1611,A,3252721597225,-2.680603,-11.569366,-4.2579956,-0.19075012,1.912857,-3.6074066
1611,A,3252771951229,2.4147797,-13.15834,3.5088348,-1.675003,0.4109497,-0.93862915
1611,A,3252822305233,2.228363,-12.649872,3.5693207,-0.96229553,0.0057373047,-1.3435364
1611,A,3252872659237,0.83158875,-13.490036,-12.660309,-0.5917969,-1.4793243,-0.6938629
1611,A,3252923013241,-3.5513916,-16.83812,-0.18536377,0.5352936,-0.84954834,0.41256714
1611,A,3252973367245,-14.352509,-18.005142,9.306015,1.4217224,-1.0111084,2.21492
1611,A,3253023721248,-3.007019,-6.988083,6.139618,2.0930176,2.2261047,-0.77360535
1611,A,3253074075252,-2.7630615,-4.860611,-2.1293945,0.12860107,-0.029144287,-0.21334839
1611,A,3253124429256,-6.3764496,-1.9317017,4.1519012,1.1286469,1.7633667,-0.46447754
1611,A,3253174783260,-7.401703,-0.7898407,1.3199158,0.01373291,0.23423767,0.68507385
1611,A,3253225137264,-8.9973755,-6.0630493,-15.584305,0.033676147,0.85809326,1.2000122
1611,A,3253275491268,6.1631317,-18.49121,-4.9761963,-0.43914795,-1.5058594,1.4744873
1611,A,3253325845272,-11.297958,-6.5360413,8.303253,1.1359711,-3.630722,1.1708832
1611,A,3253376199276,-3.794571,-18.8302,-3.428833,1.6847382,-3.1721191,0.75712585
1611,A,3253426553280,-7.0440063,-6.345749,4.386627,2.6842804,1.9515076,-0.42059326
1611,A,3253476907284,-6.5086365,-9.815674,1.0805206,3.2159271,4.3826294,-0.36320496
1611,A,3253527261288,-3.111435,-8.833771,-0.5319519,-0.19618225,1.829483,0.76039124
1611,A,3253577615291,-1.0820465,-7.5545197,0.88908386,-1.152832,-0.31632996,0.97618103
1611,A,3253627969295,0.5652466,-8.459991,3.4883728,0.40299988,-0.50675964,0.05104065
1611,A,3253678323299,-1.7387238,-8.824509,2.3055573,-1.2099304,6.6116486,-1.6730804
1611,A,3253728677303,-4.889328,-11.73877,0.57525635,-3.406952,-1.4885406,-2.2805634
1611,A,3253779031307,-4.025482,-10.529388,-3.1058655,-2.5995026,0.28622437,-3.39711
1611,A,3253829385311,1.7831879,-12.725845,3.055359,1.2835236,1.2583618,-1.883667
1611,A,3253879739315,2.8761597,-12.212952,3.7429962,-1.2046509,-1.3208008,-1.0340118
1611,A,3253930093319,1.8074951,-14.632492,-17.73442,-1.0062408,-2.4544983,-1.0306702
1611,A,3253980447323,0.37062073,-15.393204,1.9971313,0.66163635,-0.9573822,0.07524109
1611,A,3254030801327,-8.146179,-17.33844,6.923767,0.16596985,-1.2600555,1.7700043
1611,A,3254081155330,-5.2364807,-6.997574,-9.591827,-2.6385345,-3.8112946,1.930893
1611,A,3254131509334,3.4624481,-6.2293396,4.6526184,1.1404724,2.4209442,-0.55955505
1611,A,3254181863338,-4.0771637,-2.876175,3.7215118,0.45007324,1.1158752,-0.082214355
1611,A,3254232217342,-7.624878,-1.7341919,3.572235,0.16404724,1.4544678,0.7883148
1611,A,3254282571346,-4.6536255,-3.209259,5.495941,-1.6274414,0.169281,1.1446686
1611,A,3254332925350,12.769485,-18.171555,3.7449799,-0.3163452,-0.6346588,1.1799011
1611,A,3254383279354,4.56839,-10.704361,-15.786484,0.58273315,-2.6660156,1.2703705
1611,A,3254433633358,-5.4678497,-5.4319763,-1.7075958,2.4063416,-3.6400452,0.5248871
1611,A,3254483987362,-1.046524,-10.65152,-9.005127,3.5688019,0.85598755,-0.48583984
1611,A,3254534341366,-4.1618958,-5.096298,2.242447,2.1209564,3.402069,-0.23216248
1611,A,3254584695370,-5.399582,-10.198761,2.4542694,-1.1004333,1.2815247,0.8326874
1611,A,3254635049373,-0.91000366,-7.791153,2.6465607,-0.5122833,-1.632721,1.0052185
1611,A,3254685403377,0.39575195,-7.7678375,3.1112976,0.21783447,1.2430878,-0.5166168
1611,A,3254735757381,-2.2070313,-10.995117,4.117279,-2.5539398,2.7155762,-2.7528381
1611,A,3254786111385,-3.1853485,-10.402283,5.432312,-2.772995,-0.37669373,-3.4544067
1611,A,3254836465389,-2.1049347,-11.912506,-0.5202942,-1.0968323,1.1257935,-2.842682
1611,A,3254886819393,2.8696594,-13.38031,4.517044,-0.88623047,-0.2805786,-1.4454651
1611,A,3254937173397,3.704544,-14.328064,-3.7032166,-0.74806213,-0.84788513,-1.2426453
1611,A,3254987527401,0.7659302,-15.861969,-11.733215,-0.120391846,-1.3272705,-0.47187805
1611,A,3255037881405,-6.0202637,-18.465134,5.8363037,1.2481995,-0.84010315,1.0059357
1611,A,3255088235409,-12.794144,-15.38623,5.3779907,1.8110352,-0.8555298,1.3401794
1611,A,3255138589413,-7.301605,-7.0723267,-1.5341797,0.8283539,-0.23420715,-0.2915039
1611,A,3255188943416,-3.4089355,-4.092819,2.1638947,0.41125488,-0.15986633,-0.47364807
1611,A,3255239297420,-6.429352,-1.4986115,4.333908,0.29164124,0.81895447,0.24906921
1611,A,3255289651424,-7.768585,-1.8228912,0.81118774,-0.7244415,1.288559,0.9186554
1611,A,3255340005428,-1.3471375,-10.017105,3.2613983,-0.6940613,-0.44595337,1.4049377
1611,A,3255390359432,1.0168304,-14.418091,8.275085,-0.26367188,-2.9046326,1.3586884
1611,A,3255440713436,-7.279007,-12.04776,4.113571,2.0469208,-4.325943,0.64186096
1611,A,3255491067440,-4.490158,-10.530579,0.4971161,3.2854156,-0.76756287,-0.35560608
1611,A,3255541421444,-5.1742096,-4.9768066,2.180664,2.771759,4.5212555,-0.30644226
1611,A,3255591775448,-4.599106,-8.962524,0.7495117,0.2736206,2.6629486,0.7905426
1611,A,3255642129452,-0.83499146,-7.627533,1.8670349,-0.6174927,-0.8135834,0.9953613
1611,A,3255692483455,1.4031677,-7.045868,5.4294434,0.63597107,1.3143768,-0.2163086
1611,A,3255742837459,-0.9779968,-9.222595,5.2620087,-1.6844788,0.3945465,-1.8474274
1611,A,3255793191463,-5.919815,-10.110062,-8.635376,-3.426651,-1.1360779,-3.3391266
1611,A,3255843545467,-4.201065,-11.811523,-8.254074,-0.2581482,0.9638672,-3.3296509
1611,A,3255893899471,1.4151154,-12.201324,2.5591125,0.18257141,-0.3575592,-1.6547546
1611,A,3255944253475,3.2913513,-12.883652,-0.29626465,-0.89793396,-1.4397278,-1.0314178
1611,A,3255994607479,1.248169,-13.239151,-3.8851318,-0.39172363,-1.4195862,-0.72761536
1611,A,3256044961483,-5.3353424,-16.8488,2.7631073,0.49743652,-1.3447723,0.2813568
1611,A,3256095315487,-11.602661,-14.021637,-5.3957825,0.85531616,-2.067871,1.800003
1611,A,3256145669491,-1.8666229,-7.7474823,-2.5790863,1.7077789,2.0177002,0.049468994
1611,A,3256196023495,-0.42645264,-4.9436493,0.52960205,0.8713989,1.8429871,-0.5660248
1611,A,3256246377498,-5.534149,-2.0287628,2.8146973,0.7087097,1.5964661,-0.2503357
1611,A,3256296731502,-6.5483704,-0.61172485,3.9773712,-0.85054016,1.4242706,0.42419434
1611,A,3256347085506,-5.8070374,-12.606918,-11.788788,-0.9015198,0.7760925,0.90940857
1611,A,3256397439510,3.8315582,-19.283463,-19.753006,-0.06510925,-0.38360596,1.22435
1611,A,3256447793514,-3.7345886,-9.39328,-1.7200317,0.66838074,-3.023346,1.415329
1611,A,3256498147518,-4.4992523,-13.769409,-8.449463,3.223877,-4.0597687,0.6672516
1611,A,3256548501522,-4.2911224,-7.54335,-2.107483,3.4831085,1.2896881,-0.16795349
1611,A,3256598855526,-5.7839203,-5.713333,2.6586304,1.7302094,3.1082916,0.083358765
1611,A,3256649209530,-4.7501526,-9.379959,0.98405457,-1.276123,0.34320068,1.052597
1611,A,3256699563534,-0.30111694,-6.2518463,1.8190613,-0.27526855,-1.6919403,0.49639893
1611,A,3256749917538,1.5791626,-8.800354,6.9221497,1.296051,3.719864,-1.2488556
1611,A,3256800271541,-1.2943726,-10.447968,9.96991,-3.3834991,-1.537735,-2.0714874
1611,A,3256850625545,-2.0779572,-10.228394,-7.149399,-3.3434143,-0.27934265,-3.4501953
1611,A,3256900979549,-0.26631165,-11.756546,-0.38708496,0.9510956,1.5999146,-2.673172
1611,A,3256951333553,2.58313,-12.265167,3.9972382,-0.82398987,-1.868103,-1.1604309
1611,A,3257001687557,1.7474823,-13.67688,-4.8831024,-1.7049866,-2.6513824,-0.96635437
1611,A,3257052041561,0.046936035,-15.508362,1.9631653,-0.36946106,-2.33667,-0.3078003
1611,A,3257102395565,-7.712387,-18.767029,11.14119,0.8823242,-1.2286835,0.9499054
1611,A,3257152749569,-9.883804,-12.372345,-13.376114,-0.6461487,-0.67707825,1.6179657
1611,A,3257203103573,3.975998,-8.195038,0.055633545,-0.8881073,-2.4031372,-0.5591278
1611,A,3257253457577,-2.4994965,-3.0154266,3.5070496,1.1546936,-0.65567017,0.2415924
1611,A,3257303811580,-6.094269,-1.5225525,4.3780823,-1.5199432,0.8700104,0.22140503
1611,A,3257354165584,-4.871582,0.72317505,6.0328827,-0.5186615,1.1958923,0.54237366
1611,A,3257404519588,8.629822,-17.330383,-17.128845,1.153244,2.4349976,1.7947998
1611,A,3257454873592,-3.0733185,-8.732849,-3.4759827,0.7456665,-0.42315674,1.7164612
1611,A,3257505227596,-7.027191,-5.8743286,6.78598,1.0095825,-2.689392,1.4641876
1611,A,3257555581600,-2.4419708,-5.1359253,0.73646545,2.84404,-2.8709412,0.6675415
1611,A,3257605935604,-5.3689575,-1.4572296,5.278946,2.464447,0.48814392,-0.11856079
1611,A,3257656289608,-7.45932,-11.271484,1.9328918,2.616806,5.4867554,-0.43943787
1611,A,3257706643612,-3.6531525,-11.248642,-1.6236572,-0.8117981,1.2249451,0.7326813
1611,A,3257756997616,0.60183716,-6.258621,0.045211792,-0.23913574,-2.6643982,0.24104309
1611,A,3257807351620,0.79927063,-8.171707,5.05542,-1.3862915,4.526108,-1.4552002
1611,A,3257857705623,-2.1385956,-8.455215,5.2994537,-3.365509,-0.6427002,-2.7930908
1611,A,3257908059627,-3.0175476,-11.164719,-1.1202545,-2.9674683,-0.2644348,-3.8963776
1611,A,3257958413631,-0.8891144,-11.07753,-5.123184,1.2479095,2.1747437,-2.1849365
1611,A,3258008767635,1.9930878,-13.902939,5.396057,-1.1902924,-1.594635,-0.76608276
1611,A,3258059121639,0.90586853,-12.738525,-3.9167328,-0.9505768,-2.4694672,-0.7903137
1611,A,3258109475643,-0.9405823,-14.436356,-1.6319122,0.42051697,-1.5002136,0.009353638
1611,A,3258159829647,-9.226852,-18.605057,9.037048,-0.15647888,-2.0933228,1.5133362
1611,A,3258210183651,-7.3644257,-8.076828,-11.349518,-3.3729248,-5.131119,2.2514038
1611,A,3258260537655,4.0016174,-5.5359344,4.962799,0.55441284,-0.96562195,-0.9556732
1611,A,3258310891659,-2.5960693,-2.5420227,2.9744873,1.7064667,0.49061584,-0.11833191
1611,A,3258361245663,-5.3759155,-0.45220947,5.1250763,-0.8751526,1.7636719,0.4908142
1611,A,3258411599666,-2.1199646,-2.240326,7.211731,-0.50546265,0.47105408,0.7442627
1611,A,3258461953670,9.295578,-17.18039,2.7226105,0.1774292,0.81062317,1.0055542
1611,A,3258512307674,-6.86026,-5.1230316,-10.38269,0.23033142,-1.2856598,1.3506622
1611,A,3258562661678,-10.338867,-4.962845,0.9947357,1.7122803,-3.294464,1.1096802
1611,A,3258613015682,-1.5325928,-9.662781,-1.5614166,3.6170654,-1.7106781,0.25021362
1611,A,3258663369686,-5.109894,-4.2498627,3.5877838,3.1834106,3.9969025,-0.17608643
1611,A,3258713723690,-6.679077,-9.651382,2.122406,1.9450073,5.4607697,0.5310669
1611,A,3258764077694,-3.0260468,-9.7499695,0.2836609,-1.1670532,-0.3157959,1.1190338
1611,A,3258814431698,0.2324524,-7.3772125,2.79068,-0.113357544,-0.43136597,0.17408752
1611,A,3258864785702,0.06022644,-8.977631,4.4501495,-0.98342896,2.4255676,-1.7193756
1611,A,3258915139705,-1.8947754,-8.754288,-4.3651276,-3.5585632,-0.99790955,-2.8674927
1611,A,3258965493709,-3.010788,-12.497986,-12.649063,-1.381607,0.6984253,-3.5655365
1611,A,3259015847713,0.55911255,-12.904816,0.23968506,1.2561493,0.2610016,-2.1183167
1611,A,3259066201717,2.78833,-13.143585,0.51530457,-1.2227478,-1.9893188,-0.9306183
1611,A,3259116555721,1.3363953,-13.347137,-3.8453064,-0.86535645,-2.2731018,-0.7970276
1611,A,3259166909725,-2.1484833,-16.282257,3.9800415,0.35440063,-1.4130249,0.23995972
1611,A,3259217263729,-7.947113,-17.198029,-0.6931,-1.3532104,-1.9407959,1.7947388
1611,A,3259267617733,-6.5169373,-10.311356,-9.5785675,-2.3848114,-0.30256653,1.1416626
1611,A,3259317971737,-0.39953613,-4.851059,2.8976593,1.1208496,3.0761566,-0.79556274
1611,A,3259368325741,-4.223404,-1.7661133,3.3567963,-0.0118255615,0.17048645,-0.028121948
1611,A,3259418679745,-7.213684,0.33543396,5.165085,-0.9924011,0.39712524,0.27626038
1611,A,3259469033748,-0.8219757,-7.2677155,-4.806259,-0.18167114,0.88768005,0.94255066
1611,A,3259519387752,6.883484,-16.89447,-19.753006,0.06150818,0.4638977,1.4153442
1611,A,3259569741756,-2.539505,-10.978134,-9.40155,0.7645569,-2.6055298,1.3922577
1611,A,3259620095760,-7.6168976,-7.8854065,5.9359436,2.7137604,-4.386673,1.0114594
1611,A,3259670449764,-2.905838,-4.5106354,4.420532,3.2833557,1.5800934,-0.14234924
1611,A,3259720803768,-4.8147125,-4.2371674,1.742218,1.3524475,3.618988,-0.0029907227
1611,A,3259771157772,-6.769287,-9.772736,1.1120758,-0.34318542,0.18457031,0.9056854
1611,A,3259821511776,-2.0982056,-8.109497,0.58862305,-0.35583496,0.020050049,0.6514282
1611,A,3259871865780,0.9412384,-8.696213,4.5637054,0.33190918,1.1318359,-0.45420837
1611,A,3259922219784,-0.24542236,-10.772415,2.4103394,-1.6034698,0.039245605,-1.7174835
1611,A,3259972573788,-2.7235413,-10.14299,-2.7316284,-3.2619324,-0.8025055,-2.9354095
1611,A,3260022927791,-0.90037537,-11.210922,0.29618835,-0.3578949,0.71591187,-2.996048
1611,A,3260073281795,2.0664215,-12.599945,1.7208252,0.19218445,-0.50772095,-1.6811676
1611,A,3260123635799,0.7176819,-13.34816,-2.2304993,-1.088028,-1.9039917,-1.069046
1611,A,3260173989803,-0.05078125,-13.251816,-2.159851,-0.3307495,-1.7447052,-0.5961151
1611,A,3260224343807,-2.6891937,-14.278687,3.614273,0.6391144,-0.92271423,0.6508484
1611,A,3260274697811,-9.128586,-14.713913,-4.138397,-0.3995819,-2.7074585,2.368805
1611,A,3260325051815,-3.2435303,-10.834412,-1.8558044,1.2284698,2.1897583,0.30937195
1611,A,3260375405819,-0.3428192,-5.496048,2.9090881,1.0205994,2.0810242,-0.39822388
1611,A,3260425759823,-4.420624,-1.7654877,3.0664368,2.5144806,-3.6631622,0.21244812
1611,A,3260476113827,-7.0921936,-0.48223877,3.187439,0.11526489,-2.0258331,0.9421692
1611,A,3260526467830,-5.3817596,-12.60614,-11.851334,-1.3204651,-2.1307068,0.70170593
1611,A,3260576821834,5.240265,-18.927414,-17.029251,-0.6996765,0.36003113,0.6687012
1611,A,3260627175838,0.013809204,-7.731247,0.3251953,0.9148865,0.67671204,0.6844635
1611,A,3260677529842,-10.679291,-13.643082,-1.187561,2.932312,-0.4312439,0.36218262
1611,A,3260727883846,-4.7918396,-7.6468353,-3.7438965,3.0055847,-0.28067017,0.34059143
1611,A,3260778237850,-1.0506897,-0.13990784,1.524292,4.1184387,2.7140045,0.09062195
1611,A,3260828591854,-4.6913605,-11.292023,6.005768,-0.76187134,2.4390259,0.78001404
1611,A,3260878945858,-2.88237,-10.345581,3.2964325,-0.7036743,-0.6294708,0.92536926
1611,A,3260929299862,-1.1100006,-5.59729,3.2394104,1.8058014,2.5707855,-0.42538452
1611,A,3260979653866,0.023040771,-10.107162,4.43808,-2.9386292,-1.7003174,-1.7266083
1611,A,3261030007870,-4.164871,-12.595718,-13.866104,-2.9569702,-0.42842102,-3.6939697
1611,A,3261080361873,-1.9353638,-12.34079,-4.154846,1.0996399,0.64889526,-3.0046844
1611,A,3261130715877,2.542801,-12.35498,4.175522,-0.55197144,-1.4519806,-1.1618042
1611,A,3261181069881,6.1605377,-14.399704,-7.604904,-1.307785,-2.3934479,-0.9476166
1611,A,3261231423885,3.3282928,-14.865631,-1.3872375,-0.6599426,-2.3356934,-0.30081177
1611,A,3261281777889,-5.6375885,-18.537521,10.147476,0.63816833,-0.9538727,0.7788086
1611,A,3261332131893,-10.028763,-12.290619,-12.014923,-4.1506805,-4.677994,2.9689026
1611,A,3261382485897,2.9386292,-6.9387207,-0.6743469,1.6822815,2.6608734,-0.660553
1611,A,3261432839901,-2.0833282,-3.7299042,0.914917,1.1124268,0.7120514,-0.39448547
1611,A,3261483193905,-5.5914,-0.3740692,6.117798,-1.4208527,1.6075287,0.22097778
1611,A,3261533547909,-7.777481,1.0339508,5.937149,-0.88301086,-0.011947632,0.70874023
1611,A,3261583901913,4.641815,-17.150925,-16.975204,0.18037415,0.7956238,0.9905243
1611,A,3261634255916,7.194214,-12.428345,-19.753006,-0.056869507,-1.183075,1.6035461
1611,A,3261684609920,-6.462921,-6.8406525,3.7895508,1.7520905,-5.429352,1.395874
1611,A,3261734944288,-3.4579468,-9.288193,2.754364,3.381134,-3.631836,0.19966125
1611,A,3261785298292,-3.024063,-1.4668274,2.8271332,2.6905823,6.5208893,-1.2438507
1611,A,3261835652296,-7.83342,-10.183777,2.9818115,0.0037384033,-0.05067444,0.98773193
1611,A,3261886006300,-3.004593,-8.654526,-1.6030426,-0.15376282,-0.5103607,1.1250916
1611,A,3261936360304,0.7548828,-7.353485,1.431015,0.2810669,1.1973114,0.46646118
1611,A,3261986714308,0.046920776,-8.428497,7.844879,-2.0128021,3.3773499,-1.3437195
1611,A,3262037068312,-2.9253693,-8.848206,-1.8329773,-3.2304077,-1.2791138,-2.3962097
1611,A,3262087422316,-3.906021,-9.343826,-1.701416,-2.823639,0.20979309,-3.3963165
1611,A,3262137776319,-0.72465515,-13.663849,1.2938843,0.73431396,0.4983368,-2.0248413
1611,A,3262188130323,4.0733795,-14.251251,1.3925781,-0.2230835,-2.763855,-1.3045044
1611,A,3262238484327,3.2384644,-14.041367,-13.145828,-1.0534058,-2.5135345,-1.1524353
1611,A,3262288838331,-1.2120972,-15.043533,1.3372955,-0.22631836,-2.888382,-0.3144226
1611,A,3262339192335,-9.459,-18.24762,10.929642,0.50930786,-2.0293732,1.0755005
1611,A,3262389546339,-6.144638,-9.655731,-7.9850464,-3.0881195,-4.9844513,2.0222015
1611,A,3262439900343,4.3832703,-7.088928,3.9018707,2.3787994,3.0990906,-0.9948578
1611,A,3262490254347,-4.5215454,-3.0538788,2.600006,-0.33039856,0.39170837,-0.15756226
1611,A,3262540608351,-8.209976,-1.0204773,6.386841,-0.9262848,1.826004,-0.45335388
1611,A,3262590962355,-6.8101654,-2.477127,2.4414215,-2.3179169,-1.2770844,0.80708313
1611,A,3262641316359,6.448288,-18.675507,-12.403519,-0.0038909912,-0.36515808,0.7064209
1611,A,3262691670362,4.1327667,-13.36441,-12.0278015,1.6169434,-1.1439056,1.0246277
1611,A,3262742024366,-4.6493073,-8.809021,2.8616333,2.5123444,-2.9081573,0.7832947
1611,A,3262792378370,-7.7159576,-11.399719,-3.8161316,3.384552,-1.3424988,0.7786255
1611,A,3262842732374,-5.3579407,-4.3846893,3.8867798,2.554718,1.5893707,0.2400055
1611,A,3262893086378,-7.638489,-10.598099,5.0139923,-0.32315063,1.8380585,0.5769806
1611,A,3262943440382,-1.782959,-7.882324,0.64538574,0.679718,0.678833,0.29452515
1611,A,3262993794386,1.2537231,-5.207138,3.6843414,-1.427597,1.760086,-0.21800232
1611,A,3263044148390,-0.12944031,-9.50206,-2.6622925,-2.7901611,0.047409058,-1.5249023
1611,A,3263094502394,-6.7270203,-11.989822,-13.502335,-2.9336395,-0.42611694,-2.7583466
1611,A,3263144856398,-1.1293945,-10.402618,4.8958893,-1.8437042,0.20082092,-1.9609528
1611,A,3263195210402,0.9330597,-14.32428,2.0605164,-0.77308655,0.45640564,-1.546875
1611,A,3263245564405,0.7659912,-16.125092,-3.625351,-1.1728821,-1.8944092,-1.480423
1611,A,3263295918409,1.9351044,-15.727371,-4.7857513,-1.0891571,-2.464325,-0.9564209
1611,A,3263346272413,-6.049835,-16.771133,4.0900574,0.19392395,-1.5236664,0.07019043
1611,A,3263396626417,-9.784897,-13.245117,7.911255,0.12425232,-2.089035,1.0221863
1611,A,3263446980421,-3.2284393,-9.257355,-1.930893,-0.21417236,-2.7672424,0.52996826
1611,A,3263497334425,2.451004,-6.2595215,-0.23127747,0.6527405,-0.46795654,0.13418579
1611,A,3263547688429,-4.2307434,-1.9994965,1.601471,0.7135925,1.8181305,0.2632141
1611,A,3263598042433,-7.646042,-2.7395782,2.3871613,-0.34901428,2.11911,0.6236725
1611,A,3263648396437,-0.91319275,-8.464951,4.1233826,-0.11483765,0.3251648,1.1322632
1611,A,3263698750441,7.5073547,-14.992035,3.9894562,-0.014297485,-0.72128296,1.5145264
1611,A,3263749104444,-4.295532,-7.790756,0.55830383,0.9716797,-3.174118,1.6158905
1611,A,3263799458448,-6.5490417,-9.145096,4.213791,2.6561432,-2.7486877,0.30223083
1611,A,3263849812452,-3.4360962,-6.276352,2.5202637,2.5000458,1.4412537,-0.7489929
1611,A,3263900166456,-4.1710052,-6.322296,2.489212,1.3495789,1.9064941,0.008911133
1611,A,3263950520460,-4.277878,-12.19104,1.5435333,0.13415527,0.0995636,0.67437744
1611,A,3264000874464,0.5623779,-7.617401,0.73916626,0.60849,1.0834656,0.12184143
1611,A,3264051228468,0.49658203,-6.5030518,2.1907196,-0.8239746,0.63731384,-0.19573975
1611,A,3264101582472,-2.744522,-8.899551,3.247116,-2.8756866,0.23426819,-1.3044128
1611,A,3264151936476,-3.7015839,-9.291122,0.22444153,-3.245346,0.050064087,-2.3593292
1611,A,3264202290480,-0.35473633,-10.612518,1.7517548,-1.1046448,0.16392517,-2.3424835
1611,A,3264252644484,1.072937,-13.215698,2.1178284,-0.11300659,0.32704163,-1.6161041
1611,A,3264302998487,0.56791687,-14.953033,-2.2106628,-0.8738251,-0.53396606,-1.3321686
1611,A,3264353352491,-0.036712646,-13.713852,-2.1440277,-0.8701019,-1.8951569,-0.9292755
1611,A,3264403706495,-4.4508057,-14.549164,1.8703003,0.07096863,-1.4981995,0.038909912
1611,A,3264454060499,-7.3410645,-13.761383,1.5133209,1.2121582,-1.0737,1.4987183
1611,A,3264504414503,-3.8549194,-9.351715,2.1866608,2.2182465,0.67663574,-0.02130127
1611,A,3264554768507,-2.798233,-5.9121857,0.839859,1.1130524,0.5950012,-0.7660217
1611,A,3264605122511,-4.7373962,-2.9110565,2.1209412,-0.07041931,1.5355988,-0.1401825
1611,A,3264655476515,-6.826889,-0.36808777,2.6433868,-0.09211731,2.5925598,0.4861908
1611,A,3264705830519,-8.127167,-4.977829,-9.733673,-0.2617798,1.8576202,1.3788452
1611,A,3264756184523,-1.1425781,-15.152466,-7.0467224,-0.37138367,-1.7982941,2.0020447
1611,A,3264806538527,-6.3155212,-14.091415,3.6991577,1.1027985,-5.3826904,1.4240723
1611,A,3264856892530,-8.275238,-7.466812,4.0756226,2.0664368,-3.081726,0.45010376
1611,A,3264907246534,-4.9490356,-3.3939514,3.2153473,2.1286469,2.3235931,-0.4494171
1611,A,3264957600538,-6.022278,-11.582626,-0.28564453,3.6193695,3.3598175,-0.17185974
1611,A,3265007954542,-2.019333,-9.922607,-0.57507324,0.40490723,1.0634003,0.78375244
1611,A,3265058308546,0.49331665,-6.7604523,2.4317932,-0.5397644,0.33688354,0.7655945
1611,A,3265108662550,0.9052887,-8.374771,3.117813,0.4888916,-0.08457947,0.24420166
1611,A,3265159016554,-0.64245605,-8.574356,2.0738068,-2.2373505,1.5498047,-0.8586273
1611,A,3265209370558,-6.8890076,-10.226868,-13.525467,-2.724945,0.5021057,-2.3188019
1611,A,3265259724562,-4.279892,-9.56044,-3.8723145,-2.7365723,0.054092407,-3.5947418
1611,A,3265310078566,0.503479,-11.788559,3.4187164,-0.36506653,0.23069763,-2.4229736
1611,A,3265360432569,1.4022369,-12.62117,4.692627,-0.49441528,-1.1511841,-1.3503265
1611,A,3265410786573,1.5178223,-13.321075,-6.6841125,-0.9647217,-1.0745239,-1.103241
1611,A,3265461140577,-0.92012024,-14.055069,-1.6498413,-0.07185364,-1.3597717,-0.3529358
1611,A,3265511494581,-8.736832,-18.256653,6.5696716,0.79737854,-0.17129517,1.2658386
1611,A,3265561848585,-9.3276825,-12.44252,-4.085556,-3.4985657,-3.4934082,2.8227234
1611,A,3265612202589,-1.9071045,-7.878845,-1.2411499,0.9936676,3.5672455,-0.4195099
1611,A,3265662556593,-4.3356934,-2.9086761,0.70851135,0.7481842,0.3453064,-0.63256836
1611,A,3265712910597,-5.7961884,-0.2932434,3.7316895,-1.284195,1.6393433,0.28692627
1611,A,3265763264601,-6.671173,0.25164795,2.8797302,-0.6839142,2.2262878,0.84165955
1611,A,3265813618605,6.2249603,-16.875504,-16.899307,-0.634552,0.9778595,1.3574829
1611,A,3265863972609,7.793579,-15.506561,-19.753006,-0.32762146,-1.4233398,1.408905
1611,A,3265914326612,-11.430405,-6.2096863,0.3573761,1.6444092,-3.9290924,0.7483978
1611,A,3265964680616,-5.5243073,-7.041382,7.274597,4.2090454,-2.4019775,-0.030136108
1611,A,3266015034620,-5.488312,-6.331497,3.0527344,2.6434631,0.88371277,-0.44395447
1611,A,3266065388624,-4.3681335,-10.124069,0.32618713,-0.195755,3.35437,0.20150757
1611,A,3266115742628,-1.6185913,-8.181061,0.78097534,-2.0979004,-1.6070404,1.2978973
1611,A,3266166096632,-0.5076599,-5.2145844,2.1377106,0.5394592,-2.2136383,0.5541229
1611,A,3266216450636,-3.0913544,-11.019974,5.2974396,0.26722717,7.360733,-1.7986755
1611,A,3266266804640,-2.9118347,-10.148071,9.748901,-4.058304,-3.2212067,-2.6302032
1611,A,3266317158644,-4.1544495,-11.0924225,-4.043762,-2.4048462,2.2432861,-4.1121674
1611,A,3266367512648,2.0941467,-11.632202,3.4999847,1.968811,-2.442459,-2.3931885
1611,A,3266417866652,4.112625,-13.543869,4.9170685,-1.3121948,-1.5525208,-0.70295715
1611,A,3266468220655,5.041458,-13.9566345,-19.603897,-1.1314697,-2.4920197,-0.73680115
1611,A,3266518574659,-0.12947083,-17.183762,5.4214935,0.4028778,-1.0388489,0.4455719
1611,A,3266568928663,-11.395187,-19.03334,13.681366,0.7270355,-0.9449768,1.7007446
1611,A,3266619282667,-10.617523,-9.241409,-16.579315,-1.5697479,-5.63562,1.3752747
1611,A,3266669636671,3.6273193,-4.535568,4.370758,-0.14730835,-1.2511749,-0.782547
1611,A,3266719990675,-2.1407166,-1.1608887,2.0526886,1.2175598,-0.27033997,-0.059127808
1611,A,3266770344679,-7.833542,-1.704422,3.0345001,-1.247879,0.64027405,0.48883057
1611,A,3266820698683,-3.275177,-2.9743805,6.438675,-0.22486877,1.4443054,0.9281616
1611,A,3266871052687,11.1280365,-18.3266,8.358826,0.5373688,0.6882019,1.1683197
1611,A,3266921406691,-6.0694275,-9.043869,-2.2471771,0.7476959,-1.1468658,1.4653473
1611,A,3266971760694,-10.854889,-12.473953,-3.5615997,1.7086487,-3.315155,1.2302704
1611,A,3267022114698,-3.7365417,-3.3176727,4.4017944,3.805313,-1.811966,0.5255585
1611,A,3267072468702,-6.0669556,-5.1918488,3.0705872,2.988037,3.0238495,-0.1816101
1611,A,3267122822706,-6.8513947,-9.1732025,0.6460266,1.6447296,4.400955,-0.11280823
1611,A,3267173176710,-2.3632202,-8.64772,0.3643036,-1.3612366,-1.0498657,0.8546295
1611,A,3267223530714,-0.4219818,-9.380661,2.1959534,0.795578,-0.029190063,-0.29563904
1611,A,3267273884718,-1.2862854,-11.294189,4.6174927,-0.33277893,3.3238373,-1.3694458
1611,A,3267324238722,0.39649963,-10.99646,4.2639008,-3.6195374,-1.6096344,-2.1995697
1611,A,3267374592726,-6.5346985,-12.300873,-15.527832,-1.8921051,0.092285156,-3.3763885
1611,A,3267424946730,0.9062958,-11.611542,1.446167,0.44610596,1.9780884,-2.422638
1611,A,3267475300734,1.2999268,-11.910141,1.8813477,-1.5198517,-0.14642334,-1.1503448
1611,A,3267525654737,-0.4159851,-14.084244,-5.7724,-1.4092102,-1.8178406,-1.0314636
1611,A,3267576008741,0.08299255,-14.30249,0.82936096,-0.35580444,-1.8333588,-0.11010742
1611,A,3267626362745,-7.48703,-18.648071,5.6735687,0.27326965,-1.1256409,1.5849457
1611,A,3267676716749,-12.422684,-15.90239,10.113663,1.2869415,-0.42988586,1.3074493
1611,A,3267727070753,-3.9730988,-6.040802,1.1357269,2.4578247,1.7436829,-1.1622162
1611,A,3267777424757,-4.727661,-1.9239349,1.423706,-0.10925293,0.3968811,0.04446411
1611,A,3267827778761,-7.397934,0.19630432,4.943466,-0.6983032,1.4403076,0.624527
1611,A,3267878132765,-10.574844,-6.0887146,-4.4568634,-0.43115234,0.9791565,1.1003265
1611,A,3267928486769,-9.269974,-19.386353,-14.096359,-0.29736328,-0.20857239,1.1871185
1611,A,3267978840773,-2.6053162,-15.924576,-0.52453613,0.87431335,-2.621582,0.9076843
1611,A,3268029194777,-8.954025,-8.601883,5.6099854,2.6220093,-3.3385468,0.37417603
1611,A,3268079548780,-3.535843,-5.4939423,5.612076,2.9720154,0.067230225,-0.049224854
1611,A,3268129902784,-4.3767242,-6.6664734,1.7073822,3.328247,4.327896,-0.39372253
1611,A,3268180256788,-3.5246582,-10.49614,0.7877197,1.3289337,3.250122,0.36679077
1611,A,3268230610792,-1.019043,-7.6674194,1.9509277,-0.9678192,-0.7812958,1.1482697
1611,A,3268280964796,-1.7144928,-8.229507,2.2277222,0.17707825,0.17245483,-0.08291626
1611,A,3268331318800,-1.7993164,-8.336197,2.5956116,-1.4953461,0.7720032,-1.8651886
1611,A,3268381672804,-5.4310455,-10.408005,-7.5610046,-3.097702,-0.66889954,-3.1609192
1611,A,3268432026808,-5.8394012,-12.780746,-11.422638,-0.43333435,0.5359955,-3.0328827
1611,A,3268482380812,1.1983643,-12.389206,1.421341,0.07046509,-0.45635986,-1.7230377
1611,A,3268532734816,3.582428,-13.664215,0.8536377,-1.3760071,-1.9025574,-1.1183624
1611,A,3268583088819,1.2434082,-14.951691,-2.8416748,-0.35101318,-1.6171722,-0.8125305
1611,A,3268633442823,-4.9813232,-16.417572,2.8892517,0.6120758,-0.8326874,0.5116272
1611,A,3268683796827,-9.47702,-14.584152,-3.2574615,-0.9710541,-2.719284,2.324463
1611,A,3268734150831,-3.2405548,-9.083893,-4.4918365,0.050231934,1.1075592,0.89663696
1611,A,3268784504835,-0.70350647,-4.2456055,2.428238,0.52033997,2.3347626,-0.31323242
1611,A,3268834858839,-6.66008,-2.4269867,3.850769,0.47080994,0.7884674,-0.1179657
1611,A,3268885212843,-8.575592,-1.560852,4.3711243,-0.7913666,0.77207947,0.37001038
1611,A,3268935566847,1.0369568,-11.264938,-8.851059,-0.80944824,0.5479431,0.9655762
1611,A,3268985920851,9.121109,-18.023743,-19.191757,-0.39622498,-1.1573334,1.2028351
1611,A,3269036274855,-0.22270203,-10.182785,-4.6127777,0.30264282,-3.3824463,1.078476
1611,A,3269086628859,-6.4684906,-12.12619,-0.47972107,2.7153625,-3.043991,0.30818176
1611,A,3269136982862,-4.033905,-6.813675,-0.43147278,3.3022919,0.58410645,-0.55336
1611,A,3269187336866,-4.7073975,-5.531021,2.4463654,2.296463,5.1526794,-0.19366455
1611,A,3269237690870,-3.9595642,-9.64505,1.5865326,-1.0001831,1.249176,1.2045288
1611,A,3269288044874,-0.5391693,-6.620056,2.1638947,0.3222046,-0.6787262,1.0658875
1611,A,3269338398878,-0.4624176,-7.502487,5.0461426,-1.5354156,1.6011047,-1.9280548
1611,A,3269388752882,0.19645691,-8.635681,6.283539,-3.4728394,-1.343338,-4.0427246
1611,A,3269439106886,-3.9642181,-12.197433,-11.843735,-0.63609314,1.0117493,-3.538391
1611,A,3269489460890,-0.23519897,-12.712814,-1.8386078,-1.2746735,0.42922974,-1.1943359
1611,A,3269539814894,4.102951,-14.208771,3.9820404,-0.70773315,-0.81188965,-0.799057
1611,A,3269590168898,1.9693298,-14.773132,-10.460846,-0.8727417,-2.4309082,-0.48143005
1611,A,3269640522902,-1.9091034,-18.205719,2.4095917,0.2253418,-0.5231476,0.30451965
1611,A,3269690876905,-11.363266,-17.90239,7.0910034,1.8181,-0.4888153,1.2785339
1611,A,3269741230909,-11.526764,-8.113144,3.2960815,2.4641113,2.9353333,-0.5238037
1611,A,3269791584913,1.6298523,-4.2579803,3.090561,-0.021499634,0.9514923,-0.18489075
1611,A,3269841938917,-2.1052246,-2.5169067,4.950943,2.9052887,-4.059601,0.33059692
1611,A,3269892292921,-6.3038635,-0.053085327,4.081314,-2.236145,0.17427063,0.93907166
1611,A,3269942646925,-7.8420563,-4.4174805,-5.490509,-0.81788635,-0.6531677,1.472229
1611,A,3269993000929,7.2604065,-16.918152,-3.2329712,0.8861084,-0.7857208,1.2784424
1611,A,3270043354933,-3.1595306,-5.8197937,8.562881,1.2664032,-2.8219604,1.5039215
1611,A,3270093708937,-9.388031,-17.02861,-2.4233246,3.2185059,-2.477127,0.39715576
1611,A,3270144062941,-4.813202,-6.1464996,1.3924713,2.2868195,1.0811005,-0.82192993
1611,A,3270194416944,-4.2069397,-4.3952484,4.224655,6.055588,5.709244,-0.6365051
1611,A,3270244770948,-5.850067,-12.530594,1.3015137,-2.227478,1.2799835,0.89746094
1611,A,3270295124952,-0.46768188,-5.6908264,1.3419647,0.23384094,-2.3547516,0.66885376
1611,A,3270345478956,-0.61053467,-5.6600037,5.7780914,-1.7935791,7.0648193,-2.6091309
1611,A,3270395832960,-1.0525665,-11.634933,4.8230743,-3.7762299,-3.675415,-3.3085785
1611,A,3270446186964,-5.989151,-14.949692,-8.179962,-2.4049377,2.4477692,-2.944992
1611,A,3270496540968,-1.9452515,-12.518341,-1.6175842,-0.36601257,0.8365021,-1.6354675
1611,A,3270546894972,4.450363,-14.748337,9.265167,-0.45944214,-1.1679382,-1.2182312
1611,A,3270597248976,4.0912933,-15.375885,-18.771378,-1.0984192,-3.1563416,-0.76116943
1611,A,3270647602980,-2.5510864,-18.840576,2.0362244,0.4033966,-0.68403625,0.22846985
1611,A,3270697956984,-14.628174,-19.38507,17.295517,1.2489319,-1.091568,1.8728943
1611,A,3270748310987,-11.700806,-7.626129,-2.7608795,2.2508087,0.46122742,-0.17829895
1611,A,3270798664991,6.5412445,-7.231003,1.710907,-0.3084259,-0.6091461,-0.16282654
1611,A,3270849018995,-3.1762695,-1.7582245,4.64653,1.9191284,0.32369995,-0.47120667
1611,A,3270899372999,-7.284897,1.6406708,3.623764,-1.7530975,0.07133484,0.62861633
1611,A,3270949727003,-9.989456,-2.853302,0.80233765,-0.44084167,0.4723816,1.3329163
1611,A,3271000081007,12.176941,-18.814835,17.18721,0.28382874,-0.34614563,1.0271606
1611,A,3271050435011,-5.6614685,-4.6210938,8.262253,0.7824707,-2.613037,1.4830017
1611,A,3271100789015,-9.317444,-17.985245,-6.091873,2.7817993,-2.6684875,0.41230774
1611,A,3271151143019,-4.0132446,-3.294571,4.5402985,3.6834717,0.5070801,-0.30807495
1611,A,3271201497023,-5.1198425,-5.2947083,3.5103302,2.6957397,4.0139465,-0.39497375
1611,A,3271251851027,-6.3417206,-11.432373,0.5749054,-1.4890289,1.9051514,0.6504669
1611,A,3271302205030,-0.4485321,-6.0696564,0.79977417,0.020217896,-0.48475647,0.5706482
1611,A,3271352559034,1.0714264,-7.1045837,7.283478,1.192215,3.7143097,-1.0457001
1611,A,3271402913038,-1.809845,-10.694748,0.71788025,-3.3092804,-1.70578,-2.2858582
1611,A,3271453267042,-3.5107727,-11.558914,7.2074738,-2.078354,0.028671265,-3.7013855
1611,A,3271503621046,-1.4768524,-12.028915,-0.6869049,1.291687,0.92781067,-2.3434753
1611,A,3271553975050,5.078476,-13.438675,6.6362305,-0.927948,-1.5492096,-0.77835083
1611,A,3271604329054,4.9234924,-14.539154,-15.595642,-0.940567,-1.831665,-0.99710083
1611,A,3271654683058,0.65057373,-11.940216,1.4499817,-0.01777649,-2.1560059,-0.1242218
1611,A,3271705037686,-6.781708,-17.85379,1.4839783,0.17286682,-1.5360107,1.4940796
1611,A,3271755391690,-9.361023,-13.205551,-4.3889465,-0.6744995,-2.6931152,1.9996796
1611,A,3271805745693,0.4487152,-5.9100647,2.6746826,1.9657745,3.3973389,-1.0769958
1611,A,3271856099697,-4.6719666,-2.5196228,1.1791382,-0.39213562,1.543335,-0.34248352
1611,A,3271906453701,-6.2290344,0.19003296,4.8282776,-1.6501007,2.1353455,0.5393219
1611,A,3271956807705,-6.10408,-4.073349,-2.5894775,-0.78611755,1.395401,1.0553741
1611,A,3272007161709,2.3571167,-19.386353,-19.753006,0.026412964,-0.45326233,0.99227905
1611,A,3272057515713,1.9444733,-15.343063,-13.412964,1.0508423,-2.5379028,0.9982605
1611,A,3272107869717,-9.344849,-5.7865143,2.7204285,2.9862366,-2.1868744,0.4380951
1611,A,3272158223721,-3.8058624,-4.320053,4.7161407,3.9454346,0.8356323,-0.035003662
1611,A,3272208577725,-4.363785,-6.4108276,1.5652924,2.2933044,3.3934937,0.17164612
1611,A,3272258931729,-5.432678,-12.488281,0.26600647,0.13208008,2.4348145,0.7187042
1611,A,3272309285733,-1.1319122,-6.3155212,2.1333008,-0.708786,-0.44851685,0.7523346
1611,A,3272359639736,-1.5124207,-7.405731,2.5919647,-0.46691895,1.7575684,-0.8033905
1611,A,3272409993740,-2.9911041,-11.051712,1.9503479,-2.8067322,2.2572327,-2.601654
1611,A,3272460347744,-2.230835,-10.634506,-1.0049744,-2.6794586,-0.5843811,-3.2796783
1611,A,3272510701748,-0.27563477,-12.126068,-3.0344696,-1.8775024,1.436264,-2.5603485
1611,A,3272561055752,2.151825,-12.787048,3.5075226,-1.2222137,0.3239746,-1.366272
1611,A,3272611409756,1.7707062,-13.067886,-6.7005463,-1.2444153,-2.0668793,-1.0328064
1611,A,3272661763760,-0.78926086,-15.202576,-10.755356,-0.5950928,-2.0204926,-0.12586975
1611,A,3272712117764,-8.284042,-17.974289,7.8646545,0.4460144,-1.1209259,1.4026184
1611,A,3272762471768,-14.287384,-15.015274,10.550095,0.37496948,-2.7848358,1.428894
1611,A,3272812825772,-3.9700012,-8.354919,2.2027893,0.09567261,-2.2924957,-0.2290039
1611,A,3272863179776,0.5473938,-4.1976624,1.9319153,-0.06777954,1.3603973,-0.76109314
1611,A,3272913533779,-5.4552155,-0.83525085,2.1774597,-0.42829895,1.8162384,0.17098999
1611,A,3272963887783,-7.017975,-0.83403015,2.122467,-0.27851868,1.3835602,1.1716309
1611,A,3273014241787,4.9310303,-10.648926,10.795624,-0.31895447,-0.6067352,1.5186005
1611,A,3273064595791,1.2473755,-13.956024,12.889877,0.80418396,-3.2966766,1.1414642
1611,A,3273114949795,-7.871353,-10.530182,5.5385437,3.0197296,-3.713379,0.33207703
1611,A,3273165303799,-2.717743,-5.632431,3.6621094,4.078171,2.0619507,-0.5185547
1611,A,3273215657803,-5.4960175,-8.467361,1.7116394,1.5804596,2.782837,0.13276672
1611,A,3273266011807,-4.6319885,-10.756073,1.0903168,-0.60505676,0.09410095,1.0109863
1611,A,3273316365811,-0.9239044,-5.8889465,1.6954956,0.062301636,-1.1244812,0.90374756
1611,A,3273366719815,-0.19506836,-7.7660522,5.527603,1.1742706,2.3271484,-0.45088196
1611,A,3273417073818,-2.0484009,-10.602341,3.6085358,-2.0596924,-0.37364197,-1.7890015
1611,A,3273467427822,-4.022705,-10.323456,-1.0920868,-3.7612305,-1.3719788,-3.1163635
1611,A,3273517781826,-2.5299988,-11.634872,1.0282288,-0.60717773,0.63830566,-2.8944397
1611,A,3273568135830,1.493103,-12.708618,4.0890045,-0.9322357,0.232193,-1.4025116
1611,A,3273618489834,3.529892,-14.439545,-4.7532806,-1.3867493,-0.60432434,-1.2032318
1611,A,3273668843838,2.3361206,-13.515869,-1.7682648,-0.47138977,-1.3848114,-0.9258728
1611,A,3273719197842,-4.097107,-17.316101,3.2209778,0.553421,-0.7504883,0.24145508
1611,A,3273769551846,-12.818695,-16.838364,4.280533,-0.21846008,-1.9799194,2.1855469
1611,A,3273819905850,-6.5079193,-8.755188,3.7065735,1.9100494,2.8759766,-0.31069946
1611,A,3273870259854,-3.0079498,-4.0420685,0.98573303,1.0494843,1.1641083,-0.22221375
1611,A,3273920613858,-5.534012,-1.2279968,3.6928558,-0.30744934,2.110443,-0.17572021
1611,A,3273970967861,-7.243759,0.62194824,4.6005707,-0.7686615,0.96868896,0.37042236
1611,A,3274021321865,-7.4877167,-14.198761,-13.607498,-0.2514038,0.7883606,1.000534
1611,A,3274071675869,1.5596161,-19.386353,-16.808014,0.1611023,-0.17755127,1.2724915
1611,A,3274122029873,-4.8728485,-9.094467,1.3143768,0.62854004,-2.4526978,1.3849335
1611,A,3274172383877,-4.515259,-13.41272,2.8029022,2.6419373,-3.8867188,0.7888794
1611,A,3274222737881,-3.696869,-4.1750336,2.4821167,3.0651093,-0.7471924,0.010467529
1611,A,3274273091885,-7.737915,-8.945908,2.9392853,3.7902985,8.37793,-0.6242218
1611,A,3274323445889,-4.8582764,-9.542465,0.6012268,-1.359726,1.3105927,0.99909973
1611,A,3274373799893,-0.18206787,-5.3861694,1.239212,-1.047409,-2.578003,0.6236267
