Subject-Id,Activity Label,Time stamp,Accel_x,Accel_y,Accel_z,Gyro_x,Gyro_y,Gyro_z
1605,A,182956809225437,-4.8638206,7.813477,0.33518824,-0.020240024,-0.004261058,-0.023435818
1605,A,182956844860800,-4.7399206,9.427768,-1.2318168,1.2069446,-0.4426174,-0.50653327
1605,A,182956884543457,-3.5110967,8.992023,-2.0272903,1.0231866,-0.08894958,-1.0759171
1605,A,182956924810748,-1.8321629,9.636064,-0.4369418,0.47297743,0.9337043,-0.8902948
1605,A,182956964757206,-0.25917232,9.920973,1.3910311,3.1353395,0.6423545,-0.5773733
1605,A,182957004615904,-0.24720132,7.0826473,1.821389,2.6828685,-0.6889598,-0.2031992
1605,A,182957044565644,-0.12988544,9.490017,-0.39863458,1.4245249,-2.0892498,-0.22237396
1605,A,182957084416581,0.06404489,9.162011,-2.0093338,1.5286545,0.36112466,-0.27989823
1605,A,182957124367257,-0.077213004,9.053674,0.08559271,1.1566108,0.6873619,-0.36671728
1605,A,182957164296479,-2.1523874,10.230424,1.364695,1.3169332,0.47857004,-0.16618125
1605,A,182957206932519,-2.4229321,13.00291,-1.3305776,-0.16618125,-1.0229203,-0.20133498
1605,A,182957244089497,-3.8708255,13.30398,-2.72939,0.50653327,-0.86872315,-0.0026631611
1605,A,182957284043924,-0.5069722,12.990938,2.493561,-0.27350664,-0.26498455,-0.27696875
1605,A,182957323849030,0.54767364,12.772468,-1.0253168,-1.3025521,-0.89162636,0.07882957
1605,A,182957363761425,-0.02932897,9.049484,-1.6579847,-2.8173583,-0.34940675,0.7235809
1605,A,182957403654185,-3.2890346,12.355876,-2.3175871,-3.5199,1.3970944,1.0452907
1605,A,182957443658195,-2.204461,11.723807,-2.3870192,-2.3678167,1.743838,0.5390238
1605,A,182957483457468,-3.5930982,13.135189,1.5101427,-1.8050907,-1.7254621,0.15233281
1605,A,182957521990124,-2.4624364,9.518747,1.1869255,-1.2815131,-2.2370553,1.1960256
1605,A,182957563785852,-1.3628993,6.078878,-4.173692,-0.8807074,0.16937704,1.4620755
1605,A,182957603175383,-3.0657754,5.79337,-0.17357962,-1.8104169,1.9089539,1.4197313
1605,A,182957641419445,-2.9783869,4.908712,1.5059528,-0.9443569,2.1513016,1.2215921
1605,A,182957683021218,-2.8473043,2.2637177,1.8561049,0.083889574,1.1198592,0.8977516
1605,A,182957722888195,-2.7940333,2.0913353,3.347094,0.80533993,0.50147325,0.41252366
1605,A,182957761237414,-0.98341835,5.1301756,4.995502,1.5337145,-0.17656758,-0.35579833
1605,A,182957800870747,1.6687586,19.612701,10.816404,0.5640575,0.31931302,-0.84022737
1605,A,182957842771893,3.3770216,12.99034,7.1125746,-0.52624065,-0.5819007,0.577107
1605,A,182957882481582,2.2768857,3.5470097,6.64391,-0.13209279,0.34621096,-0.08655274
1605,A,182957924400124,-4.7620673,8.500014,0.9780314,1.0615361,-1.1781825,-1.427188
1605,A,182957960939707,-11.110891,16.66484,0.2885013,-0.41864893,-1.5752598,-0.77418095
1605,A,182958000456373,-0.34237084,4.9865236,0.6853402,0.95234644,-1.7377126,-0.6064018
1605,A,182958040687884,-4.1934443,8.667608,-1.6675615,0.4631237,-0.0727043,-0.73157036
1605,A,182958080180488,-3.2118216,8.483853,-1.5927427,0.1307612,0.22929817,-1.257012
1605,A,182958120418040,-1.951873,10.348338,-1.0372878,0.57417756,1.3784522,-0.8444884
1605,A,182958160303872,0.30645782,8.619126,2.4025815,2.6003106,1.5632756,-0.5073322
1605,A,182958200233039,-0.4961983,7.307702,2.3828292,4.0839577,-1.0620687,-0.28229508
1605,A,182958240171060,0.4997896,9.825804,-0.6715736,1.4370418,-2.6005769,-0.2282329
1605,A,182958279726477,0.4297592,8.613739,-0.48482585,1.3438311,0.29001826,-0.5334312
1605,A,182958319965487,-1.122282,9.439739,-0.5674258,1.0977551,0.6317018,-0.56459016
1605,A,182958359676477,-1.5089456,10.88464,-0.14425065,1.1012172,1.0418286,-0.2609898
1605,A,182958399603404,-4.1222167,13.40753,-0.94092125,0.24421188,-0.66525763,-0.25992453
1605,A,182958439569446,-2.8975825,13.168109,-1.1528081,0.02263687,-0.64075655,-0.3022688
1605,A,182958480937883,-1.0666169,11.850101,0.7721301,-0.4016047,-0.5704491,-0.15472966
1605,A,182958519268247,-0.077213004,11.914146,-0.6799533,-1.9062908,-1.3171995,0.391751
1605,A,182958559162780,-0.8265981,8.75799,-1.8237832,-3.238404,-0.4878911,1.3409016
1605,A,182958600520435,-3.2381577,13.156138,-3.12982,-2.8985846,1.649562,1.8367822
1605,A,182958640464965,-2.1637597,12.570157,-2.867655,-2.0445087,0.8133294,0.7305051
1605,A,182958680727467,-4.7081976,14.498089,6.0483522,-1.6935042,-2.3885891,0.07962852
1605,A,182958719535383,-3.5350387,6.797737,-0.7505822,-0.2625877,-1.6929716,1.5717977
1605,A,182958758830591,-2.0805612,4.5154643,-4.7776294,-1.2189288,0.82584625,1.351288
1605,A,182958798442935,-2.908955,5.378574,1.7280151,-1.8074875,2.2455776,1.3233248
1605,A,182958840368560,-3.032855,4.188656,2.005144,-0.7462177,1.7209347,1.0266486
1605,A,182958880084133,-3.0627825,2.9963434,1.7711107,0.12436963,0.87032104,0.6660566
1605,A,182958920038403,-1.5646108,2.5671828,3.6134489,0.96939063,0.22556975,0.35446674
1605,A,182958959958977,2.1332338,10.250176,6.069301,1.690841,-0.29348037,-0.474309
1605,A,182958999569966,5.41329,19.612701,7.317279,-0.10146644,-0.48815745,0.12676647
1605,A,182959039850694,4.0533834,8.343194,5.6982,-0.7997473,0.50147325,0.44101948
1605,A,182959079658717,-0.1436521,1.7986441,3.5871127,0.5203817,-0.2775014,-0.4293016
1605,A,182959119522935,-15.646707,19.612701,-9.204509,0.5052017,-1.6812537,-1.9350529
1605,A,182959158941060,0.85772276,5.28939,7.442376,-0.19707392,-2.05383,-0.03568636
1605,A,182959198850748,-5.455787,7.9768815,-2.569577,0.80560625,0.38376153,-0.6649913
1605,A,182959239283246,-3.630807,7.949947,-2.4827871,0.22796659,0.11984225,-1.1896341
1605,A,182959279137412,-3.2016463,9.60853,-3.1226375,-0.20559604,1.4346449,-1.1680624
1605,A,182959319039812,-1.2886791,10.643424,-0.24959552,1.1848404,2.0429108,-0.8902948
1605,A,182959358993506,1.1959038,6.92044,3.9839516,3.6240296,1.0309097,-0.21784659
1605,A,182959398853456,-1.620276,8.285135,1.151611,3.8328216,-1.8791265,-0.37763625
1605,A,182959438800434,0.93613285,8.520366,-1.2779051,1.0146644,-1.2202604,-0.82105255
1605,A,182959478664863,-0.10474633,9.698911,-0.35254622,1.3925669,0.9534117,-0.6985472
1605,A,182959518443299,-1.7956513,11.495759,-0.14604631,0.8021441,0.88230526,-0.3685815
1605,A,182959560167779,-2.8987796,12.883798,-2.244564,0.35952675,-0.5850965,-0.38269624
1605,A,182959597980955,-3.7828386,13.031041,-1.3700819,0.4396879,-0.13821806,-0.27563718
1605,A,182959638317882,-0.17417817,12.992734,-0.35254622,-0.45167214,-0.7965515,-0.23542345
1605,A,182959678184445,-0.28909984,13.339893,-0.51954174,-1.2373047,-0.58456385,0.2977414
1605,A,182959718304445,-0.8379706,8.65863,-1.6795325,-2.9153626,-0.48309743,1.2655342
1605,A,182959756361268,-3.5942953,13.538013,-1.0773908,-3.2264197,0.8594021,1.8887138
1605,A,182959796337726,-2.042254,12.522273,-2.3582888,-2.380866,1.5768577,1.1049455
1605,A,182959837969444,-4.0396166,12.840104,0.9576807,-2.0373182,-1.6468989,0.083889574
1605,A,182959877694185,-3.857059,9.138668,2.268506,-0.71133035,-3.1475902,1.3286511
1605,A,182959917590540,-2.4139538,5.2804117,-6.11539,-0.49774483,-0.26711506,1.5709988
1605,A,182959957679913,-1.1707647,4.2419267,-1.6059108,-1.9971045,2.4386566,1.4122744
1605,A,182959999498871,-3.2956185,4.1102457,2.9017725,-1.1171961,2.0849888,1.0546118
1605,A,182960037317988,-2.9346926,3.2842462,1.1971009,0.330232,1.0410297,0.7347662
1605,A,182960077192570,-1.821389,1.7106571,2.634819,0.99256015,0.577107,0.252734
1605,A,182960117165902,-0.12629414,5.100847,4.8141413,1.6889768,0.25832662,-0.5898902
1605,A,182960157030488,4.224569,19.612701,12.908339,0.7914915,-0.96592855,-0.5089301
1605,A,182960196423975,5.8783636,10.831368,5.9986725,-0.7845673,-0.23995082,0.72491246
1605,A,182960236835904,0.85473,3.3967736,6.1764417,-0.17550232,0.33981937,-0.21491711
1605,A,182960276778037,-9.91798,17.753605,-8.008605,0.92065483,-2.1494374,-1.8290591
1605,A,182960316635539,-3.8001966,7.1969705,0.3417723,-0.525708,-2.0493026,-0.12809806
1605,A,182960356724496,-2.574964,5.099051,-1.2952632,1.2458268,-0.5811018,-0.5400891
1605,A,182960396440746,-4.232949,9.176376,-1.2808979,0.53263223,0.29134983,-0.92944324
1605,A,182960436392413,-3.2381577,8.311471,-2.4121583,-0.108124346,0.88017476,-1.3092101
1605,A,182960476247465,-2.0847511,9.771336,-1.0043676,0.07803062,2.0703416,-1.0578076
1605,A,182960516417153,0.56084174,9.065046,3.53863,2.420281,1.3819143,-0.31851408
1605,A,182960556143923,-0.14425065,7.963713,0.53929394,4.278901,0.2644519,-0.5291701
1605,A,182960595962413,-0.30765492,8.445546,0.20171149,1.6338494,-2.5832663,-0.56672066
1605,A,182960635912048,-0.39504328,9.423578,-0.42317516,1.0253171,0.5158543,-0.6490124
1605,A,182960675933404,-1.4862007,10.099341,-0.17956513,1.3070794,1.1241204,-0.3901531
1605,A,182960715677047,-3.0071173,11.954847,-1.9728222,0.520648,-0.70866716,-0.5486112
1605,A,182960755581372,-2.8550856,13.030443,-1.4879963,0.37896782,-0.1834918,-0.38429415
1605,A,182960793829132,-0.3549404,13.086706,-0.15622166,-0.23036344,-0.48975533,-0.16271915
1605,A,182960835431215,-1.5969325,13.108254,-0.3597288,-0.92065483,-0.8093347,0.15632756
1605,A,182960875294289,-0.9564836,9.352949,-1.6519991,-2.4410534,-0.66632295,1.0186591
1605,A,182960915237517,-2.730587,11.343129,-0.58538234,-3.3851442,0.33475935,1.7209347
1605,A,182960953654132,-1.316811,11.76391,-1.3946224,-2.5638251,1.9736687,1.6186694
1605,A,182960995691423,-3.7828386,14.092271,-0.688333,-1.7291905,-0.6601977,0.54142064
1605,A,182961035534236,-5.0667295,11.394006,4.514866,-1.288171,-3.9585228,1.0309097
1605,A,182961075396632,-3.7792473,6.2105594,-1.5089456,-0.3110572,-0.763262,1.117995
1605,A,182961115342934,-1.9015948,5.45878,-4.301183,-1.3219932,1.5944346,1.1885688
1605,A,182961153339548,-2.0733786,5.229535,1.0564415,-1.7267936,1.6703347,1.2338426
1605,A,182961192862361,-2.697667,3.1495724,3.139397,-0.3850931,0.9552759,0.91186637
1605,A,182961235014705,-2.4774003,2.6755204,2.1404164,0.7105314,0.5496765,0.5336975
1605,A,182961273014860,-0.9391256,3.2016463,3.353678,1.3414342,0.26977822,0.037550572
1605,A,182961314817153,1.6813282,10.962451,7.0126166,1.4524881,0.55340487,-0.6804377
1605,A,182961354953351,5.521628,19.612701,5.3049526,-0.15819177,-0.7600662,0.23995082
1605,A,182961394642048,4.372411,7.275979,6.26802,-0.90254533,0.04447479,0.18162759
1605,A,182961433980433,-2.544438,7.44896,6.815694,0.6593987,-0.2580603,-0.9020127
1605,A,182961474496893,-11.058219,18.56464,-6.9569516,0.32144356,-3.0719564,-0.9978865
1605,A,182961514368349,-0.1376666,3.7349546,3.21661,-0.027164243,-0.8000136,-0.32463935
1605,A,182961554257622,-6.363788,10.395624,-3.0370448,0.70014507,-0.35153726,-1.0404971
1605,A,182961594160174,-3.1842883,8.768166,-1.845331,-0.21331921,0.64555025,-1.376588
1605,A,182961634095850,-2.6701334,9.52174,-1.1097125,-0.8021441,1.70682,-1.1986889
1605,A,182961673952413,-0.22924481,9.217078,3.9731777,1.2761868,1.7012273,-0.9158611
1605,A,182961713919080,-0.15502456,8.062474,-0.96426475,3.9779637,1.5331819,-0.18269286
1605,A,182961753761735,-0.92057055,9.601946,3.7565024,3.1198933,-1.5899072,-0.47297743
1605,A,182961795518508,0.80086046,8.406641,-1.103727,1.433846,-2.422944,-0.7139935
1605,A,182961833617620,-0.11552023,8.398261,-0.9235633,0.6578008,1.4655375,-0.6087986
1605,A,182961871526371,-1.0007763,10.139444,-0.62728083,0.299073,0.7281082,-0.39494678
1605,A,182961913588454,-2.544438,11.083358,-0.88405895,1.1669972,0.3187804,-0.19947077
1605,A,182961953269862,-3.775656,12.917915,-1.4317327,0.2905509,-0.1504686,-0.038083203
1605,A,182961993302309,-1.8148049,14.08868,-0.2717419,0.024501082,-0.3752394,-0.22184132
1605,A,182962033092100,-0.10175357,13.801974,-0.18136078,-0.99256015,-0.92278534,0.13741912
1605,A,182962073026214,0.24899697,9.855731,-1.6364368,-2.2447786,-0.41944787,0.8202536
1605,A,182962112900799,-3.58412,10.405799,0.54647654,-3.4804852,0.12170646,1.4897723
1605,A,182962152845434,-1.7112557,11.3551,-3.0280666,-2.5550368,2.5169537,1.215733
1605,A,182962190769289,-3.4201171,13.160328,-0.8595184,-1.8032264,-0.22184132,0.6106629
1605,A,182962232604079,-3.867833,12.315774,4.9099092,-1.1387677,-4.6813045,1.1906993
1605,A,182962272727777,-3.4727895,6.203975,-2.801216,-0.46711847,0.047404267,1.1848404
1605,A,182962312416008,-1.7292122,5.415684,-4.2622776,-1.7164073,1.664742,1.2074772
1605,A,182962352364288,-2.1697452,4.674679,2.1188686,-1.638643,1.736381,1.2713932
1605,A,182962392209651,-2.5809495,2.7868507,1.3227965,-0.35233623,1.0391655,0.902279
1605,A,182962432171736,-2.8449101,2.3786395,2.3169887,0.58909124,0.7669904,0.5587312
1605,A,182962472028663,-1.5454572,3.2758665,4.4364557,1.3608754,0.06498113,-0.081226416
1605,A,182962511932256,1.7010803,12.3355255,8.263587,1.6431705,-0.06178534,-0.8825716
1605,A,182962551850016,7.318476,19.612701,5.1918263,-0.005060006,-0.62344605,0.5363607
1605,A,182962589505433,3.5033157,6.9485717,6.3859344,-0.5475459,0.10173275,0.1571265
1605,A,182962631692204,-4.5022964,11.723208,5.961562,1.1925635,-1.3318468,-1.5076156
1605,A,182962671554183,-4.6202106,11.176133,-4.5005007,-0.62344605,-2.808836,0.15952335
1605,A,182962711496735,0.11312603,1.9776106,4.630985,-0.28788772,-0.5187838,-0.026365295
1605,A,182962749482048,-5.9477954,9.695918,-3.591901,0.8162589,-0.9286443,-1.5654061
1605,A,182962789114600,-3.6727054,9.895236,-1.9189527,-0.20426446,0.29294774,-1.2010857
1605,A,182962830710694,-1.9369092,9.69532,-0.80924016,-0.6194513,1.8431739,-1.2961606
1605,A,182962870522567,0.29628247,8.697536,4.747702,2.1486385,1.9803267,-1.202151
1605,A,182962911429965,0.10534488,7.289147,-0.9211691,4.191816,1.5267903,-0.30120352
1605,A,182962950323819,-1.0845734,9.399037,2.2996306,2.4666197,-3.0519826,-0.44368264
1605,A,182962990183869,0.6937199,8.406641,-2.2888567,1.4769892,-0.8631305,-0.70467246
1605,A,182963030834080,-0.2801216,9.126099,-1.039682,0.7038735,1.1158645,-0.7635283
1605,A,182963070630589,-1.5646108,10.105926,0.5590461,1.0375676,0.7499462,-0.29880667
1605,A,182963110494652,-3.1842883,12.989741,-2.0021513,0.118776985,-0.10333065,-0.22503711
1605,A,182963150384027,-3.5446155,12.719196,-1.5227122,0.2977414,-0.81199783,0.15259913
1605,A,182963190345954,-0.700304,12.989142,1.1599907,0.011717909,-0.22104238,-0.23995082
1605,A,182963230202152,0.45010993,14.177265,-1.3928268,-1.5952336,-0.8021441,0.29667616
1605,A,182963270215016,-1.644218,8.236652,0.22146365,-2.9944584,-0.18216023,1.2673984
1605,A,182963310024496,-3.918111,13.452421,-2.3882163,-3.017628,1.6690031,1.805357
1605,A,182963349966474,-1.951873,12.621035,-1.3784616,-2.0434434,1.2503542,0.83037364
1605,A,182963387886370,-4.5765166,13.660716,3.8193502,-1.4889734,-3.5697012,0.67484504
1605,A,182963428110850,-2.6503813,8.222886,0.095768064,-0.33156356,-2.5449169,1.2607405
1605,A,182963467441631,-1.882441,5.133767,-3.3883939,-0.44741106,1.3539511,1.3057479
1605,A,182963507521214,-0.33399114,4.348469,-0.9247604,-1.8764633,2.173406,1.2900352
1605,A,182963548663558,-2.3732524,4.43885,3.152565,-1.0916297,1.8967034,1.0434265
1605,A,182963588510693,-2.3852234,3.4680011,1.7525556,0.26525086,1.1342404,0.6359629
1605,A,182963628419496,-2.7449522,3.233968,3.0603883,0.9528791,0.5142564,0.39468047
1605,A,182963668162465,-0.41479546,6.3500214,5.100847,1.6098809,0.13289174,-0.26019084
1605,A,182963706743090,5.901707,19.612701,11.868058,0.675644,-0.059921127,-0.41918156
1605,A,182963746365642,7.2059484,10.1143055,4.797382,-0.74781567,-0.39494678,0.69055766
1605,A,182963786569027,-0.46567222,2.878429,6.8426285,-0.20692763,0.25246766,-0.46392268
1605,A,182963827681684,-11.088146,19.612701,-7.9846625,1.4072144,-2.1214743,-2.019475
1605,A,182963868110277,-2.256535,5.6580973,-1.7968484,-0.5115933,-1.5041534,-0.049534798
1605,A,182963907985121,-1.927931,4.950012,0.1328782,0.78723043,-0.7038735,-0.6740461
1605,A,182963947932362,-4.618415,8.911818,-1.620276,0.180296,-0.1555286,-0.64581656
1605,A,182963986426370,-3.4703953,8.098388,-2.7635074,-0.27164245,0.7033408,-1.3877733
1605,A,182964028420328,-2.1871033,9.555858,-0.7194576,-0.07590009,2.2596922,-1.0277139
1605,A,182964068227986,0.077213004,8.853758,3.276465,2.015214,1.6969663,-0.7600662
1605,A,182964108082152,-0.4297592,8.3408,1.1444284,4.5481467,-0.2905509,-0.5707154
1605,A,182964148053194,0.84216046,9.179968,-0.13108255,1.6964337,-3.7643783,-0.45353633
1605,A,182964187902517,0.40462008,8.645462,-0.9271546,0.76059884,0.5616607,-0.6250439
1605,A,182964225573453,-1.2036849,9.937134,-0.8206126,1.041296,0.94968325,-0.5749765
1605,A,182964267764600,-1.7082629,11.180922,-0.801459,1.1342404,0.85514104,-0.3291667
1605,A,182964305378871,-4.5082817,13.018472,-1.0929531,0.3717773,-0.8562063,-0.06897587
1605,A,182964347748714,-1.1767502,13.478158,-1.0498575,-0.032490566,-0.3832289,-0.48709217
1605,A,182964387405486,0.23463176,12.700043,-0.4758476,-0.5502091,-0.55074173,-0.08175905
1605,A,182964427435432,-0.18195933,10.985794,-1.5095441,-1.9150791,-0.6945524,0.7368967
1605,A,182964467215798,-2.6150668,9.153033,-0.38307226,-3.0996532,-0.13981596,1.5712651
1605,A,182964507132307,-2.753332,12.148778,-0.8415619,-2.756638,1.506284,1.6956347
1605,A,182964547032256,-3.2615013,12.942456,-1.7124528,-1.7422401,0.064182185,0.9531454
1605,A,182964586269494,-3.1944637,12.48217,4.3718123,-1.4197313,-3.2975261,1.1038803
1605,A,182964626829912,-2.4145525,8.198944,-0.9403227,-0.21731395,-1.1422298,1.1286477
1605,A,182964666755119,-2.8095956,5.93343,-4.2000284,-0.8066715,1.0013486,1.4916365
1605,A,182964704624704,-1.2617443,5.239112,-0.5883751,-1.8367822,1.8628812,1.3800501
1605,A,182964744425068,-2.7461493,4.541202,2.8736405,-0.9755159,1.9734024,1.0860372
1605,A,182964784049183,-2.4462755,2.6473885,1.685518,0.28975195,1.1957593,0.7145261
1605,A,182964825875068,-2.1918917,2.3199813,3.2010477,1.011735,0.727043,0.2031992
1605,A,182964865845223,-0.20829555,6.75524,5.2804117,1.6823189,0.056459017,-0.62317973
1605,A,182964905566890,5.159505,19.612701,11.849503,0.17603496,-0.100933805,-0.5422196
1605,A,182964945479494,6.633734,8.398261,4.2179847,-0.60959756,-0.5605954,0.74781567
1605,A,182964985599494,-2.0362685,7.1353197,7.093421,0.15659387,-0.08548747,-0.813862
1605,A,182965026014911,-16.31469,19.612701,-5.403713,0.09880328,-3.0123017,-1.3241237
1605,A,182965065779338,-0.7254431,2.902371,0.32441434,-0.13475595,-0.35792887,0.123836994
1605,A,182965105725328,-2.337938,5.04159,-0.62608373,1.0554107,-0.7819041,-1.230913
1605,A,182965143546213,-5.628768,11.247959,-2.248754,0.24208134,-0.28122982,-0.99548966
1605,A,182965183171474,-3.4674027,8.421604,-3.0538042,-0.7259777,0.70493877,-1.4402375
1605,A,182965223000171,-1.7818847,9.707291,0.7254431,-0.112918034,2.2285333,-1.2602079
1605,A,182965263081890,-0.05327099,9.403826,2.5288756,3.6988645,0.95660746,-0.76592517
1605,A,182965303095640,1.34195,8.285135,0.79128367,3.440538,-0.15632756,-0.15845808
1605,A,182965343095432,0.6027403,8.857947,0.8714894,2.1859226,-4.283162,-0.5701828
1605,A,182965382590640,-0.4345476,7.8583684,-1.4089876,0.65487134,1.0402308,-0.47617322
1605,A,182965422834390,-0.83018947,10.128072,-0.66498953,0.33955306,0.9763149,-0.53769225
1605,A,182965472834390,-1.0953473,10.648212,-1.06123,1.0210559,0.6450176,-0.3225088
1605,A,182965516185015,-1.0953473,10.648212,-1.06123,1.0210559,0.6450176,-0.3225088
1605,A,182965520503921,-3.876811,13.163919,-1.6172832,0.30945933,-0.6194513,-0.08894958
1605,A,182965542003401,-3.3482912,13.922881,-0.58298814,0.2282329,-0.041012682,-0.19734024
1605,A,182965582229963,0.45190558,12.923303,-0.18136078,-0.8996158,-1.0032128,0.035153728
1605,A,182965622080015,0.025139118,10.818799,-0.4261679,-1.9145465,-0.80347574,0.70493877
1605,A,182965663478817,-1.7399861,8.746617,-0.92296475,-3.3140378,-0.090014845,1.4519554
1605,A,182965702177307,-1.8088194,12.505514,-2.4259248,-2.6573021,2.0098877,1.8825886
1605,A,182965743306630,-2.7431567,12.829928,-1.5735891,-1.8594191,0.64741445,0.78989357
1605,A,182965783271838,-5.0451818,13.843274,5.5401826,-1.4823155,-3.629356,0.9643307
1605,A,182965822773767,-3.3357215,6.0800753,-1.8501194,-0.40906155,-1.206412,1.1560782
1605,A,182965863848713,-2.172738,5.437232,-4.699219,-0.9584717,1.1928298,1.2053467
1605,A,182965903802099,-1.2725182,5.122993,0.8283938,-1.6160061,1.479386,1.2016183
1605,A,182965944980954,-2.657564,3.4769795,2.6521769,-0.36085832,1.0692592,0.7909589
1605,A,182965983502151,-1.9542671,2.8814218,1.0169371,0.5118596,0.7643272,0.4775048
1605,A,182966023435481,-1.9213469,3.3716345,3.7313633,1.3235911,0.39840892,-0.006924219
1605,A,182966063310901,0.55844754,10.930728,7.382521,1.6982979,0.4511395,-0.8977516
1605,A,182966103275068,6.1004257,19.612701,5.549161,0.120907515,-0.9270464,0.6287723
1605,A,182966143223035,5.467758,6.3703723,6.5164185,-0.6372945,-0.58935755,0.30253512
1605,A,182966183096110,-6.5840545,13.63857,3.5697548,1.0333065,-1.8242654,-1.80296
1605,A,182966220581370,-3.809175,7.052121,-3.952827,-0.6375608,-2.6019084,0.06498113
1605,A,182966262903401,-0.56323594,1.9710265,2.0231004,0.14807177,-0.37230992,-0.2825614
1605,A,182966302851785,-6.1123967,10.988788,-3.4171243,0.8743158,-0.6229134,-1.5017565
1605,A,182966342898714,-3.2160115,9.848549,-2.0242975,-0.51505536,0.08841695,-1.4623418
1605,A,182966382646162,-1.7723078,9.758167,-0.8996213,-0.9054748,1.4775218,-1.3249227
1605,A,182966422672880,-0.092176765,9.229049,3.4931402,2.9300098,1.9869845,-1.0847056
1605,A,182966462461942,0.93852705,7.491457,0.712275,3.732953,1.4801849,-0.01784318
1605,A,182966502321161,-1.311424,9.669582,2.919729,2.1680794,-3.8480015,-0.33103094
1605,A,182966540126057,0.38187516,8.249821,-1.2096704,1.3526195,-0.5203817,-0.6623282
1605,A,182966582180014,-0.18495208,8.8884735,-1.1198878,0.40586576,0.93397063,-0.69322085
1605,A,182966622039703,-0.3549404,10.214862,-0.79128367,0.7619304,0.42743737,-0.44714475
1605,A,182966661928661,-3.2992098,12.5743475,-1.5652094,0.79415464,1.0700581,-0.3901531
1605,A,182966699600743,-3.8839936,12.639589,-0.93014735,0.32623723,-0.545948,-0.060720075
1605,A,182966741716266,-0.7649474,13.6888485,0.9151836,-0.26072347,-0.47617322,-0.25353295
1605,A,182966781569650,1.3317747,13.114839,-0.7882909,-1.5134745,-0.8290421,0.21758026
1605,A,182966821555276,-0.1436521,8.075044,-1.6095021,-2.5949843,-0.32597092,1.0620687
1605,A,182966861511264,-4.2999864,12.752715,-0.55605334,-3.268764,0.8362326,1.9275961
1605,A,182966901361162,-2.2301989,11.923723,-2.5737667,-2.1672804,2.1326594,1.2705942
1605,A,182966941268817,-4.5022964,13.752295,-0.29388827,-1.6202673,-1.6772588,0.8908274
1605,A,182966981216472,-2.0853498,10.9834,2.6844985,-0.53795856,-3.9505332,1.4402375
1605,A,182967021063922,-3.0735564,5.719748,-1.8836381,-0.035153728,0.42743737,1.2673984
1605,A,182967061019808,-1.5646108,4.924873,-3.9294837,-1.2479573,2.852512,1.2492889
1605,A,182967100885535,-1.3461399,4.5166616,1.5753847,-1.8801918,1.7022926,1.1864383
1605,A,182967138533869,-2.2750902,3.714604,2.3948002,-0.028229509,1.3419669,0.6649913
1605,A,182967180731784,-2.6150668,3.0508115,1.7082629,0.7307714,0.93929696,0.29614353
1605,A,182967218483088,-1.7836803,3.9881415,3.9336734,1.4820492,0.34461305,-0.34274885
1605,A,182967260487098,1.0564415,18.05288,10.690709,1.3672669,0.8048073,-1.1646004
1605,A,182967300446941,7.267599,16.077663,5.065532,-0.23782028,-0.84368944,1.1749867
1605,A,182967340306266,3.3225534,4.445434,7.2328835,-0.57284594,0.02743056,0.014114754
1605,A,182967380343191,-6.0483522,14.683639,0.9876082,1.4426343,-2.3481092,-1.9789951
1605,A,182967420116474,-3.4901476,7.144298,-3.3716345,-0.85993475,-1.9856529,-0.1635181
1605,A,182967460067828,-0.21428105,3.6314054,3.256713,0.44048685,0.19787288,-0.6362292
1605,A,182967499921630,-6.25964,11.3323555,-1.7250223,0.5275722,0.02130529,-0.6735135
1605,A,182967537724130,-3.265691,7.9732904,-1.7860745,-0.2034655,0.3254383,-1.475125
1605,A,182967579772776,-2.2158337,9.613917,-0.3800795,-0.53769225,1.6948358,-1.2120047
1605,A,182967619692046,0.08379706,9.176975,3.9151182,2.326005,1.2479573,-1.1158645
1605,A,182967659534131,0.015562311,7.454347,-2.1655555,3.5726306,0.14008227,-0.3683152
1605,A,182967699442151,0.9247604,9.901819,3.4763808,2.7766118,-2.273807,-0.77631146
1605,A,182967739593087,0.31124622,8.617929,-1.1629834,1.4527544,-1.4516891,-0.5486112
1605,A,182967776848400,-1.0989386,9.502586,-0.8026561,0.40719733,1.3811153,-0.58296597
1605,A,182967817039129,-0.48362875,10.216658,-0.741604,0.5640575,0.35766253,-0.44794372
1605,A,182967858603713,-2.9909565,13.537415,-1.8166006,0.37816888,-0.19228023,-0.12117383
1605,A,182967898408816,-3.252523,13.600862,-2.4438813,0.2790993,-0.1403486,-0.21678132
1605,A,182967938264130,-1.3958195,13.959991,1.8483237,-0.3320962,-0.2660498,-0.13182648
1605,A,182967978220379,-0.40462008,11.550227,-0.770933,-1.608283,-0.3174488,0.6583334
1605,A,182968018078662,-0.82779527,8.061875,-0.75836337,-3.1206923,-0.57284594,1.3907027
1605,A,182968058738921,-2.8107927,13.526043,-1.5514427,-3.1696944,1.0258497,2.0330572
1605,A,182968098537460,-1.4933833,12.029068,-2.0907366,-1.8615496,1.9100192,1.1358383
1605,A,182968138391213,-4.7363296,14.0473795,2.3122003,-1.7670075,-1.8847191,0.67724186
1605,A,182968178334442,-2.7742813,8.639477,1.198298,-0.44474792,-2.936135,1.5222629
1605,A,182968216078296,-2.678513,5.5563436,-3.7535098,-0.3520699,1.1062771,1.2724584
1605,A,182968255977359,-0.34955344,5.5485625,-1.2773066,-1.608283,2.7374632,1.2727247
1605,A,182968298050013,-2.4253263,3.6481647,3.9414546,-1.1531488,1.485245,0.94515586
1605,A,182968337919600,-2.6048915,2.332551,1.6741456,0.304133,0.8423579,0.381631
1605,A,182968377861786,-2.255338,2.6030958,2.5504234,0.99921805,0.45673212,0.072970614
1605,A,182968419653661,-0.53211135,5.051167,4.6896424,1.6205336,-0.10439592,-0.5472796
1605,A,182968457661420,5.6359506,19.612701,8.358757,0.850081,-0.21358553,-0.36618465
1605,A,182968497610743,6.401497,11.481993,6.117784,-1.0002834,-0.55580175,0.87697893
1605,A,182968535484389,0.9463082,3.318962,5.374983,-0.42983422,0.9020127,-0.5898902
1605,A,182968577370379,-2.0991163,5.8346696,0.8475474,0.7185209,-1.1944277,-1.2985574
1605,A,182968617223712,-18.94412,19.612701,8.69155,-0.2908172,-1.9417108,-1.0218549
1605,A,182968657107722,-1.0636241,5.1996074,-1.8950106,0.81253046,-1.0444918,-0.78563255
1605,A,182968697073504,-3.1705215,8.781333,-1.8698715,-0.023169503,0.17550232,-0.8476842
1605,A,182968734707827,-2.0290859,9.838972,-2.208651,-0.5589975,0.34301516,-1.2903016
1605,A,182968774584806,-1.2162545,10.387842,-0.79607207,1.066596,2.6138926,-0.9864349
1605,A,182968814168504,0.37110126,7.801506,2.9825768,2.5901904,1.7973675,-0.45486793
1605,A,182968856619441,-1.87047,7.803302,-0.4213795,3.704457,-1.8663434,-0.27563718
1605,A,182968895339754,-1.0133458,8.893861,-0.5201403,1.8722023,-2.8599687,-0.29188246
1605,A,182968935868295,0.074220255,8.776545,-0.26874915,1.3393037,0.2066613,-1.0636666
1605,A,182968975775691,-0.31124622,9.67018,0.44651863,1.215733,0.71532506,-0.8223842
1605,A,182969015720379,-0.44711718,11.461642,-1.2192472,0.2862898,0.43995422,-0.51665324
1605,A,182969056381889,-2.9855695,13.240534,-1.9075803,0.22423817,-0.5866944,-0.19813919
1605,A,182969096077723,-3.071761,13.161526,-1.0708067,0.5270396,0.61678815,-0.19627498
1605,A,182969134038087,-0.45489833,12.710816,0.86610246,-0.6993461,-1.0753845,-0.016777916
1605,A,182969175887202,-0.34117374,11.799225,-0.16400282,-1.8740665,-0.38775626,0.66845345
1605,A,182969213854024,-0.48602295,7.2831616,-1.3030443,-3.278085,-0.23196134,1.4671354
1605,A,182969253753347,-3.2225955,14.469358,-0.56443304,-2.9201562,1.1933625,1.9704729
1605,A,182969295634233,-2.4558525,13.856442,-2.367267,-1.8351843,1.0442255,0.6580671
1605,A,182969335503712,-5.3247046,14.119804,5.939416,-1.5425029,-2.6759443,0.35926044
1605,A,182969375404649,-0.6560113,7.65965,-2.5995045,-0.46205845,-2.4109597,1.484446
1605,A,182969415362827,-1.3012487,6.303933,-3.9911342,-0.6447513,1.6407735,1.4298512
1605,A,182969455295119,-1.2479776,4.55856,-0.15741876,-1.71188,1.9427761,1.4410365
1605,A,182969495113190,-3.304597,2.815581,3.555988,-0.7882957,2.3401196,0.892159
1605,A,182969533083712,-3.4003649,2.7605145,2.1787236,0.35473305,1.3534185,0.45087317
1605,A,182969574958920,-2.630629,3.084929,2.7814639,1.2333099,0.31185618,0.18322548
1605,A,182969614818399,-0.044292733,6.95755,5.133168,1.8916434,-0.13102753,-0.44900897
1605,A,182969652483921,5.9400144,19.612701,10.836756,0.5382249,-0.39228365,-0.046339005
1605,A,182969694871315,7.6967597,9.120711,4.6938324,-0.66845345,-0.30253512,0.6447513
1605,A,182969732291787,0.20829555,5.115212,4.941034,-0.12969595,0.20133498,-0.44714475
1605,A,182969772301317,-9.610924,18.268358,-7.7799582,0.22929817,-1.9369171,-0.89349055
1605,A,182969811930536,-2.5091233,4.546589,4.2293572,-0.30173615,-1.7025589,-0.18056233
1605,A,182969853843660,-5.434838,9.138069,-1.6101006,0.93450326,0.13369069,-0.67244816
1605,A,182969893560742,-3.520075,8.360553,-1.2779051,0.14434333,-0.08282431,-1.0410297
1605,A,182969933505848,-3.4566288,7.8475947,-2.2499511,-0.34328148,0.12623383,-1.2173309
1605,A,182969973369078,-1.666963,9.169194,-0.7846996,0.16751283,1.6687368,-0.99735385
1605,A,182970013319337,-0.23822308,8.884883,2.2499511,2.583,1.5590146,-0.8924253
1605,A,182970053925899,-0.11372458,8.821436,-0.57400984,3.768373,0.14247912,-0.41545314
1605,A,182970093728399,1.5149311,8.495226,2.0159178,2.7324033,-1.1853731,-0.5906891
1605,A,182970133570638,-2.2625206,10.098145,1.7687165,2.6996465,-2.4812672,-0.70840085
1605,A,182970173531420,-0.26874915,10.574591,-1.5759833,0.029294772,0.37896782,-0.43382895
1605,A,182970211453191,0.17417817,13.67568,-2.4468741,0.17949706,-0.41785,-0.31718248
1605,A,182970251350170,-1.5149311,13.926473,-0.82360536,0.81013364,0.25193503,0.10519487
1605,A,182970290873556,-2.5252843,12.442068,0.45010993,-0.7137272,-0.95634115,0.14327806
1605,A,182970330840327,-0.9415198,12.035053,-0.025737667,-1.856756,-0.6783071,0.5091964
1605,A,182970370743035,-0.5722142,8.27077,-1.5957354,-3.3198967,-0.8692558,1.5523566
1605,A,182970412901212,-1.2880806,13.842077,-2.802413,-2.7949877,0.9600696,2.098571
1605,A,182970452812565,-2.0081367,13.257892,-1.9093759,-1.805357,0.3107909,1.1677961
1605,A,182970492749283,-2.939481,14.36102,4.782418,-1.2498215,-2.2373216,0.7163904
1605,A,182970530675483,-2.8101943,7.8715367,-2.5330653,-0.3864247,-2.2301311,1.071656
1605,A,182970572528452,-1.7549498,4.207211,-3.3369186,-1.1294466,1.5731293,1.1198592
1605,A,182970612462877,-1.6154876,3.875614,-0.8062474,-1.7209347,2.5031052,1.0916297
1605,A,182970650391942,-3.098097,4.06715,3.4877534,-0.8165252,1.9259981,0.7864315
1605,A,182970692238347,-2.8760347,3.0023289,1.0031705,0.49987534,1.0330402,0.43116578
1605,A,182970732142201,-2.0649989,2.4666264,1.7340006,1.0026802,0.6064018,0.07483483
1605,A,182970772086315,-0.15203181,6.853402,6.4601545,1.8503643,-0.010652645,-0.6870956
1605,A,182970811941315,6.3033347,19.612701,9.473856,0.3057309,-1.7861822,0.49987534
1605,A,182970851849336,7.358579,8.07265,4.321534,-0.66658926,-0.37470677,0.59761333
1605,A,182970891798294,-3.2279825,8.325238,4.899135,0.2561961,-0.08548747,-0.73290193
1605,A,182970931656992,-8.957307,16.907253,-4.250905,-0.6889598,-2.2096248,-0.74488616
1605,A,182970969306732,-2.6910827,3.7738605,2.4061728,-0.4631237,-1.4429007,-0.50333744
1605,A,182971011435742,-6.0184245,10.386645,-3.1956608,0.83063996,-0.21997711,-0.74275565
1605,A,182971051293035,-2.9903579,8.938752,-1.87047,-0.047137953,0.4495416,-1.3137374
1605,A,182971091240900,-2.405574,8.756194,-1.8052281,-0.23009712,1.546764,-1.3076121
1605,A,182971131178555,-0.5410896,9.783905,2.837129,0.6831008,1.5563514,-1.0831076
1605,A,182971171081419,-0.91937345,8.560468,-1.0444705,4.272243,0.23009712,-0.6623282
1605,A,182971208766419,-0.1412579,9.596559,4.361637,3.3534524,-1.3526195,-0.39521313
1605,A,182971251103034,1.858499,8.895058,-1.7034745,1.6080167,-2.9651637,-0.6823019
1605,A,182971290798086,1.0097545,8.004415,-0.79607207,0.70014507,0.97072226,-0.83010733
1605,A,182971329920638,-1.1133038,10.301053,-0.11192893,0.76592517,0.94994956,-0.62104917
1605,A,182971370650013,-2.2104468,11.588534,-0.7218518,0.45699844,0.25992453,-0.2066613
1605,A,182971410568399,-2.722806,12.673108,-1.9099745,0.024767399,-0.4577974,0.04314321
1605,A,182971450457357,-0.9235633,13.836092,0.8984242,0.57817227,0.5701828,0.050600063
1605,A,182971488358608,0.7529764,14.234128,-1.1695676,-1.551824,-1.0013486,0.15606125
1605,A,182971528400222,-0.22804771,9.609727,-1.8800468,-2.6106968,0.019973708,0.75154406
1605,A,182971570163867,-2.9765913,11.870452,-1.9099745,-3.6266928,0.95421064,1.7891116
1605,A,182971610029648,-0.65062433,11.968615,-2.8395233,-2.637861,3.528422,1.2948289
1605,A,182971648474180,-2.8700492,13.898939,-1.1528081,-1.8192054,0.3054646,0.49827746
1605,A,182971689838815,-4.445434,11.967417,4.6142254,-1.5520903,-4.462393,1.2623384
1605,A,182971730016628,-4.4340615,4.780622,-3.6050692,-0.6266418,0.902279,1.3001553
1605,A,182971769682462,-2.1918917,4.730344,-2.142212,-2.0325246,2.0956416,1.026116
1605,A,182971809541054,-2.1894975,5.0116625,3.7834373,-1.1132014,1.4311827,1.2098742
1605,A,182971849451368,-2.6599581,4.171298,2.1936872,-0.018109497,0.60427123,0.79868203
1605,A,182971889345377,-2.9311013,3.5691562,2.3588872,0.59841233,0.1123854,0.37603834
1605,A,182971929255014,-0.16460137,4.835689,4.2102036,1.1006845,-0.12516858,-0.2282329
1605,A,182971969203501,2.8335378,14.725537,9.77373,1.1177287,0.22077605,-0.80081254
1605,A,182972009061890,8.005013,17.906235,5.667674,0.1307612,-0.49694586,0.52144694
1605,A,182972049007826,4.2880154,5.9920883,4.721366,-0.31265512,0.08894958,-0.0743022
1605,A,182972088871523,-2.778471,7.7799582,1.3724761,0.97764647,-0.76565886,-0.65487134
1605,A,182972128810952,-9.543886,18.048092,0.18016368,0.33742252,-1.3102753,-0.464189
1605,A,182972168670533,-2.0841527,5.801151,1.8195933,0.56432384,-0.664725,-0.03355583
1605,A,182972206632722,-4.743512,7.856573,-1.8471266,0.14088123,0.040746365,-0.81039995
1605,A,182972246773659,-2.767697,6.3913217,-2.734777,-0.036485307,1.1667309,-1.293231
1605,A,182972288564232,-2.8688521,9.624092,-2.0452468,-0.24341293,2.901514,-1.0937603
1605,A,182972328336107,-0.8182184,10.976816,0.7763199,1.206412,2.1334584,-0.74728304
1605,A,182972368258815,1.1348516,6.5128274,3.9378633,4.2312303,-0.4791027,-0.47670585
1605,A,182972408136888,0.3250129,8.441357,-0.7493851,3.4663706,-2.2722092,-0.06338324
1605,A,182972448189753,0.5859809,9.512163,-0.29029694,1.3179984,-1.5797871,-0.74781567
1605,A,182972487953190,-0.9295488,9.26556,-0.40462008,0.87165266,1.3680658,-0.7613978
1605,A,182972525877254,-0.6715736,11.036672,-0.7649474,0.61572284,0.6151902,-0.55340487
1605,A,182972567716367,-3.3620577,13.71698,-1.2791022,0.37310886,-0.19627498,-0.07456851
1605,A,182972607675585,-1.292869,13.248914,1.2814964,-0.13102753,-0.41199103,-0.18162759
1605,A,182972647542880,0.12689269,14.1108265,-2.4953568,-1.0450244,-0.4892227,0.1768339
1605,A,182972685326836,-0.09995792,10.404602,-0.23882163,-2.0192087,-0.5411543,1.0199907
1605,A,182972727304804,-2.2337902,8.8884735,-0.16101007,-3.6400087,0.33981937,1.412008
1605,A,182972765004752,-1.0929531,12.484565,-2.9694088,-2.5369272,2.058091,1.4628744
1605,A,182972804996991,-2.8263552,13.859435,-2.556409,-1.7409084,0.22690132,0.67058396
1605,A,182972846699023,-4.015076,12.600085,7.1514807,-1.5406387,-3.7875478,1.3062805
1605,A,182972886396106,-3.4913447,6.716933,-3.4213142,-0.65513766,-0.80587256,0.8362326
1605,A,182972926254231,-1.644218,4.6160207,-2.3145945,-1.1598067,2.3848608,0.74248934
1605,A,182972966163606,-0.34715924,4.596867,1.2533646,-1.6634104,1.1110709,1.0897655
1605,A,182973006109700,-1.9087774,3.0843303,2.7084408,-0.23435818,1.2724584,0.7502125
1605,A,182973045013970,-2.219425,2.878429,1.4532804,0.64102286,0.32597092,0.31984565
1605,A,182973086500377,-1.7729063,4.2078094,3.359065,1.5656724,0.27403927,-0.2548645
1605,A,182973126375690,-0.3393781,13.236942,8.384495,1.5110776,0.25752768,-1.0319749
1605,A,182973165992044,5.6778493,19.612701,5.3223104,-0.48176584,-0.5773733,0.8966864
1605,A,182973204306992,4.763264,5.8262897,6.217143,-0.66339344,0.0644485,0.3933489
1605,A,182973246072825,-3.618836,8.141483,5.3025584,0.7661915,-0.5318333,-0.98590225
1605,A,182973285997772,-9.378088,18.778921,-3.0992942,-0.67990506,-2.6336,-0.4596616
1605,A,182973325933710,0.5093664,3.9121256,6.066907,0.28016454,-1.6974989,-0.41625208
1605,A,182973365800534,-4.52145,9.038112,-3.6990416,0.5616607,-0.11957593,-0.6016081
1605,A,182973405777981,-3.145981,9.467272,-2.5689783,-0.5254417,0.8700547,-1.4471618
1605,A,182973443646523,-2.5899277,9.152434,-1.7022774,-0.33795515,2.2415826,-1.1467572
1605,A,182973483092825,-1.067814,9.360131,1.2054806,1.278051,1.6117451,-0.73343456
1605,A,182973523475533,-0.8822633,8.132504,2.211644,4.6062036,-0.48336375,-0.70147663
1605,A,182973565302669,0.50757074,9.518747,1.9494787,3.1068437,-1.8104169,0.040746365
1605,A,182973605279023,0.87807345,8.926781,-0.4878186,1.1840415,-2.241849,-0.6245113
1605,A,182973645438502,0.4297592,8.60117,-0.6027403,0.9321064,1.099353,-0.7680557
1605,A,182973684228970,-0.95588505,9.997588,-0.48123455,0.8359663,1.3076121,-0.69002503
1605,A,182973725164335,-1.6364368,11.277887,-0.96306765,0.44101948,-0.020240024,-0.35553202
1605,A,182973762678867,-3.2196028,12.801797,-0.9343372,0.50120693,0.010386328,0.048469532
1605,A,182973802585898,-1.0761937,13.603854,1.1869255,-0.3334278,-0.624245,-0.03542004
1605,A,182973842222044,1.3335704,12.983157,0.15322891,-1.3313142,-0.84368944,0.29188246
1605,A,182973884126418,0.729633,9.415796,-2.8658595,-2.851713,-0.44714475,1.015197
1605,A,182973923855951,-3.0585926,12.8688345,-0.4417302,-3.7025928,1.303351,1.8192054
1605,A,182973963758712,-1.6771383,12.457031,-2.468422,-1.9307919,2.330266,1.4969629
1605,A,182974003882667,-4.378995,14.243106,-1.4700398,-1.5291871,-1.8018948,0.8162589
1605,A,182974044297095,-2.6132712,8.969278,3.152565,-1.128914,-2.862898,1.1416972
1605,A,182974084108971,-3.028665,4.1162314,-2.9131448,-0.49694586,1.1379688,0.77924097
1605,A,182974123977878,-1.3144168,5.242703,-2.3469162,-1.5443672,2.4080303,0.72171664
1605,A,182974163906107,-2.0386627,5.8215013,3.2148144,-1.2090752,1.1462245,0.9515475
1605,A,182974203788137,-1.7262194,3.7104142,1.6873137,0.32836777,0.66365975,0.515588
1605,A,182974243664491,-2.1745336,3.3201592,1.1905168,0.8902948,0.5475459,0.13448964
1605,A,182974283761835,-1.4143747,4.355053,3.9348705,1.5393071,0.24261399,-0.6175871
1605,A,182974323524178,1.1288661,19.3655,9.857527,1.2524847,0.5028048,-1.2564794
1605,A,182974363456107,6.3787518,15.699978,6.4547677,-0.3898868,-0.5067996,1.1502193
1605,A,182974403341158,3.4320881,4.694431,6.181829,-0.41971418,0.13768543,0.040480047
1605,A,182974443198970,-8.265383,17.263391,-0.45669398,0.85487473,-1.0942929,-1.5150723
1605,A,182974483148398,-1.5688007,6.606201,-4.8362875,-0.49348375,-1.9044266,-0.07882957
1605,A,182974520811627,-0.86011696,4.4807487,4.214992,0.20106867,-0.41172472,-0.520648
1605,A,182974562916575,-4.8680105,10.268731,-1.822586,0.42051315,-0.46152583,-0.42237735
1605,A,182974602858865,-3.3566709,8.954314,-2.4839842,-0.3850931,0.42264366,-1.4607439
1605,A,182974642708137,-2.5115175,8.1319065,-0.40940848,-0.8341021,2.1624868,-1.0274476
1605,A,182974682813294,-0.587178,9.339781,4.0276456,2.6349316,1.6993631,-1.0349044
1605,A,182974721012147,-0.20649989,8.282741,-1.6370354,3.7462687,0.7914915,0.0644485
1605,A,182974760166834,0.38486794,10.0987425,3.7750576,2.7763455,-2.0602214,-0.52863747
1605,A,182974800188867,0.5770026,8.417415,-1.6597804,1.4556838,-2.0258667,-0.33955306
1605,A,182974840104492,-0.39384618,9.056666,-0.6374562,0.62104917,0.7499462,-0.5454154
1605,A,182974881730740,-0.90859956,10.316016,-0.4902128,1.1456919,0.8114652,-0.5616607
1605,A,182974923892302,-2.3223755,11.855488,-1.3587095,0.45167214,-0.13528858,-0.44741106
1605,A,182974963784388,-2.9981391,13.06037,-1.2743138,0.42850262,-0.2444782,-0.19627498
1605,A,182975001258814,0.48841715,13.403339,0.9283517,-0.30999196,-0.5273059,-0.1041296
1605,A,182975042291678,0.87687635,13.769652,-0.670975,-1.4109428,-0.5603291,0.32037827
1605,A,182975081694334,-0.6919243,8.839393,-1.6226702,-2.6972497,-0.042876896,1.0910971
1605,A,182975121579127,-3.4207156,10.373477,-0.2837129,-3.4000578,1.0820423,1.7478327
1605,A,182975161484492,-2.6509798,13.010691,-2.332551,-1.8666097,1.0679276,1.2727247
1605,A,182975201417875,-3.7984009,14.078505,-0.4165911,-1.5169365,-1.9406456,0.9257148
1605,A,182975241277670,-1.8872294,10.319608,3.6421793,-0.9155948,-3.606719,0.9962886
1605,A,182975281166679,-3.3931823,5.5150437,-3.763685,-0.41438788,0.79255676,0.92305166
1605,A,182975321203031,-1.0097545,5.093664,-2.7820623,-0.91319793,2.6493127,1.1257182
1605,A,182975360975065,-1.0827777,5.309741,1.9560628,-1.3803164,1.2199941,1.1345067
1605,A,182975400939127,-1.9123687,3.8486793,1.122282,0.18695392,1.1393003,0.58243334
1605,A,182975440802980,-2.356493,3.5140896,1.1372458,0.63196814,1.154214,0.1818939
1605,A,182975480706314,-2.1535845,4.3161473,3.6140475,1.3486248,0.56459016,-0.4167847
1605,A,182975519606470,-0.6979098,15.43482,8.74542,1.6727315,0.27510455,-1.3017532
1605,A,182975560504336,7.422025,19.519327,6.055535,0.18508969,-1.2748553,1.4982945
1605,A,182975598618032,5.771223,5.0906715,2.992752,-0.48869008,-0.36005938,0.22050974
1605,A,182975640350011,-2.9041667,5.7808,1.9973627,0.15313177,-0.4910869,-0.92757905
1605,A,182975680412720,-14.395737,19.612701,2.2391772,-0.6831008,-1.3009542,-0.83543366
1605,A,182975717890116,0.24001873,3.0502129,2.0991163,0.7299725,-1.4583471,-0.551807
1605,A,182975758341627,-3.5302503,8.924985,-2.7748797,0.76912093,0.5107943,-0.17150758
1605,A,182975799142929,-2.9257145,7.49445,-1.4814123,-0.39787626,0.47643954,-1.1198592
1605,A,182975839006313,-3.1597476,9.173384,-1.7890673,-1.0929613,1.2405005,-1.0524813
1605,A,182975878911886,-1.050456,9.548077,1.7316064,1.7134778,1.3020195,-0.63010395
1605,A,182975919526366,0.06464344,8.011598,-0.5093664,3.6879456,0.056459017,-0.18535602
1605,A,182975959688398,0.54288524,9.169792,0.43873745,2.7710192,-0.72943985,-0.44900897
1605,A,182975999451262,0.97862995,9.314642,2.15538,2.487126,-1.9859192,-0.7619304
1605,A,182976039399229,-0.19512744,9.919178,-0.15502456,0.71319455,0.30466563,-0.6492787
1605,A,182976079259648,-0.15741876,10.714052,-1.0336965,0.53103435,-0.24900557,-0.40559945
1605,A,182976117230896,-3.1214404,13.800777,-2.207454,0.75820196,-0.14354439,-0.35579833
1605,A,182976159106730,-1.1755531,13.241133,1.5394717,0.18482338,-0.06870956,-0.16937704
1605,A,182976198978346,-0.3537433,12.333132,-0.80684596,-0.42876893,-0.53076804,0.028229509
1605,A,182976238862512,-0.059855044,12.511499,-0.24779987,-1.6389093,-0.80560625,0.38615838
1605,A,182976278766053,-0.2765303,8.282143,-3.317765,-3.072489,-0.046339005,1.2106731
1605,A,182976318714803,-2.296638,13.065159,-0.18076223,-3.2655683,1.0966897,1.751561
1605,A,182976356342564,-2.2014685,11.751341,-3.163339,-1.7614148,0.6809703,1.1153319
1605,A,182976398598083,-3.918111,12.937668,2.2637177,-1.9920446,-1.7544906,0.773382
1605,A,182976438390740,-3.1789012,8.885481,-0.28191724,-0.89109373,-2.0173445,1.0450244
1605,A,182976478331470,-1.8788497,5.829881,-3.5511997,-0.81892204,0.41864893,1.0871024
1605,A,182976519637355,0.19632454,7.57286,0.789488,-1.2639363,2.0426445,1.4471618
1605,A,182976556271262,-1.9674352,4.7901993,1.6502035,-0.9571401,1.5478293,1.375789
1605,A,182976598060635,-1.8543092,2.2535424,1.0390835,0.060453758,1.3283848,0.7803062
1605,A,182976637938711,-2.6276364,1.8267759,3.5811272,0.7305051,0.7097325,0.1307612
1605,A,182976677811263,-1.6077064,5.9292407,4.7907977,1.8461033,-0.12250541,-0.8809737
1605,A,182976715783293,2.5785553,19.612701,10.22384,0.10333065,0.67697555,-0.95607483
1605,A,182976757689647,5.2786164,8.544906,6.347627,-0.5368933,-0.83729786,0.92012215
1605,A,182976797545273,0.961272,1.6837224,6.616975,-0.08681905,-0.4889564,-0.40772998
1605,A,182976837467406,-7.28376,14.130578,-7.041347,1.170193,-1.9363844,-2.1105552
1605,A,182976877319022,-0.58538234,11.008539,5.9400144,0.15632756,-3.0128343,-0.18588865
1605,A,182976917252458,-2.083554,5.6269727,-2.553416,1.2106731,-0.2862898,-0.59867865
1605,A,182976957768917,-2.5079262,8.631097,-2.3780408,-0.19893813,0.21571605,-0.97418433
1605,A,182976997054542,-2.3415294,9.518747,-1.6873137,-1.0996193,0.8540758,-1.4831145
1605,A,182977037013864,-0.9983821,10.511144,2.236783,0.62344605,1.7094831,-0.94941694
1605,A,182977076910793,-0.48722005,8.243237,0.3597288,3.6868804,1.1470236,-0.25752768
1605,A,182977116771885,0.11192893,7.20535,-0.43394905,2.5545042,-0.44767737,-0.032490566
1605,A,182977156666783,-0.5931635,9.621099,1.4377182,1.9808593,-2.4820662,-0.30306774
1605,A,182977196616364,0.17058687,9.126099,-0.074818805,2.3526366,-1.2162657,-0.6087986
1605,A,182977236472824,-0.87328506,10.314819,0.24061728,0.56485647,0.91799164,-0.8149273
1605,A,182977277094022,-0.010773907,10.7912655,-1.6328455,0.43995422,-0.3568636,-0.5318333
1605,A,182977316499906,-2.7168205,14.67885,-0.87448215,0.40400153,0.33529198,-0.3121225
1605,A,182977356433397,-2.4331074,12.807782,1.1725603,-0.19574234,-0.5968144,-0.032756884
1605,A,182977396075271,0.13946225,12.887389,-0.91219085,-0.95927066,-0.6468818,0.15739283
1605,A,182977436034281,0.08499416,10.171766,-0.17836803,-2.308428,-0.8796421,0.85301054
1605,A,182977475905428,-1.0923545,8.928576,-1.3706805,-3.588077,0.16777915,1.4897723
1605,A,182977515800375,-0.9888053,12.484565,-3.3195608,-2.6312032,2.1100225,1.654622
1605,A,182977553596574,-2.0757728,13.430274,-2.2900538,-1.5464977,0.9552759,0.8700547
1605,A,182977595664333,-2.9131448,14.274829,7.9607205,-1.4221281,-4.9076734,1.3885722
1605,A,182977635498397,-4.4184995,5.969343,-3.555988,-0.35739622,-0.47271112,1.0764498
1605,A,182977673223291,-1.6843209,5.133168,-3.5936968,-0.598146,2.1787322,1.0367687
1605,A,182977714731364,-1.0169371,5.2181625,0.7517793,-1.6359799,1.8775285,1.1299793
1605,A,182977755270114,-1.8836381,3.3991678,3.280655,-0.5613944,1.4788533,0.76725674
1605,A,182977792989542,-2.1583729,2.747945,1.4454993,0.6317018,0.9712549,0.18082865
1605,A,182977832877511,-1.435324,3.3848026,4.095282,1.3611417,0.32810146,-0.42770368
1605,A,182977874473969,0.1328782,16.733675,8.690353,1.1560782,0.059388492,-1.1715246
1605,A,182977914352353,5.253477,16.335638,5.843648,-0.3587278,-0.15180019,1.0282465
1605,A,182977954149126,4.5555673,3.7828386,7.5028296,-0.34860778,-1.0221212,0.15233281
1605,A,182977994095533,-5.070919,12.264896,2.8652608,1.1464908,-1.2106731,-1.7968348
1605,A,182978033958188,-1.9698294,11.121067,-4.4155064,-1.0580739,-2.3497071,-0.2050634
1605,A,182978074606260,0.12749124,4.1826706,5.79337,0.34461305,-1.020257,-0.73343456
1605,A,182978114404073,-4.7261543,10.757747,-3.2704794,0.345412,-0.2910835,-0.6532734
1605,A,182978154262354,-2.6270378,9.44333,-2.4007857,-0.6199839,0.58909124,-1.3819143
1605,A,182978194161156,-1.5616181,9.490616,-0.17956513,-0.24580978,2.010953,-1.0197244
1605,A,182978233585115,0.5434838,8.24563,4.8859673,2.5036378,1.7896442,-0.78749675
1605,A,182978271943814,-0.12389994,7.7027454,-1.1073183,4.4163203,0.566987,-0.06471482
1605,A,182978313655739,-1.3359646,9.759963,2.9981391,2.3105586,-2.9079056,-0.30786142
1605,A,182978353827041,1.0001777,8.702325,-2.082357,0.96379805,-0.73290193,-0.66392606
1605,A,182978393755272,0.44891283,9.089587,-0.6841431,0.659665,0.9177253,-0.7091998
1605,A,182978433634855,-0.84934306,10.4171715,-0.8451532,1.0519487,0.928378,-0.5137238
1605,A,182978473491626,-2.777274,12.744934,-1.6292542,0.36112466,0.17097494,-0.38748994
1605,A,182978513437718,-2.9909565,13.129204,-0.95588505,0.4825648,-0.09241169,-0.051931642
1605,A,182978551193449,-0.54647654,12.930485,1.1336545,-0.47484162,-0.62983763,-0.18136127
1605,A,182978593203760,1.4616601,13.324929,-0.20829555,-1.479386,-0.38136467,0.40613207
1605,A,182978633208344,-0.5177461,7.9547353,-1.678934,-2.7891288,-0.18322548,1.1227888
1605,A,182978673008552,-3.6709096,13.310564,-0.5758055,-3.358246,1.1739215,1.6410398
1605,A,182978713760687,-2.3409307,12.060192,-2.131438,-1.8466359,1.459146,1.0037454
1605,A,182978752867667,-4.362834,14.766837,4.091092,-1.5803198,-3.4024546,1.3318468
1605,A,182978790649021,-2.0727801,9.0794115,-0.29328972,-0.7193198,-2.7097664,0.88124
1605,A,182978830211209,-2.7856536,5.3318872,-4.329315,-0.9893644,1.8801918,0.6660566
1605,A,182978870334906,0.2645593,5.8478374,0.6063316,-1.128115,2.6860642,1.102815
1605,A,182978911878291,-2.2798786,4.8823757,3.1920695,-1.0122676,1.1992215,0.8990832
1605,A,182978951738969,-2.4768016,2.819771,1.3922282,0.29880667,0.72464615,0.5238438
1605,A,182978991685375,-2.3110032,3.0496144,2.1164744,0.93903065,0.44661212,0.12170646
1605,A,182979029907666,-1.3449428,5.932832,4.50888,1.7859159,0.025033714,-0.63196814
1605,A,182979072808552,3.8780081,19.612701,11.63582,0.69322085,-0.19387813,-0.7185209
1605,A,182979111955271,6.867768,11.128848,7.1568675,-0.6069344,-1.0024139,0.97285277
1605,A,182979151221468,0.15263036,3.5571852,5.753267,-0.124902256,0.19121496,-0.4775048
1605,A,182979191798708,-7.9673047,15.450981,-4.268862,0.70014507,-1.3510216,-1.3717943
1605,A,182979229406105,-2.4594438,7.0808516,-2.1308396,-0.23622239,-1.3558153,-0.6087986
1605,A,182979271570374,-1.5508442,8.871715,3.3734303,0.82211787,-1.3427658,-0.6956177
1605,A,182979311520636,-2.6982653,9.292496,-2.4690206,0.40426785,-0.41172472,-0.56751966
1605,A,182979351381260,-2.5360582,8.043321,-2.0883424,-0.8293084,0.9635317,-1.2655342
1605,A,182979391269177,-1.2354081,9.474455,3.8726213,-0.13768543,2.442119,-1.0295781
1605,A,182979431402041,-0.9636662,9.009979,0.19393034,3.1859398,1.5433019,-0.22743396
1605,A,182979471076156,0.6039374,6.9545574,-1.0324994,2.3441145,-0.35952675,-0.10279802
1605,A,182979511032406,-0.32321724,9.693524,1.8375498,2.624279,-2.412025,-0.50333744
1605,A,182979548794698,1.2000936,8.696339,-1.043872,1.9560919,-1.3371732,-0.53476274
1605,A,182979590847353,-0.87567925,9.691729,1.2485762,0.850081,0.6383597,-0.6356966
1605,A,182979630696104,-0.15203181,10.367492,-1.7369933,0.31451932,0.6431534,-0.72198296
1605,A,182979670653604,-2.0649989,14.283209,-1.9405005,0.12676647,-0.46818373,-0.27670243
1605,A,182979710513916,-3.1723173,13.944429,-0.22864626,0.6870956,0.37230992,0.01784318
1605,A,182979750423344,-0.6925228,13.603255,-0.2801216,-1.123854,-1.1771172,0.07057377
1605,A,182979788182250,0.5033809,10.378265,-0.7445967,-1.9675435,-0.66206187,0.6431534
1605,A,182979828189594,-0.7038953,7.9152308,-1.050456,-3.4993937,-0.14008227,1.194694
1605,A,182979868307510,-2.0320787,12.997522,-2.0590134,-2.8120317,1.768339,1.5329156
1605,A,182979909503500,-1.5209166,12.1523695,-2.4636335,-1.8184065,1.3582122,0.6607303
1605,A,182979949388187,-2.0931308,13.385982,6.3284736,-1.8586202,-2.7997813,0.82398206
1605,A,182979989248760,-2.5594015,8.485649,-1.8231846,-0.6175871,-1.8255969,0.8519452
1605,A,182980029554958,-2.433706,6.0399723,-2.5623944,-0.29161614,1.4130733,1.0828413
1605,A,182980068803083,0.24361002,6.175245,0.78888947,-0.43303,1.6008261,1.6130767
1605,A,182980109589854,-1.2216414,4.819528,1.0049661,-0.20266657,1.9374497,1.3829796
1605,A,182980149459698,-2.520496,3.163339,1.364695,0.19361182,1.4583471,0.7459514
1605,A,182980189405896,-2.9777884,2.992752,4.747702,0.79202414,0.67670923,-0.1041296
1605,A,182980227333812,0.51595044,10.553641,6.339846,1.0916297,0.47058058,-0.86020106
1605,A,182980269160374,7.225701,19.612701,9.9473095,0.1667139,-0.2396845,0.381631
1605,A,182980309121626,5.2486887,7.1287355,3.152565,-0.022903185,-1.0812434,0.45007423
1605,A,182980348981729,-0.8487445,11.568783,2.4774003,0.8245147,-0.68203557,-1.2487563
1605,A,182980388865583,-3.6182373,10.597934,-4.2024226,-0.5030711,-1.7510284,-0.17576863
1605,A,182980428824384,-3.128623,4.7297454,7.2191167,-0.89855057,-0.5946839,-0.13741912
1605,A,182980468676001,-6.239888,9.879673,-1.1815386,0.7616641,-0.050600063,-0.83063996
1605,A,182980508623448,-3.614646,7.9691005,-2.5354595,0.42530683,-0.10226539,-1.2407668
1605,A,182980546382197,-3.1148565,7.9972324,-3.2261868,-0.16591494,1.1733888,-1.0306433
1605,A,182980588387510,-0.96665895,10.788273,0.49200845,0.7307714,1.6314526,-1.0439591
1605,A,182980628350322,0.7206547,8.675988,3.0280666,3.4461305,-0.25699505,-0.87138635
1605,A,182980668196938,1.3198037,9.381081,1.1833342,3.6253612,-1.6492957,-0.21278657
1605,A,182980708105999,-0.24720132,8.383896,-1.3682863,2.183792,-4.4645233,-0.53076804
1605,A,182980746978811,0.17477672,9.533711,-1.2318168,0.4135889,0.99042964,-0.4956143
1605,A,182980787129228,-0.41359833,10.14124,-0.6206968,1.0032128,0.46152583,-0.37390783
1605,A,182980827123655,-2.043451,12.466608,-1.6053122,0.6628608,-0.09773801,-0.28229508
1605,A,182980865320895,-2.5492263,13.229161,-1.903989,0.07962852,-0.67724186,-0.006657903
1605,A,182980905466728,-2.0057425,14.389153,0.33518824,-0.07057377,-0.018908445,-0.02263687
1605,A,182980947074124,-0.79128367,13.300987,-1.3946224,-1.3768543,-0.41731736,0.61439127
1605,A,182980985029540,0.019752163,9.416395,0.25677812,-2.6351979,-0.55979645,1.2367721
1605,A,182981024938967,-1.757344,10.128072,0.0664391,-3.5744948,0.7259777,1.5374429
1605,A,182981065106363,-1.8800468,11.507132,-2.9813797,-2.1025658,1.0447581,1.1307782
1605,A,182981105023447,-2.959832,11.125257,-1.8938135,-1.9909793,-0.72970617,0.6676545
1605,A,182981146261311,-3.7187939,11.659163,6.2105594,-1.4732608,-2.4636903,0.9933591
1605,A,182981185855895,-2.9724014,5.7017913,-1.8447324,-0.9539443,-1.1206582,0.84022737
1605,A,182981224411728,0.49799395,5.4486046,-1.0474633,-0.9337043,2.4301345,1.171791
1605,A,182981264299853,-2.019509,4.8416743,1.5861586,-1.2658005,1.3073457,0.7909589
1605,A,182981304191832,-1.5987282,3.4386723,1.6867151,-0.1933455,0.7661915,0.47297743
1605,A,182981343965009,-1.8620903,3.2632968,2.2110453,0.7419567,0.58429754,0.20905815
1605,A,182981384070426,-0.6302736,4.063559,4.7758336,1.2961606,0.1603223,-0.396811
1605,A,182981424135270,0.3537433,15.921441,10.198701,1.3611417,-0.7930894,-0.995756
1605,A,182981463843134,6.6445084,18.257584,6.8569937,-0.31638354,-1.1177287,0.7704525
1605,A,182981503587353,2.9963434,6.8348475,6.9348054,-0.42797,0.28708878,0.077231675
1605,A,182981543525165,-3.3740287,10.851121,3.079542,0.42850262,-0.38748994,-0.8556737
1605,A,182981583371051,-5.9717374,14.903307,-2.885013,-1.0378339,-2.2876554,-0.76059884
1605,A,182981623243811,-1.2419921,4.185065,2.1960814,1.0141318,-1.9955066,-0.7305051
1605,A,182981663190842,-1.863886,7.8583684,-3.072958,-0.050866377,0.30786142,-0.6926882
1605,A,182981703389957,-2.110489,11.1096945,-1.6663644,-0.98403805,1.0921624,-1.3355753
1605,A,182981743707613,0.19512744,9.7563715,0.6434417,0.52810484,1.8684739,-0.79415464
1605,A,182981783233082,1.3772645,6.367978,3.5452142,2.9166942,2.1132183,-0.5336975
1605,A,182981823590270,-1.4185646,8.6017685,0.63087213,4.429902,0.29481193,-0.09081379
1605,A,182981863315061,-1.560421,8.519168,2.1930888,2.3611586,-2.7848675,-0.2314287
1605,A,182981902838134,0.5081693,8.514978,-2.3942018,0.99229383,-0.8900285,-0.95128113
1605,A,182981943166624,-0.43394905,9.794679,-0.076015905,0.3821636,1.1768509,-0.768322
1605,A,182981985047822,-1.3563153,11.298837,-1.2174516,0.89588743,0.21331921,-0.5499428
1605,A,182982024947822,-2.4720132,13.748703,-1.8441339,0.8578042,0.08175905,-0.360592
1605,A,182982064964488,-2.1027076,12.341511,0.23104046,0.48389637,-0.094009586,-0.22929817
1605,A,182982104741989,0.908001,13.10586,-0.23343466,-0.6982809,-0.6516755,-0.2759035
1605,A,182982144709748,0.15442601,12.040441,0.12689269,-1.6002935,0.008788432,0.42583945
1605,A,182982184566780,-1.0995371,8.004415,-1.6801311,-3.085272,0.2330266,1.2245215
1605,A,182982223915478,-2.6234465,13.591285,-1.0378864,-3.2762208,1.1108046,1.8290591
1605,A,182982264404175,-2.31639,12.346299,-2.1643584,-1.8050907,0.80400836,1.2066783
1605,A,182982304276676,-5.967548,14.765042,2.337938,-1.9411782,-3.0692933,1.2511531
1605,A,182982344404956,-2.223615,9.327211,1.8231846,-0.42797,-2.1353226,0.89855057
1605,A,182982382614230,-2.4552538,5.4821234,-5.192425,-0.69694924,0.9286443,0.94275904
1605,A,182982422037978,0.034715924,6.291962,-0.83976626,-1.2700615,2.441586,1.1302456
1605,A,182982463930322,-1.7076644,4.3718123,3.1262288,-1.3528858,1.4199976,1.0442255
1605,A,182982503791103,-2.498948,3.1747115,1.5676036,0.29667616,1.0620687,0.50147325
1605,A,182982541760374,-2.0530279,3.0107086,1.8261774,0.81892204,0.67937243,0.09427591
1605,A,182982583641363,-0.9283517,5.279215,3.6535518,1.6375778,0.33635727,-0.61439127
1605,A,182982623561050,3.0627825,19.612701,12.699445,0.92038846,-0.36139098,-0.98403805
1605,A,182982663450165,8.016984,11.975199,7.050924,-0.6828345,-1.2144015,1.6370451
1605,A,182982703312978,2.553416,2.7976246,5.7736173,-0.38456047,0.4146542,-0.1965413
1605,A,182982740806467,-9.3661175,19.437925,-7.7907324,0.5944176,-0.0727043,-1.6322515
1605,A,182982780763811,-3.2004492,7.021595,-1.5149311,-0.6926882,-0.479369,-1.034638
1605,A,182982820503759,-2.2619221,6.818088,1.8058267,0.84422207,-0.7483483,-0.48070058
1605,A,182982860356103,-3.1519666,8.932168,-1.9482816,0.4314321,0.10519487,-0.51718587
1605,A,182982900236103,-3.1190462,8.256405,-1.7322049,-0.54914385,1.1451592,-0.9643307
1605,A,182982940144645,-1.6915035,8.955511,4.138976,-0.09134643,2.4477115,-0.85061365
1605,A,182982980030426,-2.0494366,9.100361,0.2765303,3.9020636,1.3515543,-0.16644756
1605,A,182983019964488,1.027711,7.299921,-0.3890578,2.273008,-0.29614353,-0.1949434
1605,A,182983059840999,1.3305776,9.728839,0.24241292,2.346245,-2.7281423,-0.7094661
1605,A,182983099737509,2.1260512,8.6095495,-0.8643068,1.9909793,-0.7209177,-0.5789712
1605,A,182983139649801,-0.8086416,10.161591,0.6135142,0.97897804,0.9669938,-0.4910869
1605,A,182983179539124,-0.25677812,12.320562,-1.0971429,0.51798487,-0.33955306,-0.17150758
1605,A,182983219436832,-2.0027497,13.571532,-1.7848774,0.32170987,-0.45886266,-0.27031085
1605,A,182983259375426,-1.5334862,13.828909,0.664391,0.017576864,0.25672874,-0.3334278
1605,A,182983299252926,1.09834,13.489531,-0.5847838,-1.3885722,-0.64768076,0.007989483
1605,A,182983339325634,0.62728083,10.000581,-2.3995886,-2.6037726,0.24021713,0.9920275
1605,A,182983379247822,-2.534861,9.339781,-0.44232875,-3.8008635,1.0045444,1.7811222
1605,A,182983419192822,-1.4867992,11.280281,-1.1953052,-2.396845,1.1909657,1.3747238
1605,A,182983459055947,-3.1136594,14.610018,-2.622848,-1.8588865,-1.5164039,0.5699165
1605,A,182983498782457,-2.4241292,10.922947,4.561553,-1.5403724,-2.4256072,0.59202075
1605,A,182983538862561,-1.7980455,6.0507464,-1.2084733,-0.43329632,0.15579493,0.9504822
1605,A,182983578761520,-1.5119383,5.100847,-3.9743748,-1.0253171,2.582201,0.98856544
1605,A,182983618918759,-1.3563153,5.2289367,1.0803835,-1.169394,1.6658072,1.1467572
1605,A,182983659900790,-2.5001452,4.07553,3.3333273,0.092944324,1.464206,0.86632633
1605,A,182983698899645,-3.1866825,3.2369606,1.857302,0.7736483,0.8727179,0.5699165
1605,A,182983739705895,-0.736217,3.4422636,3.8881836,1.5456988,0.39388153,-0.1257012
1605,A,182983778511624,0.62847793,13.508086,7.03177,1.6407735,0.06231797,-1.0567423
1605,A,182983818649852,4.19943,19.612701,9.069236,-0.5523396,0.15126756,0.71505874
1605,A,182983860544280,6.5511346,5.221754,1.9961656,-0.34674358,-0.42397526,0.89349055
1605,A,182983898004332,0.20171149,5.0062757,2.2948422,0.36272255,0.9653959,-0.7861652
1605,A,182983940378132,-10.868479,19.612701,-4.1946416,-0.36432046,-1.4226607,-0.8644621
1605,A,182983980239957,-1.1623849,5.5743003,6.75943,-0.5203817,-3.559315,0.29987195
1605,A,182984022294176,-4.672883,6.4619503,-1.9566613,1.4050838,0.669785,-0.6202502
1605,A,182984060229174,-3.4039562,7.1460934,-1.8854338,0.7621967,-0.41225734,-0.8223842
1605,A,182984099998707,-3.4632127,7.591415,-4.401141,0.2130529,0.5592638,-1.1147993
1605,A,182984139850374,-2.6426,10.254366,-1.9369092,0.27643612,1.8439728,-1.1587414
1605,A,182984179790684,1.3551182,9.60853,7.4429746,2.6567695,-0.063116916,-0.97258645
1605,A,182984219732457,-0.019153614,9.029133,-2.895787,3.882889,-2.1329257,-0.14221281
1605,A,182984259597874,4.471172,9.818023,1.5173253,2.1252027,-3.078348,-0.3368899
1605,A,182984297601676,1.5676036,9.478046,0.14065935,1.8469023,-1.6540893,-0.68363345
1605,A,182984339416466,-0.8283938,9.051878,-0.55246204,0.5456817,1.3164005,-0.36139098
1605,A,182984379275529,-0.66139823,11.414356,-2.006341,0.4016047,0.2146508,-0.30333406
1605,A,182984419177873,-2.765303,13.542203,-0.6075287,0.73982614,-0.2282329,0.29188246
1605,A,182984459134123,-2.6683378,14.198813,0.4381389,-0.35153726,-0.5163869,0.0055926386
1605,A,182984498378289,1.335366,14.33229,-0.5662287,-1.2783173,-1.0258497,0.033023197
1605,A,182984539051154,0.81881696,8.941745,-1.2252327,-2.443983,-0.6218481,0.89508843
1605,A,182984578909539,-1.6962919,8.653842,0.01436521,-3.4016557,0.43116578,1.7174727
1605,A,182984618699175,-1.5622166,13.146562,-2.356493,-2.2000375,2.1917815,1.4889734
1605,A,182984658643394,-1.9835961,12.464812,-1.6424223,-1.9702066,-0.6151902,0.46818373
1605,A,182984696252821,-3.9522285,13.178285,6.333262,-1.2412994,-3.697533,0.75420725
1605,A,182984738415217,-4.0934863,4.8739963,-2.9951463,-1.0365024,-0.05539375,0.9733854
1605,A,182984778352039,-0.5506664,4.675277,-1.5442601,-1.7129452,1.4277207,0.6873619
1605,A,182984815836259,-0.54767364,5.0523643,2.2469583,-1.0929613,1.1251856,0.96299905
1605,A,182984858167664,-1.134253,3.733159,1.2503718,-0.037284255,0.72624403,0.40746364
1605,A,182984896066676,-1.0887632,3.578733,1.6232687,0.45460162,0.7688546,-0.10679276
1605,A,182984937976882,-0.6159084,4.607043,5.315128,1.478587,0.5613944,-0.6261092
1605,A,182984977838915,2.2493525,19.612701,12.63899,0.9824402,-0.2197108,-0.63223445
1605,A,182985017794957,4.8626237,11.274296,8.236652,-0.9337043,-0.82557994,0.917459
1605,A,182985057656154,2.006341,2.2122424,3.903746,-0.48363006,-1.0586065,-0.14940333
1605,A,182985097742091,-4.3329067,6.2345014,-0.6194997,0.92970955,-0.99442434,-1.0138655
1605,A,182985137453133,-7.85777,19.612701,9.261371,0.40213734,-0.76272935,-0.16831179
1605,A,182985176416102,-0.5231331,4.8027687,-2.4546554,-0.058589544,-1.5305187,-0.88656634
1605,A,182985215288861,-1.7842789,11.30123,-1.9512744,-0.33316147,0.8114652,-0.9720538
1605,A,182985257142717,-0.3549404,11.048642,-1.1031284,0.037284255,2.427205,-1.1358383
1605,A,182985295110372,1.2216414,9.40203,0.24899697,1.4937671,3.0056436,-0.5123922
1605,A,182985337003550,-1.1043255,6.540959,5.614403,3.384079,1.3014868,-0.22397186
1605,A,182985376866518,-2.1051018,7.1610575,-1.1372458,3.6093824,-2.9390647,0.4530037
1605,A,182985416756414,0.51834464,7.980473,-2.4468741,0.9893644,-1.9803267,-0.55979645
1605,A,182985456726413,0.96187055,9.344569,-0.19871874,1.463407,0.8988169,-1.2120047
1605,A,182985496562560,-0.46866497,10.111911,0.12449849,1.6847157,1.2647352,-0.71319455
1605,A,182985536501206,-2.4582467,12.651561,-0.6961141,0.14141385,-0.0396811,-0.56645435
1605,A,182985576380216,-3.3506854,14.21258,-0.49559975,0.29854035,-0.63702816,-0.025300032
1605,A,182985614410580,0.90141696,13.074736,0.61411273,-0.57364494,-1.1385014,-0.19121496
1605,A,182985656191676,2.0578163,12.404359,-0.6955156,-1.2897689,-0.8788432,0.24580978
1605,A,182985696084174,0.7344214,8.385093,-0.9283517,-2.6719496,-0.20133498,1.0785803
1605,A,182985733573811,-1.8626889,10.607511,-0.6428431,-3.6724992,1.3054816,1.7326527
1605,A,182985773775269,0.08080431,13.43207,-3.6655228,-2.1672804,2.928412,1.576325
1605,A,182985813407248,-2.7216089,14.991893,-2.7455509,-1.7446369,-0.27031085,0.777643
1605,A,182985853594853,-1.3347675,11.94168,7.3071036,-1.511344,-3.2676988,1.3930995
1605,A,182985893582144,-3.0382419,6.7043633,-2.2774844,0.007989483,0.09054748,1.1749867
1605,A,182985933677457,-2.1428106,5.127183,-3.5206735,-1.0450244,2.288987,0.9606022
1605,A,182985973067665,-1.6777369,4.350863,1.3108255,-1.6479641,2.021073,1.0892329
1605,A,182986012799800,-1.8189948,2.581548,3.6212301,-0.1882855,1.5973641,0.7070693
1605,A,182986052627873,-2.617461,2.8042088,1.7399861,0.83996105,0.34647727,0.20905815
1605,A,182986096198601,-2.1721394,5.197213,3.7134068,1.6056199,-0.015180019,-0.45886266
1605,A,182986133049800,0.9044097,15.889718,7.517793,1.0905645,0.062051654,-1.1880362
1605,A,182986174358653,7.4735007,17.840393,6.0399723,-0.5882923,-0.23489082,0.9571401
1605,A,182986214222194,3.7457285,5.6658783,6.558317,-0.63196814,0.36432046,0.14780544
1605,A,182986254903394,-7.374141,17.769167,1.6280571,0.36325517,-1.5920377,-1.867675
1605,A,182986292888185,-1.8794483,4.6525326,-2.8221653,-1.150752,-2.0037625,-0.2908172
1605,A,182986332299643,-2.2511482,3.793014,3.0591912,1.1531488,0.043942157,-0.48496163
1605,A,182986372132560,-2.991555,8.978256,-2.5151088,0.5137238,0.85061365,-0.5882923
1605,A,182986412214123,-2.8742392,11.07019,-2.8951883,-0.78589886,0.58269966,-1.5190672
1605,A,182986451864018,-0.7182605,11.41735,0.66020113,-0.31158987,1.8825886,-1.0753845
1605,A,182986491929071,-0.16400282,8.632893,2.6437972,4.674647,0.5704491,-1.1406319
1605,A,182986533032664,-0.34356794,5.6239796,3.6403837,3.7097836,-1.3443637,-0.1307612
1605,A,182986571572404,1.009156,9.629479,-0.2669535,0.8671253,-2.637861,-0.44208476
1605,A,182986612712820,0.9103952,8.491036,0.7212533,1.2863069,1.0500845,-0.66179556
1605,A,182986651615737,0.7882909,8.885481,-1.7441759,0.5137238,0.41412157,-0.6058692
1605,A,182986693000841,0.04309563,9.383475,-0.7116765,0.68150294,0.41731736,-0.38269624
1605,A,182986731348861,-2.3505075,12.218808,-1.9710265,1.186971,1.031176,-0.21065605
1605,A,182986771404851,-4.226963,13.576321,0.18016368,0.5384912,1.6658072,-0.24820662
1605,A,182986812457247,-0.59376204,13.820529,0.9068039,-0.52171326,-1.31427,-0.50600064
1605,A,182986852748341,2.284667,12.810775,-1.0384849,-1.3752564,0.030360037,0.11158645
1605,A,182986892298184,-0.09696517,7.9182234,-1.875857,-2.6439865,-0.30333406,1.067395
1605,A,182986932519538,-3.406949,11.218631,-0.29209262,-3.4924695,1.0844392,1.8564897
1605,A,182986971077924,-1.1025299,12.922704,-2.5486276,-2.0317256,2.6985812,1.7457021
1605,A,182987013105268,-4.3502645,14.794371,-1.9063832,-1.922536,-2.1451764,1.051416
1605,A,182987053024799,-1.4879963,10.477027,4.723161,-0.9760485,-2.786998,1.5579493
1605,A,182987092791570,-3.5613751,5.8107276,-2.9873652,-0.05912218,0.7289072,1.0447581
1605,A,182987132649486,-1.6430209,4.8320975,-4.2754455,-0.69109035,2.8951225,1.1006845
1605,A,182987172548549,0.30645782,4.2940006,0.14903906,-1.3536848,1.72706,1.3803164
1605,A,182987212490373,-2.983774,3.1800983,3.775656,0.09773801,1.5819178,0.6775082
1605,A,182987252533757,-2.7323828,2.915539,1.8088194,1.1667309,0.8359663,0.15925704
1605,A,182987292304381,-1.6430209,6.3859344,4.2969937,1.8421086,0.1454086,-0.6463492
1605,A,182987332352091,4.706402,19.612701,9.400234,0.28895298,0.123836994,-0.6348976
1605,A,182987372110631,6.813898,9.441534,8.301894,-0.70440614,-0.88656634,1.2831111
1605,A,182987411976310,0.93852705,1.8351556,5.368997,-0.03089267,0.11824436,-0.70467246
1605,A,182987449666622,-6.3105173,15.370176,-8.019978,0.7432883,-1.1960256,-1.9265307
1605,A,182987491174122,-3.1064768,11.566987,1.0947487,-0.6940198,-1.994974,-0.5552691
1605,A,182987530515425,-0.87807345,5.8268886,0.42556936,1.5078819,-1.382447,-0.53076804
1605,A,182987570746571,-2.1362264,8.635885,-2.5450363,0.1222391,0.6021407,-0.43542686
1605,A,182987610692975,-3.1232362,8.5299425,-2.3403323,-1.1683288,1.7190706,-1.1885688
1605,A,182987649134174,-2.1637597,9.285912,3.4979286,0.01571265,3.2858083,-0.7661915
1605,A,182987691666412,-1.4293385,8.786121,1.1252748,3.8756983,1.598163,-0.19707392
1605,A,182987729497352,0.6003461,6.642114,0.4345476,2.5896578,-0.48203218,-0.017310547
1605,A,182987771656831,-0.20470424,9.503185,0.6703765,1.841576,-3.0336068,-0.37364152
1605,A,182987808761413,0.57400984,9.139865,-0.45669398,1.7528926,-1.1765846,-0.67937243
1605,A,182987848571257,-1.2431892,9.485827,0.43275195,1.4042848,1.3837786,-0.6306366
1605,A,182987888537038,-0.7703344,11.1899,-0.47105917,0.17496969,0.03781689,-0.7384946
1605,A,182987930248288,-1.6819267,14.012066,-1.6478093,0.034088463,-0.95474327,-0.34194988
1605,A,182987970060788,1.1947067,13.214198,-1.7645266,0.13741912,-0.13662016,-0.21997711
1605,A,182988009920216,0.5482722,11.960834,2.4265234,-0.38695732,-0.37390783,0.07989483
1605,A,182988049825789,0.038905777,11.061212,-0.11911154,-2.0453076,-0.39468047,0.6431534
1605,A,182988089777297,-1.0773908,8.300098,-2.2816741,-3.503921,0.55287224,1.1504856
1605,A,182988130382716,-1.8561049,14.037803,-2.3421278,-2.784335,2.0162792,1.8080201
1605,A,182988170179278,-3.0879216,14.442423,-2.0141222,-1.8327875,0.0,1.0162623
1605,A,182988210042298,-2.9388826,11.563994,6.4218473,-2.0074909,-3.3907368,1.4937671
1605,A,182988248074122,-2.825158,6.423643,-2.6874914,-0.6098639,-0.65700185,0.8841695
1605,A,182988289896673,-1.5239093,5.0613422,-3.9378633,-1.0745856,1.8298581,0.86366314
1605,A,182988327434694,-0.033518825,6.1112,1.3617022,-1.490305,1.7070863,1.071656
1605,A,182988368122195,-2.6713305,4.687248,3.1334114,-0.33289513,1.3480922,0.81705785
1605,A,182988407036726,-2.6593595,2.32058,1.6316484,0.6543387,0.60773337,0.53316486
1605,A,182988447074278,-2.552219,2.4193408,3.618836,1.6482304,-0.03568636,0.0026631611
1605,A,182988488778287,-0.23942018,10.602123,7.0126166,1.9771309,-0.0727043,-1.1563445
1605,A,182988529513965,6.8043213,19.612701,8.5143795,-0.06684534,-0.60906494,0.70174295
1605,A,182988569221308,6.3458314,5.723339,6.6265516,-0.18535602,-1.2263857,0.3603257
1605,A,182988608882819,-4.4597993,9.178172,2.6378117,0.89136004,-0.66658926,-1.2466258
1605,A,182988646874121,-4.3538556,14.3574295,-2.8407204,-0.70440614,-2.057292,-0.34594464
1605,A,182988686535371,-1.4909891,3.6403837,0.5081693,-0.12010857,-1.2492889,-0.67218184
1605,A,182988726223028,-4.9799395,10.365098,-2.4678235,1.1006845,-0.9062737,-0.44874266
1605,A,182988767260840,-2.5007436,8.546103,-2.2625206,0.07856325,0.1486044,-1.2306467
1605,A,182988808789537,-2.754529,8.508394,-2.529474,-0.8149273,1.6644757,-1.1957593
1605,A,182988846132923,-5.985504E-4,10.12448,5.230732,2.232528,1.4527544,-1.0554107
1605,A,182988886227246,-0.04129998,8.091804,-1.9123687,3.4748926,0.14753912,-0.06737798
1605,A,182988925897402,2.2122424,8.875306,3.453636,2.3603597,-1.711081,-0.4577974
1605,A,182988967831569,0.6512229,8.021174,0.6901286,2.763296,-2.6727486,-0.54408383
1605,A,182989007551517,0.17238252,8.7370405,-0.79248077,0.784301,1.1851068,-0.7395598
1605,A,182989047740006,0.29388827,11.1899,-0.7733272,0.3619236,0.6037386,-0.52650696
1605,A,182989087395110,-1.5292963,12.904149,-2.1266496,0.06897587,-0.902279,-0.15286545
1605,A,182989127990736,-1.3239936,13.063363,-2.0009542,0.28043085,0.07563378,0.09614012
1605,A,182989167742091,-2.4199393,13.330317,1.0726024,0.24208134,0.18801917,0.08175905
1605,A,182989207693912,1.0307038,12.597691,0.2148796,-1.6375778,-1.6162724,0.096939065
1605,A,182989247563757,1.0654198,7.845799,-3.063381,-3.004312,-0.5203817,0.7470167
1605,A,182989287719018,-2.3343468,12.375628,-1.06123,-3.5715654,1.0128002,1.5483619
1605,A,182989327341153,0.58418524,12.32116,-1.9662381,-2.0018983,3.3952641,1.3640711
1605,A,182989367271673,-1.893215,14.545374,-0.05327099,-1.6556873,-1.2152004,0.64049023
1605,A,182989407146152,-1.5628152,10.279505,3.0831332,-1.376588,-3.752394,1.2434299
1605,A,182989447118183,-4.745308,5.8885393,-4.2383356,0.31664985,1.9845877,1.3166668
1605,A,182989486972037,-1.271321,5.0541596,-1.6089035,-0.793622,2.2594259,1.5459651
1605,A,182989526858600,-2.6360161,5.1481323,2.1260512,-0.9635317,1.670601,1.2397015
1605,A,182989564343027,-2.6623523,2.6982653,1.7531542,0.59574914,1.3086774,0.7803062
1605,A,182989606911724,-3.4542346,2.2278047,3.1615434,1.1108046,0.30253512,0.14780544
1605,A,182989646592820,-1.2425907,7.016208,4.9841294,1.841576,-0.11371698,-1.0418286
1605,A,182989686483703,7.114969,19.612701,12.099697,-0.24021713,0.5701828,-0.42077947
1605,A,182989726394226,7.8505874,7.1867948,4.9901147,0.175236,-2.5166874,1.2450278
1605,A,182989766365787,-1.9596541,1.4939818,1.0576386,0.0958738,-0.7366304,-0.8021441
1605,A,182989806213131,-10.752958,19.612701,-10.633847,-0.9901633,-0.7603325,-1.8833876
1605,A,182989843999069,1.6256629,4.6501384,5.997475,0.41891524,-1.7422401,-0.27483824
1605,A,182989883852662,-2.896984,6.9826894,-3.2106245,1.3499564,0.8279768,-0.21331921
1605,A,182989923795006,-1.8004397,8.210915,-2.4193408,-0.31185618,0.8245147,-1.1299793
1605,A,182989965411829,-2.597709,9.176376,-3.040636,-0.80400836,1.8005632,-1.1494204
1605,A,182990005119225,-1.347337,9.344569,0.50517654,1.2926984,1.8453044,-0.73636407
1605,A,182990045064433,-1.0217255,8.575432,2.8508956,3.949468,-0.5952165,-0.39041942
1605,A,182990084930110,0.82480246,7.565677,0.28072014,3.047189,-2.2034996,0.08522116
1605,A,182990125573912,1.4784195,8.782531,-0.7068881,1.8783276,-2.842392,-0.92065483
1605,A,182990165446360,0.12868834,10.371083,0.4249708,1.1664646,1.4426343,-1.0042781
1605,A,182990205249225,-0.46208093,10.879851,-1.009156,0.41438788,0.73316824,-0.6562029
1605,A,182990245141674,-1.3640964,14.562732,-0.3477578,0.028495824,-0.7302388,-0.15180019
1605,A,182990284236932,-1.6262615,12.729372,-0.08559271,0.26205507,-0.22077605,0.15472966
1605,A,182990323184695,0.32202014,12.058995,1.827973,-0.9089369,-1.310009,0.11930962
1605,A,182990364960631,1.1935096,11.4359045,0.5201403,-2.2887206,-0.8929579,0.51931643
1605,A,182990403162245,-0.22864626,7.216124,-2.9352913,-3.8698394,0.5784386,1.2351742
1605,A,182990444705215,-1.0001777,16.025589,-2.9131448,-2.680738,2.7872643,2.0306604
1605,A,182990484556880,-1.851915,15.143326,-2.2780828,-1.6831179,0.47137952,0.6463492
1605,A,182990524035371,-3.5362358,11.669938,7.7919292,-2.3036344,-3.641873,1.190433
1605,A,182990562494278,-3.417723,7.089231,-3.58412,-0.9534117,-0.44661212,1.0538129
1605,A,182990604321723,-2.119467,5.159505,-5.099051,-0.40852892,2.6184201,1.190433
1605,A,182990644180318,-0.076015905,6.4266357,0.93373865,-1.4937671,1.4069481,1.6687368
1605,A,182990684073965,-2.7593174,4.5723267,2.7455509,-0.2793656,1.5275892,1.158475
1605,A,182990721730944,-2.1386206,0.6003461,1.8195933,0.5387575,1.1257182,0.7187872
1605,A,182990761752402,-3.2962172,1.6244658,4.7644615,1.5470303,0.21624869,0.01571265
1605,A,182990801664433,0.43514615,13.941437,9.041702,1.6072178,0.0,-1.2695289
1605,A,182990841448652,5.895722,19.612701,8.078036,0.024234766,-0.17923075,0.3075951
1605,A,182990883044432,3.1477766,3.57993,6.8557963,0.51718587,-1.7073526,0.22743396
1605,A,182990922446984,-2.4690206,1.6041151,-0.7457938,0.81705785,-1.6455673,-0.8809737
1605,A,182990962816516,-12.042236,19.612701,-8.47727,0.1206412,-1.1470236,-0.7954862
1605,A,182991002759120,4.2221746,9.726444,12.148778,-0.29561087,-4.0631847,-1.0034791
1605,A,182991040899017,-3.3692403,8.692748,-3.965995,1.267931,-0.7621967,-0.31265512
1605,A,182991083264068,-2.480393,6.2225304,-2.6839,0.10333065,1.3883059,-1.0098706
1605,A,182991121819640,-3.436278,11.575965,-1.8920178,-0.3669836,1.5068166,-1.2293152
1605,A,182991163260062,0.25079262,9.727043,0.8343793,1.2098742,0.5550028,-0.82344943
1605,A,182991202889378,1.1007342,6.528988,5.985504E-4,3.1686292,-0.37257624,-0.54195327
1605,A,182991242813649,0.9720459,8.535329,-1.702876,2.474343,-0.5611281,-0.6982809
1605,A,182991282631468,-1.0737995,11.145607,4.1395745,3.4775558,-0.6002765,-0.5768407
1605,A,182991323469225,-1.7705121,10.293272,-1.7399861,0.79894835,-1.1739215,-0.8996158
1605,A,182991360510682,1.6286557,12.365453,-1.9075803,0.016777916,-0.22583607,-0.65700185
1605,A,182991400100787,0.41838676,13.8163395,-0.4842273,0.63862604,0.17070863,-0.14647387
1605,A,182991440105527,-0.8948329,12.37922,0.64583594,-0.5187838,-0.5067996,0.15925704
1605,A,182991481701412,-1.3874398,11.625047,-0.090381116,-1.2655342,-0.9076053,0.48070058
1605,A,182991519849224,-0.079008654,8.377312,-1.8154035,-2.7491813,-0.47351006,1.1171961
1605,A,182991560018549,-1.0055647,14.6585,-1.0444705,-3.5617118,0.5163869,1.9768645
1605,A,182991601313286,-0.4165911,12.823943,-3.093907,-2.20057,2.1092236,1.3382385
1605,A,182991641177716,-2.7150247,12.899361,-1.2904748,-1.9483687,-0.1603223,0.7318367
1605,A,182991681806568,-3.9815574,11.092935,5.823297,-1.4833808,-3.3172336,1.3113406
1605,A,182991721615993,-3.2345665,4.720767,-3.1160536,-0.7323693,0.7012103,0.90281165
1605,A,182991761473497,-1.0965444,5.249287,-3.9103298,-1.5137408,2.3699472,0.92092115
1605,A,182991799145996,-2.3786395,4.717176,3.5697548,-1.4596786,1.7931064,0.88443583
1605,A,182991841321411,-2.9191303,3.3207579,1.9758149,0.15073492,0.36218992,0.54834485
1605,A,182991881188600,-2.2008698,2.4774003,1.560421,0.8367652,0.1355549,0.17337179
1605,A,182991921088547,-0.4225766,4.2275615,4.647744,2.0301278,-0.072970614,-0.5629923
1605,A,182991961002194,4.9176903,19.612701,11.677719,0.5456817,-0.38695732,-0.77391464
1605,A,182992000943494,6.023213,10.547057,8.89805,-0.7566041,-0.64741445,0.6711166
1605,A,182992040811048,-2.4133554,2.219425,4.1341877,0.31771514,-1.0508834,-0.4396879
1605,A,182992080701725,-11.049241,19.612701,-7.5944076,0.12836437,-1.4799186,-1.5006913
1605,A,182992120670056,-0.8158242,5.7269306,0.7625532,0.2972088,-1.5744609,-0.5339638
1605,A,182992160513755,-3.071761,8.541913,-1.9231426,0.9078716,-1.0578076,-0.5832323
1605,A,182992200483651,-1.2479776,9.82341,-2.136825,-0.44075316,0.20532973,-1.197091
1605,A,182992240334224,-1.8130093,9.997588,1.0121487,-0.7882957,1.7267936,-1.412008
1605,A,182992280231776,-0.36391866,8.539519,2.067393,2.6865969,1.3744575,-0.88869685
1605,A,182992320168495,0.4441244,7.1993647,-2.078167,2.816293,0.4013384,-0.16405073
1605,A,182992360039849,0.7356185,9.752781,2.3259668,1.8905782,-1.4114754,-0.5139901
1605,A,182992397813339,0.32800564,8.447941,-0.8122329,2.6288064,-1.4426343,-0.59841233
1605,A,182992437886151,-0.7116765,8.658031,0.10594343,1.4476944,0.7209177,-0.7416904
1605,A,182992479049120,-0.029927522,11.376049,-0.15682021,0.55793226,0.91799164,-0.92331797
1605,A,182992519477765,-1.4000094,13.166912,-2.31639,-0.009853696,-0.8546084,-0.44661212
1605,A,182992557546881,-1.9967642,13.506889,-2.0572178,0.5954828,-0.59148806,0.082025364
1605,A,182992598635161,-1.5771804,11.230601,2.8568811,0.28336033,0.79042625,-0.23462449
1605,A,182992638201881,0.52253455,12.360066,-0.16220717,-1.4796523,-0.64847976,0.45034054
1605,A,182992679459745,-0.18674773,7.635708,-1.22224,-2.8035097,-0.47351006,1.2556804
1605,A,182992719610266,-1.6454151,14.100651,-1.2401965,-3.3465283,0.49987534,1.6711336
1605,A,182992759070943,-1.3563153,12.874221,-2.6001031,-2.0762005,1.4623418,1.4466292
1605,A,182992799019379,-4.4274774,14.680646,0.6015432,-1.8431739,-1.2104068,1.0873687
1605,A,182992838898235,-1.6591818,10.229227,4.727351,-1.0879014,-3.2778187,1.3531522
1605,A,182992878794850,-4.64535,6.329671,-2.9682117,-0.39468047,0.036751624,0.86872315
1605,A,182992918752142,-1.2180501,4.775235,-5.0918684,-1.1494204,2.8061728,1.2668657
1605,A,182992957692453,-1.3066356,3.3327289,2.690484,-2.1965754,1.4671354,1.0612698
1605,A,182992998604015,-1.1486182,3.4183214,2.190096,0.014647386,1.3422332,0.5858955
1605,A,182993038410215,-2.0638018,3.8618474,2.8874073,0.93450326,0.74435353,0.1470065
1605,A,182993078310109,-0.37828386,5.228338,4.9440265,2.002431,0.21385184,-0.6841661
1605,A,182993118250838,4.7141833,19.612701,11.601703,0.4609932,-0.06657903,-0.55766594
1605,A,182993158182090,6.830059,8.910022,9.941922,-0.9835054,-0.64555025,0.8825716
1605,A,182993198082662,-2.2385786,3.2555158,5.5204306,0.48735848,-0.6250439,-0.845021
1605,A,182993237932505,-11.919533,19.612701,-11.2210245,0.5041364,-3.1907334,-1.8546255
1605,A,182993277841777,-1.0821792,4.853047,-2.156577,-0.31851408,-0.9353022,-0.38029942
1605,A,182993317786985,-3.2920272,8.734048,-0.89782566,0.65460503,0.108124346,-1.3044163
1605,A,182993357640474,-1.7794905,9.336189,-1.4508862,-0.34567833,0.73316824,-1.0612698
1605,A,182993395444432,-2.4768016,10.998962,0.42916065,-0.6628608,1.3795174,-1.2812468
1605,A,182993435297088,-0.694917,9.516354,2.2481554,2.7513118,0.66552395,-0.9901633
1605,A,182993476867453,0.5674258,7.2382703,-1.3503298,2.9603698,-0.4775048,-0.021837922
1605,A,182993520100369,0.076015905,7.493851,-0.50876784,1.7084179,-1.5414376,-0.5219796
1605,A,182993555110214,0.18734628,8.98903,-0.25139117,2.4559672,-1.8692728,-0.6535397
1605,A,182993596450214,0.14963761,9.10455,0.31304187,2.6083,0.13954964,-0.8655274
1605,A,182993636195264,-1.3024458,10.784681,1.4706384,0.4878911,0.6801714,-0.8940232
1605,A,182993677021985,0.78170687,12.349293,-2.6168625,-0.087618,-1.0602045,-0.47510794
1605,A,182993716763024,-1.8088194,13.107058,-2.2457612,0.4993427,-0.26312032,0.07163903
1605,A,182993756684120,-1.5592239,12.117653,1.7699136,0.17417073,0.43755737,-0.18402444
1605,A,182993796569224,-0.9044097,13.538612,-0.9115923,-1.4620755,-0.81226414,0.053795855
1605,A,182993834247870,-0.5351041,8.857947,-0.7517793,-2.5454495,-0.4316984,0.9350359
1605,A,182993876372817,-1.3144168,10.737994,-1.0821792,-3.4184337,-0.031158986,1.7081516
1605,A,182993916805421,-0.20410569,11.739369,-3.17531,-2.211489,1.4008228,1.6708673
1605,A,182993956912921,-2.5013423,14.404116,-2.755726,-1.4610102,-0.010652645,1.0293118
1605,A,182993996101723,-0.22984336,12.6539545,6.9838862,-1.1291803,-4.063984,1.4892397
1605,A,182994035996879,-2.7581203,6.658275,-3.2213984,0.22556975,0.5190501,1.2386363
1605,A,182994073962452,-2.9125464,5.4779334,-3.7924154,-0.9765812,2.4602282,0.9733854
1605,A,182994113672869,-1.7549498,5.1170077,1.2779051,-1.3129385,2.1526332,1.165133
1605,A,182994153300213,-2.6426,2.4157495,3.043629,-0.040213734,1.3052152,0.7097325
1605,A,182994195203858,-2.8209682,3.4237084,1.3323733,0.7012103,0.958738,0.2561961
1605,A,182994234926775,-0.97264445,4.537611,3.6762967,1.3752564,0.45193845,-0.45247108
1605,A,182994274818598,1.5095441,19.394829,7.145495,1.1789814,-0.1603223,-1.1896341
1605,A,182994314457818,9.039309,15.346833,5.7185507,-0.19707392,-0.80533993,1.3225259
1605,A,182994352971307,4.175488,4.961983,4.361637,-0.38242993,-0.44528055,-0.19228023
1605,A,182994394423285,-8.264186,19.612701,-5.2702365,0.018109497,-1.5912387,-1.6125441
1605,A,182994435274641,-2.9670146,5.881955,-1.3401544,-1.5110776,-2.6367958,-0.49401638
1605,A,182994473552556,-1.6657659,4.1299977,0.49200845,1.6644757,0.8644621,-0.31957933
1605,A,182994514887765,-2.695871,9.727043,-2.1757307,0.26684874,0.7139935,-0.6010755
1605,A,182994552520057,-2.930503,10.242394,-3.0172927,-1.1009508,-0.06338324,-1.4791197
1605,A,182994594653547,-1.0486604,9.123106,0.4902128,-0.36991307,1.5275892,-1.2359731
1605,A,182994634605473,0.46926352,7.877522,2.541445,3.5952675,1.2615395,-0.75447357
1605,A,182994674063286,0.8439561,8.050503,-2.3421278,3.2101743,1.1150656,-0.10279802
1605,A,182994714417402,-1.3623008,8.941745,3.8534677,2.5691516,-0.40213734,-0.44821003
1605,A,182994751894589,-0.59735334,8.634089,-0.12389994,1.937716,-1.7145431,-0.52863747
1605,A,182994792035787,-1.1450269,10.219051,0.010175358,1.2642026,0.25406557,-0.85487473
1605,A,182994833625631,0.7763199,11.395802,-1.2605472,0.2580603,0.32783514,-0.793622
1605,A,182994873432555,-1.5370775,14.275428,-1.5053543,0.15499598,-0.18056233,-0.14168017
1605,A,182994911782505,-1.775899,13.557167,0.046686932,0.30466563,0.048469532,0.024767399
1605,A,182994953242765,-1.5652094,11.438897,0.80445176,-0.6346313,-1.0482203,0.07829694
1605,A,182994993097400,-0.20111294,10.048465,0.4770447,-1.8114822,-0.69109035,0.5640575
1605,A,182995033729223,0.46567222,7.7207017,-2.0260932,-3.2980587,-0.20532973,1.3230585
1605,A,182995073555942,-1.8794483,15.19959,-3.1663318,-2.5704832,1.2141352,1.7741979
1605,A,182995111377556,-2.1733365,12.639589,-2.778471,-2.0282636,1.030377,1.1174624
1605,A,182995150985265,-3.3746274,14.499286,8.27496,-1.4290522,-2.2815301,1.2588763
1605,A,182995191255056,-4.1036615,7.277176,-2.2421699,-0.76086515,-3.0256174,0.9968212
1605,A,182995230515785,-3.067571,4.50888,-5.1158104,-0.8359663,1.4767228,0.86206526
1605,A,182995270426931,0.57400984,6.0118403,1.0414777,-1.4351776,2.0551615,1.0333065
1605,A,182995310322504,-1.4640543,4.7441106,3.7421372,-0.78989357,1.3249227,0.77444726
1605,A,182995350169952,-2.0147207,3.7056258,1.0402806,0.46205845,0.79708415,0.37417415
1605,A,182995390122712,-1.6813282,3.3273418,2.995745,1.0282465,0.60054284,0.009054748
1605,A,182995430163390,0.30466217,9.284116,6.049549,1.7145431,0.16644756,-0.72011876
1605,A,182995469997504,6.873753,19.612701,7.542334,-0.36778256,-0.6279734,0.35153726
1605,A,182995510044327,4.9338512,6.4008985,7.7248917,-0.44528055,-0.92757905,0.44341633
1605,A,182995550215577,-3.016694,6.4978633,4.747103,0.68389976,-0.8900285,-0.9129316
1605,A,182995590050681,-10.064027,19.612701,-5.448006,-1.2479573,-2.051433,-0.72171664
1605,A,182995629900942,0.16160862,4.1701007,4.3023806,0.19760656,-1.3456954,-0.732103
1605,A,182995669807452,-2.5995045,8.362348,-3.489549,0.68842715,0.33768883,-0.4530037
1605,A,182995709809483,-2.0751743,11.152191,-2.509722,-0.86606,1.5177355,-1.3992249
1605,A,182995749516619,-1.122282,10.01734,0.26635495,-0.22237396,2.130529,-1.215733
1605,A,182995791778754,1.4754268,7.01142,4.7506948,2.54252,1.4325144,-0.49881008
1605,A,182995829261827,-0.20829555,8.276755,-1.0348936,4.1670485,-0.02609898,-0.06524745
1605,A,182995869049952,-2.0171149,8.951322,2.6485856,2.4748757,-2.1132183,-0.11744541
1605,A,182995908912660,0.23283611,8.661623,-2.0410569,1.1781825,-1.1060108,-0.9416938
1605,A,182995948798910,0.748188,9.913791,-0.7493851,0.46205845,0.9472864,-0.97285277
1605,A,182995989915421,-0.30765492,10.425551,-0.92176765,0.9190569,0.39894155,-0.57417756
1605,A,182996028823025,-2.597709,13.133992,-1.3796587,0.69002503,0.29294774,-0.3009372
1605,A,182996068983963,-3.7463272,12.656349,0.76075757,0.69668293,-0.22450449,-0.13156016
1605,A,182996108859275,1.7878702,13.205219,-0.55365914,-1.0863035,-0.96299905,-0.32623723
1605,A,182996148641515,2.054225,13.023859,-0.60094464,-1.7142768,0.36991307,0.4359595
1605,A,182996188564275,-1.1216835,7.419631,-2.1936872,-3.0535805,0.6849651,1.350489
1605,A,182996228312869,-3.2321723,14.942213,-0.010175358,-3.1880703,1.4767228,1.8255969
1605,A,182996270076462,-4.349067,14.049774,-2.6360161,-1.8564897,-0.057257965,1.3116069
1605,A,182996311917867,-2.9161377,12.219407,2.32058,-1.6974989,-3.3838124,1.7398431
1605,A,182996351923078,-0.59495914,9.356541,0.66020113,-0.43409526,-2.1174793,0.9243832
1605,A,182996387769797,-1.1420342,5.3342814,-4.685453,-0.69801456,1.6378441,1.0484866
1605,A,182996427606203,0.82599956,5.415086,-0.90620536,-1.7044232,2.6314695,1.1342404
1605,A,182996467755474,-2.891597,3.8031895,3.4835634,-1.1981562,1.7345169,0.8005462
1605,A,182996507443390,-2.6156654,2.8281507,1.5448587,0.20373182,0.92970955,0.3834952
1605,A,182996547408963,-2.3786395,2.9981391,2.6779146,1.073254,0.49614692,-0.018908445
1605,A,182996587202973,-1.751957,5.386954,4.6142254,2.0828583,-0.52171326,-0.6287723
1605,A,182996627133702,2.9364884,19.612701,9.831191,1.1733888,-0.043409526,-0.97045594
1605,A,182996667035942,8.687361,11.495759,5.3486466,-0.68363345,-0.8956211,1.3054816
1605,A,182996707080525,4.9242744,3.9384618,6.7809777,-0.36618465,-0.15446335,-0.17390442
1605,A,182996747078494,-4.574721,11.744158,0.6811504,0.6897587,-1.4729944,-1.4460965
1605,A,182996786925212,-6.3847375,12.765883,0.40880993,-1.3896375,-1.5193335,-0.5707154
1605,A,182996826770733,-1.9835961,6.618172,-1.6214731,0.9691243,-0.45992792,-0.5701828
1605,A,182996866635473,-2.1745336,9.721058,-2.3828292,-0.30812773,0.85700524,-0.7882957
1605,A,182996906815576,-2.0787656,9.977836,-1.8501194,-0.845021,2.1981733,-1.3092101
1605,A,182996948364222,-0.9295488,10.189722,1.7244238,0.97258645,2.8186898,-0.79229045
1605,A,182996988267399,0.10175357,7.529764,2.8167782,3.8658447,0.8253136,-0.515588
1605,A,182997028213441,-1.1432313,6.983288,1.7681179,3.653058,-1.5393071,0.17710021
1605,A,182997066735577,-0.2136825,9.169194,-0.36391866,1.7390442,-3.2879388,-0.47164583
1605,A,182997108803440,1.3239936,8.626907,-0.85532856,0.9579391,0.7456851,-1.1800467
1605,A,182997148519171,0.6147113,10.042479,-0.076614454,0.8974853,1.3776532,-0.9241169
1605,A,182997188423077,-0.03232172,11.326968,-1.0474633,0.45513424,1.0373013,-0.5813681
1605,A,182997228440992,-3.164536,13.4500265,-0.89184016,0.15233281,-0.08974853,0.08016115
1605,A,182997268220680,-2.565387,12.925696,-0.5446809,0.09773801,0.25220135,-0.18508969
1605,A,182997308179430,1.0642227,11.757326,1.4550761,-0.99442434,-1.4820492,-0.06471482
1605,A,182997348045838,1.1504139,10.810419,-0.6422446,-2.133991,-0.3888215,0.6064018
1605,A,182997385979223,-0.8265981,8.9124155,-2.4271219,-3.7931404,1.1297129,1.2053467
1605,A,182997425694795,-1.6041151,13.621212,-2.0165164,-2.1739385,2.9164279,1.7065537
1605,A,182997465594483,-4.4520183,14.754867,-2.4582467,-1.6263925,-0.72278196,0.9467538
1605,A,182997507198180,0.3250129,10.67395,7.3071036,-1.6002935,-4.218447,1.5496935
1605,A,182997546688545,-2.6126726,6.5457473,-3.5930982,-0.3254383,0.37790257,0.9528791
1605,A,182997586859587,-2.0620062,4.900931,-4.9099092,-0.29134983,2.5262747,1.0468886
1605,A,182997625106930,-0.3441665,6.266823,-0.28670564,-1.2974921,2.1683457,1.1683288
1605,A,182997670071618,-3.4314895,5.2061915,3.5751417,-0.60773337,1.5512913,0.8338358
1605,A,182997707317816,-3.7457285,3.3686419,1.192911,0.81412834,0.8213189,0.72970617
1605,A,182997744829743,-3.6936548,3.819949,3.4847605,1.3851101,0.1736381,0.19387813
1605,A,182997786971670,2.2361844,14.136564,9.52593,1.5033544,0.39574575,-0.85487473
1605,A,182997826889170,9.01776,17.258005,6.3871317,-0.16564862,-0.86179894,0.93929696
1605,A,182997866790680,4.9135003,3.7972038,4.763264,-0.3387541,-0.9869675,-0.032756884
1605,A,182997906723389,-4.718373,12.3834095,-2.4552538,0.93610114,-1.654622,-1.7459685
1605,A,182997946592138,-4.8865657,12.294226,-0.9151836,-1.8612833,-2.7502465,-0.39468047
1605,A,182997984238180,-1.1839328,5.1547165,1.7555484,1.2777847,-0.007456851,-0.41998053
1605,A,182998026454899,-3.2315738,9.123106,-2.8622682,0.381631,0.5115933,-0.37284255
1605,A,182998066306722,-3.0095115,7.9529395,-3.9163153,-0.081226416,1.2492889,-1.3126721
1605,A,182998106215732,-1.869273,9.116522,-1.4359225,0.52624065,2.5579662,-0.8860337
1605,A,182998146159586,0.5410896,9.108741,6.2003837,1.9140139,0.8562063,-0.8117315
1605,A,182998186029743,-1.4377182,8.8777,-1.5340848,4.4663877,-1.9718045,-0.29214877
1605,A,182998225919170,2.1398177,7.6560583,0.0664391,2.2985744,-2.3094933,-0.42211103
1605,A,182998265876566,1.3617022,10.402806,0.33997664,1.7891116,-0.85487473,-1.0189254
1605,A,182998305733284,-0.8822633,10.380061,0.2184709,0.6956177,1.2524847,-0.80107886
1605,A,182998345635316,0.33638534,11.772888,-2.1308396,-0.01917476,-0.22770028,-0.55766594
1605,A,182998384649950,-2.496554,14.237121,-1.7531542,0.5049353,-0.76912093,0.11025487
1605,A,182998423292191,-2.0883424,12.156559,1.3664906,0.27883297,0.61678815,-0.05912218
1605,A,182998463190733,0.059855044,12.795811,-0.5823896,-1.0804445,-1.1757857,0.12250541
1605,A,182998504780680,0.6512229,10.277111,-0.12449849,-2.288987,-0.70813453,0.6564692
1605,A,182998544137659,-0.14305355,9.712678,-2.40318,-3.676494,0.41305628,1.4101439
1605,A,182998584453752,-0.587178,12.737153,-2.0649989,-2.5318673,2.2759376,1.9350529
1605,A,182998624398179,-2.4121583,13.545197,-2.9735985,-1.6711336,-0.011451593,0.65194184
1605,A,182998662978441,-2.7018566,12.78384,7.7847466,-2.1217406,-3.205647,1.4524881
1605,A,182998704913960,-2.9963434,5.9412117,-1.9183542,-0.0013315806,0.4016047,1.1251856
1605,A,182998744678076,-0.9828198,5.2439003,-5.8244944,-1.0532802,2.3137543,1.1757857
1605,A,182998784733752,-1.3652935,5.379173,1.6759412,-1.8682076,1.5355787,1.1933625
1605,A,182998822557503,-2.6497827,3.9384618,2.4480712,-0.0058589545,1.3491575,1.0277139
1605,A,182998864377033,-1.7238252,1.9686323,2.1883004,0.8929579,0.9406285,0.63436496
1605,A,182998904334531,-1.0618285,3.602675,4.408922,1.881257,0.24580978,-0.38456047
1605,A,182998944180941,2.3810337,19.612701,9.816826,1.0847056,0.8791095,-1.3068131
1605,A,182998984107295,7.2604165,13.345879,11.954249,-0.40240365,-0.6841661,0.9930928
1605,A,182999024058440,1.5275006,1.5771804,3.1381998,0.30519825,-1.1640677,0.0314253
1605,A,182999063896929,-10.817602,19.612701,-10.547656,0.5864281,-0.69721556,-1.6160061
1605,A,182999103841825,-1.1677719,5.1744685,-4.5322237,-0.5925534,-0.15606125,-0.2559298
1605,A,182999143704846,-2.2415714,5.077503,6.26383,-0.7882957,-2.2136195,-0.41571945
1605,A,182999183620679,-5.6347537,10.642825,-2.8006175,0.9765812,-0.51984906,-0.47643954
1605,A,182999223757034,-4.0037036,7.891887,-2.397793,0.70440614,0.4527374,-1.1371698
1605,A,182999263425577,-2.0248961,9.094974,-2.202067,0.6775082,1.5712651,-0.86685896
1605,A,182999303385420,0.89543146,8.91062,5.5030727,1.3744575,0.9624664,-1.4487597
1605,A,182999343230680,-0.051475335,9.735423,-0.78170687,3.9904807,-1.0135992,-0.5163869
1605,A,182999383182606,4.1012673,8.253412,4.9853263,2.8439898,-1.5536882,-0.50333744
1605,A,182999423036618,0.11252748,8.522759,-2.8886044,1.4202639,-3.239203,-0.5850965
1605,A,182999462944481,0.6003461,10.071808,-0.11372458,0.5605954,1.6618125,-0.7241135
1605,A,182999502891668,0.21547815,11.088146,-0.7781156,0.80800307,0.5291701,-0.5925534
1605,A,182999542763910,-1.127669,13.214796,-1.483208,0.07962852,-0.7073356,0.08655274
1605,A,182999582668179,-1.3156139,12.5743475,-1.7417817,0.11158645,-0.07962852,0.18482338
1605,A,182999622605523,-2.9682117,12.634801,1.4478935,-0.08229168,-0.36645097,0.12809806
1605,A,182999662517398,0.4997896,11.843517,-0.30645782,-1.8218685,-1.0325075,0.5816344
1605,A,182999702411929,-0.53450555,8.074445,-1.4526819,-3.3736925,-0.01917476,1.1978899
1605,A,182999742270627,-1.7226281,14.002489,-1.5807717,-2.915629,1.5089471,1.9430424
1605,A,182999782178752,-1.423353,13.759478,-1.8680758,-1.6921726,1.0042781,0.78110516
1605,A,182999822318649,-4.2676644,14.1664915,6.529587,-2.1100225,-2.9835393,0.7781757
1605,A,182999860357503,-2.32058,7.5082164,-1.3144168,-0.8948221,-1.7166736,0.8181231
1605,A,182999901884326,-2.5767596,5.227141,-5.677251,-0.73636407,1.7963022,0.8628642
1605,A,182999941799638,-0.6859388,5.5856724,0.56084174,-1.6413062,1.6628778,1.1190603
1605,A,182999981739638,-2.8874073,5.331289,3.881001,-0.37603834,0.7984157,0.8578042
1605,A,183000021610523,-1.6382325,2.3511062,1.039682,0.6924219,0.54887754,0.9187906
1605,A,183000061547188,-0.46148238,2.4941597,3.164536,1.6215988,0.17896444,0.3965447
1605,A,183000101410578,0.8487445,10.374675,6.367978,2.0785973,-0.18961707,-1.0575413
1605,A,183000141357660,6.5002575,19.612701,8.996812,-0.2548645,-0.31957933,-0.38456047
1605,A,183000180504535,5.5778913,6.4631476,4.1826706,-0.30786142,-1.0852382,0.45540056
1605,A,183000220324533,-4.160524,8.492832,4.7255554,0.8050736,-1.0657971,-1.030377
1605,A,183000260185316,-6.671443,15.569493,-3.8253357,-0.49135324,-2.9164279,-0.29348037
1605,A,183000300131147,-0.919972,5.3342814,0.8559271,-0.33422673,-1.3161342,-0.7036072
1605,A,183000338403285,-4.709395,10.305243,-3.027468,0.6578008,-0.23595607,-0.5294364
1605,A,183000378395056,-1.6759412,8.75799,-2.1110873,-0.38802257,0.79601884,-1.2735237
1605,A,183000419370732,-1.922544,10.590153,-2.6557682,-0.17976338,2.1350563,-1.376588
1605,A,183000458681044,0.6925228,9.795278,2.4791958,1.6729978,1.9078887,-0.89642006
1605,A,183000500484013,0.12749124,8.054693,-0.64823014,3.6695697,-1.3510216,-0.6801714
1605,A,183000539050783,0.08439561,8.631097,2.1559787,2.2993734,-2.2125542,-0.29348037
1605,A,183000580238856,-0.45908818,8.839992,0.12210429,2.4607608,-2.0061593,-0.40506682
1605,A,183000620174480,-1.1695676,9.782109,1.2378023,0.5789712,1.0098706,-1.0697918
1605,A,183000660137764,1.2084733,10.616488,-1.7926586,0.29960564,0.8652611,-0.917459
1605,A,183000700014533,-0.33279404,13.763667,-1.0869676,0.14354439,-0.30786142,-0.25699505
1605,A,183000737437554,-1.4281414,12.573749,-1.9806033,0.35739622,0.2727077,0.09986854
1605,A,183000777765002,-2.9334955,11.897387,1.7962499,-0.5454154,-0.92012215,-0.0053263223
1605,A,183000817314273,0.7080852,11.629835,-1.3652935,-1.8615496,-0.79708415,0.6713829
1605,A,183000858981617,-0.29209262,8.111555,-1.0444705,-3.358246,0.16751283,1.2218584
1605,A,183000898918439,-1.7998412,13.933656,-1.2036849,-2.8810077,1.2269183,1.9627497
1605,A,183000938780576,-1.4879963,13.074137,-2.3690627,-1.7696706,0.99096227,1.1113372
1605,A,183000978725158,-4.8422728,14.183849,2.9311013,-1.8671423,-2.568619,1.3166668
1605,A,183001018586200,-1.0821792,9.57561,-0.4417302,-0.46552056,-2.3790019,1.3270532
1605,A,183001056815835,-1.8650831,6.342839,-3.5368345,-0.45699844,1.7323864,0.97711384
1605,A,183001099037398,-0.41359833,6.4721255,-1.6496049,-1.3885722,1.8354506,1.3132048
1605,A,183001138897242,-3.165733,4.31076,2.463035,-0.9765812,1.503887,1.1502193
1605,A,183001178797242,-2.2936451,1.2084733,1.7423803,0.17736652,0.9302422,0.83516735
1605,A,183001219076095,-1.6986861,2.4540567,3.0478187,1.1307782,0.5305017,0.19707392
1605,A,183001258600055,-0.5398925,6.733692,3.6511576,1.7680727,-0.004527374,-0.71798825
1605,A,183001298545940,6.05733,19.612701,12.6060705,0.8359663,0.7257114,-1.1526161
1605,A,183001338409013,5.1409497,12.404958,6.6642604,-0.655404,-0.2894856,0.47723848
1605,A,183001378321565,2.0189106,2.6138697,8.327033,-0.02876214,-0.6229134,-0.32170987
1605,A,183001415809064,-6.977302,12.019491,-1.359308,1.176052,-3.052249,-2.1704764
1605,A,183001455992710,-2.0446482,9.155427,1.8962077,-0.54834485,-2.103631,-0.4146542
1605,A,183001495726825,-1.4706384,6.367978,-2.2625206,1.0034791,0.7289072,-0.628506
1605,A,183001535565992,-1.7992426,9.728839,-2.5594015,-0.44022053,-0.038615838,-1.0692592
1605,A,183001575318127,-1.3545196,10.484209,-1.2078748,-0.793622,0.33156356,-1.3728596
1605,A,183001615155835,-0.08140286,10.300454,2.5210943,1.6215988,1.4136059,-0.8860337
1605,A,183001655050627,-0.033518825,7.663241,-0.020350715,3.5782232,-0.10466223,-0.36112466
1605,A,183001695073856,-0.504578,7.339425,0.24241292,2.262888,-1.6253272,-0.066046394
1605,A,183001734870054,0.11731588,9.297284,-0.4345476,2.0402477,-2.705239,-0.5121259
1605,A,183001774794533,0.90859956,8.9758625,0.21308395,1.8775285,-0.252734,-0.8873653
1605,A,183001814948127,-1.1480197,9.905411,1.4628572,0.86179894,1.139833,-0.721184
1605,A,183001854580367,0.10654198,11.449671,-1.4987702,0.045007423,-0.29241508,-0.58483016
1605,A,183001894954481,-2.574964,13.968969,-0.9504981,0.10759171,-0.6442187,-0.0034621095
1605,A,183001934843856,-2.2816741,12.062587,1.1558008,0.61865234,0.37151098,0.025033714
1605,A,183001974491825,-0.11671733,11.833342,1.1498153,-0.78936094,-1.490305,-0.04474111
1605,A,183002014757866,1.073201,11.832145,0.1933318,-2.0751352,-1.081776,0.47217846
1605,A,183002057239429,0.19871874,7.8607626,-2.3355439,-3.4511905,0.03542004,1.2761868
1605,A,183002097835889,-1.4784195,15.39771,-3.028665,-2.6575685,2.1025658,2.0642161
1605,A,183002136526981,-1.893215,13.193847,-2.0679917,-1.6663399,1.5715314,0.87032104
1605,A,183002176401407,-2.2272062,13.692439,7.973889,-1.8738002,-3.7526603,1.6482304
1605,A,183002216303647,-1.7753005,7.1790137,-2.7269957,-0.1470065,-0.7257114,1.360609
1605,A,183002256246512,-2.0697873,5.20679,-4.213795,-0.7595336,0.98590225,1.0274476
1605,A,183002293760991,-0.741604,5.9041014,-0.2669535,-1.6056199,2.6415896,1.0279802
1605,A,183002335318022,-2.2631192,4.1018662,3.6565444,-0.7909589,1.3693974,0.81013364
1605,A,183002375129949,-2.7629087,3.1603463,1.401805,0.42290998,0.7102651,0.34647727
1605,A,183002413425679,-1.9315223,3.6529531,3.3614593,1.211472,0.37257624,-0.09187906
1605,A,183002453550992,-0.044292733,12.919711,6.3224883,1.692439,0.03488741,-0.89615375
1605,A,183002494589846,8.16363,19.612701,8.234259,-0.2181129,-0.49002165,1.0679276
1605,A,183002535090209,6.75943,4.283227,5.6120086,-0.38136467,-1.1739215,0.23675503
1605,A,183002574947814,-2.2810757,6.5607114,1.1755531,0.72251564,-1.1922972,-1.5422366
1605,A,183002614744845,-12.63899,19.612701,1.3263878,-1.3872406,-1.3640711,-0.94302535
1605,A,183002654720471,0.7326257,4.6842556,0.7637503,1.2868395,-1.1587414,-0.5209143
1605,A,183002695334063,-2.1386206,7.4363904,-3.3961751,0.29880667,1.1161308,-0.66206187
1605,A,183002735052294,-1.8806454,10.225636,-2.6611552,-0.8855011,1.154214,-1.335309
1605,A,183002774959793,-0.9247604,10.760739,-0.439336,-0.019441076,2.6272085,-1.1835088
1605,A,183002814903440,1.3150153,7.3226657,6.724714,3.3574471,1.4351776,-0.78723043
1605,A,183002855609950,-1.0498575,7.36217,-1.2180501,3.6384108,-0.8511463,0.43089947
1605,A,183002895527189,-1.4095862,8.484452,0.82001406,1.3259879,-2.9955237,-0.16884442
1605,A,183002932581044,0.40761283,8.64666,-1.2725182,1.4436996,-0.4498079,-0.98403805
1605,A,183002974060990,0.7691373,9.828796,-0.17597382,1.2588763,1.3829796,-0.9765812
1605,A,183003014783541,-0.05267244,11.720815,-0.22744916,0.79442096,0.8633968,-0.62238073
1605,A,183003053693754,-2.677316,14.045585,-0.6997054,0.27643612,-0.20080236,-0.34887412
1605,A,183003093817191,-2.5210943,12.391191,-0.1400608,0.060453758,-0.38029942,-0.3043993
1605,A,183003133501875,1.7136499,12.211626,-0.17836803,-0.9281117,-0.9712549,-0.05486112
1605,A,183003171741876,1.3192052,12.146384,-0.38726214,-2.3339944,-0.32490566,0.706004
1605,A,183003213944638,-0.7978677,7.574057,-2.7874494,-3.44906,0.92944324,1.5195998
1605,A,183003253805471,-1.596334,14.019248,-0.5967548,-2.7281423,2.3704798,1.9755329
1605,A,183003293703907,-3.5422213,15.09185,-2.8742392,-1.5651398,0.32730252,0.88843054
1605,A,183003333825887,-1.2635399,11.568783,7.177817,-1.6871126,-3.7265613,1.7267936
1605,A,183003373517136,-3.4925418,7.041946,-1.9542671,0.12783173,-0.9624664,1.3339775
1605,A,183003411007293,-1.6927006,4.9146976,-4.425682,-0.21172132,1.4370418,1.4287859
1605,A,183003451179428,-0.05805939,5.6305637,-0.4405331,-1.5289208,2.1856563,1.015197
1605,A,183003492427814,-2.3481133,3.4967315,4.3861775,-0.55766594,1.4631407,0.7281082
1605,A,183003532602605,-1.9321208,2.496554,1.282095,0.778442,0.85487473,0.1587244
1605,A,183003572439584,-1.8255788,4.4915223,2.3570917,1.295628,0.5387575,-0.53289855
1605,A,183003610985469,0.05207389,13.062764,6.6882024,1.6399746,0.7736483,-1.2700615
1605,A,183003651761408,8.324639,19.612701,7.331644,0.020240024,-0.8612663,1.0327739
1605,A,183003692892865,5.8400564,5.331289,5.185841,-0.41305628,-1.9526298,0.6644587
1605,A,183003732698960,-4.2658687,9.060856,-0.8936358,0.500408,-0.6823019,-1.295628
1605,A,183003770339689,-8.400655,17.906834,-1.46585,-1.1941614,-1.7654095,-0.62238073
1605,A,183003812462240,0.28311434,4.8668137,3.1783028,0.9358348,-1.1906993,-0.38296258
1605,A,183003852581094,-2.569577,10.234015,-3.264494,0.24074976,0.30652985,-0.45513424
1605,A,183003890116565,-1.910573,9.1033535,-2.0398598,-1.1891015,1.9446403,-1.496164
1605,A,183003929750315,-1.6502035,9.485229,2.9047651,-0.24208134,3.5579834,-1.0271813
1605,A,183003971662396,-0.83497787,8.130111,1.1504139,3.8804922,1.8817897,-0.23728766
1605,A,183004011381771,1.3257892,5.796961,1.2665327,3.0567763,-0.35286885,-0.15765914
1605,A,183004051278492,0.2789245,10.192716,1.5915456,2.1483722,-3.8991342,-0.060720075
1605,A,183004091187969,2.1757307,8.448539,-2.259528,1.5464977,-1.1494204,-0.6045376
1605,A,183004129533021,0.22685061,9.422979,-0.10414778,0.5526059,1.4564828,-0.66392606
1605,A,183004171913752,-0.3788824,11.148002,-0.32561144,0.5840312,0.9571401,-0.6165218
1605,A,183004211543229,-2.8353333,13.85345,-0.99179804,0.31638354,-0.29214877,-0.19281286
1605,A,183004251405729,-2.332551,12.382213,-1.3144168,0.4245079,-0.42264366,-0.22956449
1605,A,183004291349168,0.9935937,13.109451,1.6118963,-0.92092115,-0.78270304,-0.23355924
1605,A,183004331204324,1.2683283,11.081563,-0.110731825,-2.1046963,-0.89136004,0.3358246
1605,A,183004372367916,-2.067393,9.536105,-1.9997569,-3.9699743,-0.1371528,0.6580671
1605,A,183004411009637,-3.7152026,14.216769,-1.4903905,-2.4256072,2.20563,1.0860372
1605,A,183004450921043,-5.361216,14.938023,-1.6867151,-1.2684636,0.42663842,0.72251564
1605,A,183004490867917,-3.816956,11.434708,4.1455603,-1.778459,-4.24428,1.6578178
1605,A,183004530740471,-2.516306,5.899313,-1.3581109,-1.850897,-1.3763217,1.1592741
1605,A,183004570824742,-0.7302315,3.4302924,-3.3183637,-0.77604514,2.6106968,0.24021713
1605,A,183004610580416,0.26755205,3.104681,1.9800048,-1.5350461,2.7555728,0.46658584
1605,A,183004650448908,-2.5605986,3.0160956,3.5865142,-0.850081,0.9936254,0.16884442
1605,A,183004690412553,-3.4883518,3.8576574,2.3493104,0.88843054,0.69508505,0.06391586
1605,A,183004728309480,-2.823961,4.697424,3.7116113,1.8032264,0.20426446,-0.21278657
1605,A,183004768248751,-1.9776106,11.954847,9.85633,2.211489,-0.82850945,-0.9731191
1605,A,183004808038439,5.033809,19.612701,7.7865424,-0.221575,-1.3062805,-0.06684534
1605,A,183004849504636,2.0883424,8.661623,6.0327897,0.69748193,-2.2996397,0.23542345
1605,A,183004887445729,-8.933964,13.67568,-0.39145198,-0.49188587,-0.28469193,-0.123038046
1605,A,183004927357708,-3.7660792,5.7269306,-3.247136,-0.20639499,-1.1749867,-0.52464277
1605,A,183004969109375,-0.7326257,4.1144357,-0.56323594,0.64768076,0.47537425,-0.7861652
1605,A,183005008976147,-3.1950622,9.959281,-1.939902,1.5286545,2.121208,-1.2434299
1605,A,183005048883282,-4.0426097,10.945692,-1.1067197,2.0040288,2.5859294,-1.1081413
1605,A,183005088827395,-1.6412252,7.1407065,4.5914803,1.1363709,-2.0263994,-0.83543366
1605,A,183005127844480,-1.8644845,6.3985043,1.8303672,1.0508834,-3.6879456,-1.22319
1605,A,183005169755209,-3.1675289,7.4926543,-3.1729157,1.6239957,1.2977585,-0.6487461
1605,A,183005208394427,-1.5185224,7.335834,-1.407192,1.0064086,2.8059065,-0.5089301
1605,A,183005248214634,0.90261406,6.6427126,1.8992004,1.0199907,-2.5979137,-0.36298886
1605,A,183005288140419,-2.2625206,6.7809777,-0.9175778,2.0341225,-1.3164005,0.023702133
1605,A,183005327981147,-1.590947,5.5389857,-5.6987987,0.4577974,0.89855057,0.92757905
1605,A,183005367934895,0.30286652,19.612701,7.219715,-0.43809,3.8948731,2.0386498
1605,A,183005408757605,-1.7010803,13.532028,-0.3800795,0.7749799,-2.1278658,0.05486112
1605,A,183005448515000,0.74998367,13.529036,0.17956513,-0.87511474,-1.5132082,0.46179214
1605,A,183005488457552,0.21188685,8.788516,-1.0767922,-2.7316043,-0.09054748,0.6804377
1605,A,183005528335782,-2.4905684,9.4972,-0.59615624,-3.706854,0.44767737,1.2311794
1605,A,183005568232604,-1.7860745,11.980585,-1.9734207,-2.037052,0.6165218,1.2295815
1605,A,183005608181406,-2.557606,14.818313,0.5189432,-2.0431771,-1.8514296,1.0402308
1605,A,183005647093751,-0.14185645,11.089942,3.095703,-0.5832323,-2.893791,1.0761834
1605,A,183005687995676,-0.9451111,6.6588736,-2.1619642,-0.07962852,0.7094661,1.1427624
1605,A,183005727855835,-1.1947067,4.979341,-2.8341362,-1.1821772,1.443167,1.0287791
1605,A,183005767800262,-2.0021513,4.123414,0.9259575,-1.3217269,1.8663434,1.0245181
1605,A,183005807666927,-2.2852654,3.0885203,2.2948422,-0.048203215,1.506284,0.5877597
1605,A,183005847615990,-2.1206641,3.1824925,1.6310499,0.7731157,0.85301054,0.11531488
1605,A,183005885514427,-1.6783354,5.8867435,4.1299977,1.6247946,0.50653327,-0.45540056
1605,A,183005927351354,3.2028434,19.612701,13.873201,0.8341021,1.475125,-0.82611257
1605,A,183005967298437,7.145495,12.185888,7.421427,-0.6127934,-1.3960291,1.1225225
1605,A,183006007174895,-0.004189853,1.5155296,4.3209357,0.1571265,-0.66179556,-0.3139867
1605,A,183006044890052,-9.871294,18.695723,-8.871715,0.45060685,-1.8897791,-1.7004284
1605,A,183006085539115,-1.5370775,5.861006,-1.6238673,-0.11531488,-1.8263959,-0.18429075
1605,A,183006126927134,-0.9624691,8.5299425,1.1372458,0.79681784,-0.90041476,-0.8839032
1605,A,183006166786094,-1.9428947,8.08462,-1.1965023,0.07536746,0.31185618,-0.6599313
1605,A,183006206688438,-2.7988217,8.8884735,-1.5047557,-0.6511429,1.0231866,-1.0535465
1605,A,183006246640155,0.31124622,9.631873,4.5537715,-0.082025364,1.6138756,-0.9534117
1605,A,183006286577240,0.06703765,8.939949,0.21188685,3.3182988,2.3638217,-0.46339005
1605,A,183006324764947,0.55964464,8.934562,1.5394717,2.4359934,-1.6793894,-0.49801114
1605,A,183006366348698,1.1659763,8.435371,0.3788824,1.839978,-3.2546492,-0.31505197
1605,A,183006404260365,1.0630256,8.1881695,-0.985214,1.2903016,0.040213734,-0.50653327
1605,A,183006443703125,-0.39983168,9.953894,0.27353755,1.2104068,1.3438311,-0.6527408
1605,A,183006483656510,-0.6901286,10.971429,-0.741604,0.4101268,0.8317052,-0.67724186
1605,A,183006523566406,-2.260725,14.141951,-0.22864626,0.36245623,-1.0628676,-0.002130529
1605,A,183006563272344,-2.2254105,12.962208,0.17178397,0.70467246,0.23409186,-0.033023197
1605,A,183006603499115,2.0219033,14.210784,0.07182605,-1.2977585,-0.5656554,0.040213734
1605,A,183006644245833,1.0953473,10.599131,-0.96905315,-2.4327977,-0.5275722,0.6202502
1605,A,183006683518958,-0.9947908,8.936956,-1.4850036,-3.5606465,0.5954828,1.2128036
1605,A,183006723451145,-0.6781576,12.033856,-2.3289597,-2.4514399,2.8381307,1.3475596
1605,A,183006765318332,-2.1278467,12.117055,-2.15538,-1.78778,0.61439127,0.43249738
1605,A,183006805251407,-2.7497406,12.207436,5.875371,-1.4415691,-3.1995218,1.1395667
1605,A,183006845194115,-3.3530796,6.7187285,-2.3235726,-1.0327739,-1.5374429,0.26764768
1605,A,183006885056926,-0.57640404,5.8023477,-2.3600843,-0.509729,1.1241204,0.9084043
1605,A,183006924960365,1.0468647,5.7377043,1.4131776,-0.32623723,0.91426325,1.274589
1605,A,183006964930989,-2.166154,3.6990416,1.0366893,0.26658243,1.489506,0.8109326
1605,A,183007004814113,-2.2152352,3.0023289,0.9283517,0.5605954,1.433846,0.33422673
1605,A,183007046979843,-1.8746599,4.829105,4.8344917,1.1459582,1.396828,-0.42557314
1605,A,183007083161927,0.25857377,19.612701,10.961254,0.44101948,0.5355617,-0.3850931
1605,A,183007124522342,6.405687,12.801198,8.492832,-1.0567423,-1.1033477,1.3305153
1605,A,183007164382396,0.8936358,2.9700072,4.0880995,-0.05965481,0.3225088,-0.20719394
1605,A,183007204286093,-7.8368206,17.815853,-4.3089647,0.95421064,-1.4239923,-1.443167
1605,A,183007244234633,-1.2348095,6.8426285,-2.8921957,-0.28469193,-2.5025725,-0.119043306
1605,A,183007284098387,-0.10055647,8.178593,5.370793,0.669785,-1.5310514,-0.6314355
1605,A,183007324044533,-3.0532057,9.2308445,-2.321777,0.51292485,0.101200126,-0.64075655
1605,A,183007363900468,-2.806603,7.7488337,-1.7543513,-0.27217507,0.87990844,-1.2644689
1605,A,183007401657759,-1.9973627,9.609727,-0.093373865,-0.3392867,2.4636903,-1.0037454
1605,A,183007441567083,-0.022744916,10.17835,1.5532384,3.954528,1.1534151,-1.0932276
1605,A,183007481203021,2.7521348,7.2849574,1.0935516,3.10205,-1.3289174,-0.4908206
1605,A,183007521283749,1.9895816,9.243414,0.6973112,1.7265273,-3.4368095,-0.23675503
1605,A,183007560997083,0.16938977,8.372523,-0.2621651,1.1374362,0.44101948,-0.31664985
1605,A,183007602841145,-0.56563014,9.616311,-0.40761283,0.7584683,1.2868395,-0.49801114
1605,A,183007642395157,-0.55844754,10.968436,-1.0618285,0.7251788,1.066596,-0.845021
1605,A,183007680855676,-2.0326772,14.577696,-0.29388827,0.16005598,-0.38802257,-0.2034655
1605,A,183007722343748,-2.022502,12.77965,-0.7338228,0.78776306,-0.16884442,-0.0479369
1605,A,183007762286876,0.9044097,14.363415,-0.15263036,-1.318531,-0.7850999,-0.101999074
1605,A,183007802891510,1.3587095,10.5602255,-0.82899237,-2.1654162,-0.39867523,0.71292824
1605,A,183007842749843,0.03172317,8.544308,-2.1266496,-3.6746297,0.72304827,1.2532836
1605,A,183007882639271,-1.2120646,12.4468565,-0.8984242,-2.8541098,1.8881812,1.5904398
1605,A,183007922589948,-1.270124,12.495338,-2.871845,-1.5952336,1.1590078,0.9323727
1605,A,183007962465519,0.004189853,12.727576,5.5605335,-1.401888,-3.1475902,1.0223875
1605,A,183008002369167,0.427365,8.194754,-2.1972785,-0.29827404,-2.6804717,1.722
1605,A,183008042313021,-1.8381484,7.6249337,-3.0412347,-0.30146983,2.698315,1.7073526
1605,A,183008082160780,-2.6898856,6.4326215,0.33638534,-1.7520937,2.8317392,1.4199976
1605,A,183008122108956,-2.6623523,4.0695443,2.9999347,-0.7459514,1.4543523,0.9403622
1605,A,183008161973856,-3.271078,3.116652,1.780089,0.5158543,1.0543455,0.29640985
1605,A,183008201930000,-2.9616275,3.2381577,2.3900118,1.3363743,0.3797668,-0.5520733
1605,A,183008241790675,-0.6171055,7.477092,6.0764837,1.7180053,-0.24900557,-1.3896375
1605,A,183008281738855,7.2628107,19.612701,11.310209,0.24021713,-0.03568636,-0.4032026
1605,A,183008321583748,6.331466,9.226056,4.021062,-0.42051315,-1.2785836,0.6359629
1605,A,183008361501978,-0.93613285,3.705027,2.9107506,-0.16564862,-1.1395667,-0.5041364
1605,A,183008401448177,-10.836157,19.612701,-1.3826514,-1.0559434,-0.57550913,-1.3137374
1605,A,183008439165573,0.43514615,4.8428717,-2.9502552,0.8492821,-0.15180019,-0.30360037
1605,A,183008478803802,-0.130484,5.3025584,-3.3387144,0.9835054,1.2660668,-0.79442096
1605,A,183008520027082,-1.9716251,12.64737,-2.6767175,-0.5542038,1.1286477,-1.9427761
1605,A,183008562743383,-2.1930888,9.898827,7.665635,-0.0031957934,0.45380265,-0.8133294
1605,A,183008600319010,-0.20350714,8.18398,-2.4839842,4.4163203,-1.1512846,-0.598146
1605,A,183008639045313,0.66618663,7.2981253,1.4700398,2.2011027,-2.1981733,-0.6894924
1605,A,183008679582029,1.5340848,9.755175,-0.054468088,1.3986923,-1.6743294,-0.34328148
1605,A,183008720126147,1.3293805,8.008006,-0.39264908,1.2833774,0.5451491,-0.67031765
1605,A,183008758512604,-0.23283611,9.051279,-0.4902128,0.76912093,1.3930995,-0.5925534
1605,A,183008798206823,-0.38486794,10.583569,0.17776948,0.83037364,1.1720573,-0.51691955
1605,A,183008839933124,-1.8734628,12.700043,-0.79607207,0.41092578,-0.020772656,-0.16005598
1605,A,183008879655310,-2.4947581,13.785214,-1.039682,0.41199103,-0.83490103,0.025033714
1605,A,183008918021823,1.0061632,13.297995,0.7248446,-0.32517198,-0.45992792,-0.10839066
1605,A,183008959459792,1.578976,12.844294,0.28550854,-1.9246665,-0.5696502,0.6985472
1605,A,183008999406821,-0.7009025,7.8727336,-2.5025394,-3.5744948,0.24261399,1.2647352
1605,A,183009039753802,-3.0472202,13.172299,-0.03172317,-3.0344057,1.9278624,1.6383767
1605,A,183009079771301,-3.4823663,13.261483,-2.7760768,-1.9755329,1.0681939,0.8274442
1605,A,183009119715310,-1.8561049,12.817359,8.289325,-1.4865766,-2.7401266,0.81466097
1605,A,183009159586458,-2.480393,6.7839704,-0.9487024,-1.0777813,-1.9987024,0.79229045
1605,A,183009199479531,-1.0007763,5.4982843,-4.076727,-0.9872338,2.3923175,0.74488616
1605,A,183009239430259,-0.12749124,4.7165775,1.417966,-1.3893712,1.1235877,0.9571401
1605,A,183009279289478,-1.8782512,3.651756,2.7377696,-0.20932446,1.0466223,0.5656554
1605,A,183009319236093,-2.1188686,3.1878796,1.6352397,0.78057253,0.39734364,0.22397186
1605,A,183009359085988,-1.3844471,4.2161894,3.13401,1.5691346,0.15632756,-0.11558119
1605,A,183009399046977,-0.65780693,10.807426,6.1423244,1.9289277,-0.2394182,-0.6993461
1605,A,183009438902342,8.264186,19.612701,10.192117,-0.14674018,-0.3086604,0.59388494
1605,A,183009478809113,5.3498435,7.001843,6.994062,-0.5187838,-0.9579391,0.2591256
1605,A,183009519459322,-4.5579615,10.804434,4.630985,0.7097325,-0.5544701,-1.1140003
1605,A,183009558626405,-4.238934,11.434708,-2.77069,-0.83543366,-2.591256,-0.08681905
1605,A,183009598738698,-0.6374562,3.3213563,-1.8986019,0.3057309,-0.3139867,-0.47004795
1605,A,183009639078697,-3.554791,10.133459,-3.6367924,0.73583144,0.10466223,-0.8474179
1605,A,183009678423019,-2.1284454,10.38066,-2.5629928,0.13182648,1.1464908,-1.3038837
1605,A,183009718235989,0.047285482,10.377667,6.7642183,0.16271915,0.7520767,-1.3592775
1605,A,183009758173020,-0.85891986,8.628703,-1.6400281,3.5657065,-0.76912093,-0.5717807
1605,A,183009797338696,1.2485762,7.8086886,0.23762453,2.14997,-1.489506,-0.7318367
1605,A,183009837998385,-0.0011971008,9.658808,0.6925228,1.576325,-1.1893678,-0.39095205
1605,A,183009877855469,1.033098,8.721478,-0.5847838,1.4682007,-0.24554345,-0.40586576
1605,A,183009920010675,0.011372458,8.65863,-0.80205756,0.6759103,0.69109035,-0.454069
1605,A,183009957649895,-0.30585927,10.01734,0.06344634,1.0474212,1.0751182,-0.5067996
1605,A,183009997617395,-1.6262615,12.767679,-1.1438298,0.50387007,0.06498113,-0.52624065
1605,A,183010037461717,-2.3451207,14.1216,-0.7074866,0.47058058,-0.7057377,-0.02609898
1605,A,183010076994009,0.074220255,12.411542,1.939902,-0.28682247,-0.6146576,-0.18855181
1605,A,183010117269946,1.4820108,12.725182,-0.61411273,-1.9062908,-0.5382249,0.3438141
1605,A,183010157187290,-0.44711718,8.117541,-2.1523874,-3.6501286,0.13289174,0.96326536
1605,A,183010197188748,-2.2703018,13.702615,-0.8379706,-3.2288165,1.6418388,1.7233316
1605,A,183010236985988,-1.039682,10.368091,-3.1124623,-1.8407769,2.0138824,0.8341021
1605,A,183010276886144,-5.1762643,15.229517,5.271434,-1.7587516,-1.386708,0.5454154
1605,A,183010316904166,-1.7597382,8.346188,0.11312603,-0.9187906,-2.309227,0.824781
1605,A,183010356692810,-1.7932571,5.599439,-4.848857,-0.6945524,-0.41971418,0.48309743
1605,A,183010396169425,2.2996306,6.455965,1.5454572,-0.4889564,1.1009508,1.3259879
1605,A,183010436498384,-1.3239936,3.86903,0.9103952,0.2559298,1.4373081,0.96752644
1605,A,183010476449738,-2.4582467,2.7126305,-0.22625206,0.69029135,2.1307952,0.572047
1605,A,183010516535311,-3.2142158,4.0342298,4.337695,1.2167983,2.112952,-0.07882957
1605,A,183010556229477,0.39683893,19.612701,13.18846,-0.14247912,0.43915528,-0.19893813
1605,A,183010596166509,5.2241483,11.374253,9.51336,-1.0061423,-1.6679379,1.366468
1605,A,183010636076404,1.6304513,3.9612067,2.0925324,0.21118867,1.2857742,-0.40506682
1605,A,183010675938488,-5.3995233,18.839973,2.7808652,0.97285277,-1.4825819,-1.2327772
1605,A,183010716104373,0.035314474,6.6762314,-5.2642508,-0.58909124,-3.060771,0.05006743
1605,A,183010755779842,-1.9333179,4.4125137,1.299453,0.055127434,-1.1353056,-0.5877597
1605,A,183010795095623,-5.056554,10.600328,-3.757101,1.2511531,0.74435353,-0.7635283
1605,A,183010833919582,-2.8562827,8.432977,-2.2972364,0.65380603,1.9339876,-1.397627
1605,A,183010875479113,-1.6813282,9.779117,0.09935937,-0.021571605,1.3827133,-1.1076087
1605,A,183010915349790,-1.0642227,10.032304,-0.6889315,3.9049933,-2.6051042,-1.0010823
1605,A,183010954576925,2.3756466,7.0126166,-1.0384849,1.9784625,-2.2250712,-0.34807515
1605,A,183010995213747,1.192911,9.498995,0.7206547,1.6144083,-1.366468,-0.5581986
1605,A,183011035061041,0.8762778,8.234259,-1.1312603,1.3760554,-0.5137238,-0.4841627
1605,A,183011076253957,0.142455,9.408614,-0.19273324,0.8245147,0.68203557,-0.4993427
1605,A,183011114829634,-0.10414778,10.412383,-0.6392518,1.186971,1.6442357,-0.68176925
1605,A,183011154794737,-1.7435774,14.29099,0.6254852,0.19734024,0.31265512,-0.2894856
1605,A,183011194656770,-1.9075803,13.470377,-1.1336545,0.30280143,-0.9291769,-0.026365295
1605,A,183011234584374,-0.55365914,12.838906,0.23702596,-0.727043,-0.8543421,0.002396845
1605,A,183011274454946,1.7992426,11.389217,0.12509704,-2.1017668,-0.45699844,0.5933523
1605,A,183011314359425,-0.090381116,8.078036,-1.1258733,-3.582218,-0.08282431,1.3121395
1605,A,183011354326144,-1.3850456,12.404359,-1.5711949,-2.7731497,1.6988305,1.654622
1605,A,183011394192028,-1.2737153,12.598887,-4.042011,-1.6990968,1.9321234,0.6841661
1605,A,183011431979114,-0.9271546,15.589845,8.187572,-1.8194717,-3.235208,0.8277105
1605,A,183011471864374,0.12210429,7.2448545,-2.2242134,0.13795175,-2.0250678,1.7251958
1605,A,183011513166977,-1.3563153,5.255273,-3.74513,-0.32011196,1.25861,1.3038837
1605,A,183011553235310,-1.6089035,5.1235914,-1.7166426,-1.3925669,2.2192123,0.90467584
1605,A,183011592655259,-2.9251158,5.4043117,4.249708,-0.6575345,2.1976407,0.60507023
1605,A,183011633065622,-2.156577,4.209007,2.461838,0.3536678,1.0809771,0.3289004
1605,A,183011672923800,0.45130703,13.883976,7.36636,0.35952675,0.773382,-0.16538231
1605,A,183011713568383,0.46387658,16.00464,1.6956934,-0.58296597,-0.65913236,0.30493194
1605,A,183011753391614,3.6361938,3.539827,6.060323,-1.1789814,-0.06737798,0.90041476
1605,A,183011793289841,-0.004189853,-2.8550856,6.027403,0.80533993,-0.40586576,-0.48975533
1605,A,183011833149425,3.9755719,3.6882677,1.822586,2.091913,-0.6239787,-1.4149375
1605,A,183011873085727,-4.1683054,18.681955,-3.4560301,1.2154667,-2.6836674,-2.032791
1605,A,183011912953018,2.3026235,10.065224,-3.2998085,-0.175236,-3.3313482,0.9286443
1605,A,183011950669789,0.43035775,2.6473885,-2.7802668,1.3930995,0.13954964,-0.14487597
1605,A,183011992764008,-1.8010383,12.482769,-7.1873937,-0.10359697,1.6588831,-1.8809907
1605,A,183012032632863,-1.8273745,12.53185,-1.1336545,-1.0426276,2.9441247,-1.6631441
1605,A,183012072574061,-1.6753427,8.371326,7.2298903,2.9441247,2.0759342,-0.60560286
1605,A,183012112437082,-1.5161282,6.9078703,0.74519527,3.43388,0.17070863,-0.1257012
1605,A,183012152387705,-0.98102415,7.065289,-1.9321208,0.6743124,-1.8381138,-0.27403927
1605,A,183012192268122,0.86131406,7.3346367,-0.3453636,0.6064018,-0.22796659,-1.0905645
1605,A,183012232185050,1.5825673,9.340978,0.5279215,2.290851,0.5174522,-0.8876316
