Subject-Id,Activity Label,Time stamp,Accel_x,Accel_y,Accel_z,Gyro_x,Gyro_y,Gyro_z
1621,A,166833882453198,-4.9296613,5.349245,4.924873,-0.020240024,-0.004261058,-0.023435818
1621,A,166833922600177,-4.4113164,4.623802,5.8095303,-0.7435546,-2.6226811,0.3121225
1621,A,166833962489865,-5.3085437,5.171476,6.5271926,-0.9800433,-2.5992453,0.6114618
1621,A,166834002371896,-3.5966895,7.6961613,7.587225,-0.8202536,-4.397412,0.96299905
1621,A,166834042292573,-2.087744,6.005855,7.788338,-0.9853696,-4.801147,1.1174624
1621,A,166834083719448,0.7410054,5.819107,8.541314,-0.77125144,-4.3856936,1.3475596
1621,A,166834123630439,3.3435028,4.8422728,7.041347,-0.7755125,-3.6336172,1.0791129
1621,A,166834164030385,4.6399627,1.9853917,6.4817023,-0.9289106,-2.9710226,0.21624869
1621,A,166834202097522,2.5713725,3.0304608,6.381146,-0.8788432,-3.3843453,-0.011717909
1621,A,166834241470541,3.4626143,1.9446903,7.313089,-0.88203895,-4.137487,0.5230448
1621,A,166834281676741,5.8400564,2.2990322,7.195773,-0.15978967,-4.313256,0.757403
1621,A,166834321483250,8.243835,2.8383262,5.9867015,0.12357068,-3.8701057,0.8852348
1621,A,166834361553459,10.393828,3.1381998,3.4913447,0.5230448,-3.064766,0.67537767
1621,A,166834403208354,9.662998,3.1370027,1.8764555,0.28655612,-1.6586168,0.23009712
1621,A,166834441358928,9.27394,2.7988217,1.9267339,-0.0053263223,-1.1984226,0.09054748
1621,A,166834481217001,8.612542,3.1184478,2.315193,-0.099069595,-1.1185277,-0.0958738
1621,A,166834521551845,8.170214,2.634819,2.665345,-0.05219796,-0.757403,-0.041545313
1621,A,166834562383927,9.197326,2.7084408,2.1829133,0.15446335,-0.72437984,0.20985709
1621,A,166834602467835,9.830592,3.1262288,1.5514427,0.19920446,-0.608266,0.18748654
1621,A,166834640526481,9.969456,3.0113072,1.1468226,0.23009712,-0.11930962,0.10439592
1621,A,166834682434447,9.888053,3.0358477,0.6314707,0.21092236,-0.20133498,-0.017044231
1621,A,166834720698043,9.43914,2.791639,0.480636,0.015978966,-0.28016454,-0.16724652
1621,A,166834760501429,8.605359,2.8862102,0.8900445,-0.013848438,-0.19387813,-0.26525086
1621,A,166834800641010,8.701127,2.6743233,1.1569979,-0.018109497,-0.41545314,-0.058589544
1621,A,166834840160126,9.102755,2.7766755,0.94331545,0.07669904,-0.58696073,0.033023197
1621,A,166834880607261,9.088389,2.9771898,0.5590461,0.068176925,0.17150758,-0.07989483
1621,A,166834920008719,8.392276,2.9658175,0.712275,-0.035153728,0.20879184,-0.094808534
1621,A,166834960071323,8.842984,2.873042,0.82599956,0.09374327,-0.33129725,0.0958738
1621,A,166835000066480,9.26556,3.3135753,0.75118077,0.16724652,-0.6306366,0.24820662
1621,A,166835039749917,9.675568,3.5595794,-0.019752163,0.3057309,-0.4261058,0.2066613
1621,A,166835080809864,9.436746,3.3141737,0.50517654,0.29294774,-0.5933523,0.16298546
1621,A,166835120727522,9.715671,3.0053217,-0.046088383,0.5049353,-1.031176,0.24074976
1621,A,166835161218979,9.979631,2.9161377,-0.63087213,0.5390238,-0.9267801,0.096939065
1621,A,166835199654135,10.776301,2.734777,-2.8245595,0.56672066,0.14594123,-0.4079963
1621,A,166835239954762,10.31063,2.4528596,-2.4301147,-0.17896444,1.8642128,-0.8831042
1621,A,166835279497886,10.700286,2.8048072,-2.0620062,-0.45593318,2.6759443,-1.4146712
1621,A,166835319352833,9.849147,3.1022868,-1.0726024,-1.6085494,6.7335367,-2.227468
1621,A,166835360650335,5.1678843,2.5725696,2.9496565,-2.0591562,8.847021,-2.8144288
1621,A,166835400111010,0.7356185,3.2028434,6.96174,-1.220793,6.760168,-2.07407
1621,A,166835440461948,-0.5141548,4.655525,9.063251,-0.22370553,2.9625003,-0.7392935
1621,A,166835478680074,0.2184709,5.277419,8.275558,0.09374327,1.3709954,0.11824436
1621,A,166835518873511,1.34195,5.1559134,9.087791,-0.15978967,1.0801781,0.36645097
1621,A,166835560159552,1.8734628,5.2355204,9.458294,-0.3323625,0.37390783,0.27377295
1621,A,166835600622262,2.0751743,4.983531,9.433753,-0.25353295,-0.08628642,0.013848438
1621,A,166835640057676,2.1278467,4.8614264,9.311649,-0.2034655,0.63383234,-0.3153183
1621,A,166835679985697,0.81761986,4.658518,8.058285,-0.59122175,1.8674086,-0.7456851
1621,A,166835718404709,0.46088383,3.98874,6.6492968,-1.1984226,3.0232205,-1.3198626
1621,A,166835758263303,-3.140594,3.2016463,9.436746,-1.5978967,3.1840754,-2.143312
1621,A,166835797965229,-3.448249,2.5121162,9.239823,-0.6199839,1.5978967,-1.5286545
1621,A,166835837728250,-3.7493198,3.1789012,10.192117,-0.14594123,-0.7978831,-0.14807177
1621,A,166835877740385,-2.2894554,3.7672763,9.248801,0.65513766,-0.6498113,-0.14274544
1621,A,166835917846896,-1.7962499,4.297592,8.039729,0.3898868,-0.24181503,0.2876214
1621,A,166835958269813,-0.7392098,4.6680946,8.289924,0.035153728,0.49641323,0.24501082
1621,A,166835998256480,-0.6159084,5.158906,8.384495,0.066046394,0.38775626,0.14274544
1621,A,166836037820490,0.110133275,4.976947,7.8745294,0.08735169,-0.06178534,0.29614353
1621,A,166836077573250,-0.45549688,4.622605,6.985682,-0.10013486,-0.35579833,0.1949434
1621,A,166836119763563,-1.7806876,2.996942,4.5418005,-0.2514024,-0.83942837,0.67005134
1621,A,166836159616636,-2.3774424,1.6968905,3.5529952,-1.3464943,-1.6990968,2.2828617
1621,A,166836199528353,-0.31004912,1.2431892,4.2293572,-1.5712651,-2.7451866,2.4682178
1621,A,166836237030437,2.3211784,1.2252327,5.8412538,-2.2455776,-2.6269422,2.3489082
1621,A,166836276960905,5.2863975,2.2373815,9.278131,-2.2008364,-1.9526298,1.3603427
1621,A,166836317481843,4.75668,1.4580688,10.262147,-2.0687435,0.04261058,0.14274544
1621,A,166836356983302,3.1010897,0.8523358,12.75511,-1.6841831,1.7129452,-0.60507023
1621,A,166836399135853,2.5671828,1.2006922,10.909779,-1.1472899,1.4796523,-0.93636745
1621,A,166836438941011,2.0003555,0.92416185,10.25257,-0.2727077,-0.32810146,-1.603223
1621,A,166836476508719,0.5781997,1.4951789,10.167576,-0.27483824,-0.8841695,-0.90973586
1621,A,166836516473406,2.5450363,-0.20709845,11.824364,-0.7882957,-0.4165184,-1.4082797
1621,A,166836556621426,0.36032736,-4.823119,19.022532,-1.2303804,-1.6575515,-1.0791129
1621,A,166836598457834,3.8660371,-4.027047,16.298529,0.6849651,-1.4871092,-0.07989483
1621,A,166836635721635,6.965331,-3.2369606,9.753978,1.4253238,-0.37603834,-0.113983296
1621,A,166836675969031,6.602011,-3.328539,7.0449386,1.2399678,0.12783173,-0.8905611
1621,A,166836715536010,4.087501,-1.3245921,6.449381,0.8021441,-0.6487461,-1.478587
1621,A,166836755731635,2.497751,-0.17597382,6.682217,0.45380265,-1.8919097,-1.8514296
1621,A,166836795479969,1.9297266,0.093373865,6.2434793,0.7861652,-2.7675571,-2.021872
1621,A,166836835300177,1.2659341,1.4089876,7.267599,0.83516735,-2.775014,-1.8695391
1621,A,166836875225073,3.1783028,2.878429,6.477513,1.6575515,-2.1102889,-1.171791
1621,A,166836914846896,4.408922,3.2573113,6.445191,0.8905611,-0.084155895,-1.2879047
1621,A,166836955019917,6.546346,4.7949877,9.027337,1.4413028,0.20026971,-1.623463
1621,A,166836994868563,7.4016747,4.914099,7.809886,1.6341157,-0.4282363,-1.5584819
1621,A,166837035090073,6.5577183,4.723161,8.643068,-0.25246766,0.55074173,-1.2058793
1621,A,166837074919448,4.908712,2.896984,8.316259,0.45167214,-0.29933932,-1.0801781
1621,A,166837115033719,5.0421886,5.492897,7.9451585,1.892975,0.28549087,-1.861017
1621,A,166837157683614,4.384382,5.5347958,6.0531406,1.5169365,1.2218584,-1.6128104
1621,A,166837194273458,2.9975405,7.161656,4.9099092,0.9033443,0.72437984,-1.1930962
1621,A,166837234101636,2.486977,5.3564277,3.9234982,-0.27057716,0.99495703,-0.1107875
1621,A,166837274960854,2.8209682,5.803545,5.015254,-0.8032094,0.5699165,0.5113269
1621,A,166837314094031,2.372654,6.035184,5.1367598,-0.6562029,0.36432046,0.023435818
1621,A,166837354224552,2.409764,5.421071,5.035006,-1.0407634,0.20879184,-0.41225734
1621,A,166837394226114,3.9223008,8.016984,9.545682,-0.9193232,-0.13209279,-0.7137272
1621,A,166837433919968,4.6321816,7.965509,7.854179,-1.0045444,-0.78296936,-0.8490158
1621,A,166837474100071,3.678691,8.436568,10.538677,-2.6226811,0.13528858,-1.6575515
1621,A,166837513697052,4.007295,8.149264,7.805696,-0.7041398,0.36112466,-1.1014835
1621,A,166837553763562,4.1922474,4.8147397,5.3145294,-0.96299905,0.12996227,0.1555286
1621,A,166837593398458,4.331111,4.148553,7.674015,-3.202185,0.101200126,-1.0418286
1621,A,166837633310229,2.4450784,3.4799721,7.181408,-3.7188382,-1.2175972,-1.0077401
1621,A,166837673327156,0.521936,-0.7302315,7.0754647,-3.8573227,-1.9249328,-0.809601
1621,A,166837713140750,2.030283,2.2170308,8.987235,-3.665575,-1.4796523,1.107875
1621,A,166837752816114,-1.459266,-2.445677,11.282077,-2.4405208,-0.2695119,1.3582122
1621,A,166837792960125,1.5987282,1.4012065,11.535862,-2.167813,0.43782368,1.257012
1621,A,166837832322208,1.584363,0.52492875,10.969634,0.46552056,-0.37816888,0.4293016
1621,A,166837872751791,1.9285295,0.050278235,11.438897,0.056459017,0.22050974,0.5773733
1621,A,166837912312208,-1.0684125,-0.044292733,14.306552,6.353237,-1.5925703,1.4359765
1621,A,166837952398927,8.846576,-0.41718966,13.822924,-0.33449304,-0.16831179,1.067395
1621,A,166837992168302,5.2929816,-3.6403837,11.979987,1.7555559,0.37390783,0.61678815
1621,A,166838032241687,4.944625,-1.4377182,12.480973,2.026133,1.216532,0.49002165
1621,A,166838071927468,5.834071,2.9430726,11.996746,3.6357477,1.8056233,0.5113269
1621,A,166838111951323,4.68246,0.6344634,10.573992,3.6911414,2.4607608,0.12463594
1621,A,166838151616323,2.4331074,1.2593501,7.745841,2.9348035,2.4873924,-1.1590078
1621,A,166838191771843,1.5795746,1.0205284,5.823297,1.9664782,2.4096282,-0.26844665
1621,A,166838231785177,0.5231331,-0.6679823,5.239112,1.7640779,2.9582393,0.28868666
1621,A,166838271345854,0.92775315,-0.90979666,6.83365,0.79681784,2.553439,-0.9619338
1621,A,166838311360333,-1.1881226,5.4378304,7.5387425,-0.18855181,-0.93636745,-0.91825795
1621,A,166838351274395,-3.0520086,8.506598,6.716933,2.7505128,1.3177321,0.98750013
1621,A,166838390962416,-2.944868,12.579136,2.9257145,3.94787,0.9757822,0.20240025
1621,A,166838430875177,-2.813187,11.760319,4.5040917,3.5270905,0.4612595,0.8309063
1621,A,166838470993302,-0.078410104,7.946954,7.0754647,-2.4916537,-0.8021441,0.036218993
1621,A,166838510887989,-2.0979192,3.0783448,11.7268,-4.5902247,-1.0386329,-1.7768611
1621,A,166838551012207,-2.3612814,1.6567876,4.9266686,1.6074841,1.9355855,-0.47510794
1621,A,166838590822363,-0.8858546,4.5723267,6.26383,3.8083205,1.4871092,2.2988408
1621,A,166838630711113,-2.7144263,14.33229,0.2112883,0.070307456,-0.24714136,0.515588
1621,A,166838670584603,-2.5570073,9.015965,4.663306,0.8628642,-0.101200126,-0.2396845
1621,A,166838710415488,-3.354875,6.575675,4.3981485,2.4266725,0.5944176,0.33981937
1621,A,166838751099394,-2.5408466,6.2967505,3.8235402,2.4511735,0.52624065,0.8362326
1621,A,166838790411374,-1.6609775,6.7306995,0.52852005,2.0506341,0.9076053,0.7797736
1621,A,166838830291686,-1.8722657,6.88333,0.45429978,2.5289378,0.65513766,0.94275904
1621,A,166838870051582,-2.3439236,8.728063,-0.95229375,2.3148196,1.2090752,1.397627
1621,A,166838910109082,-1.6891093,9.07582,-2.783858,1.7512947,0.3323625,0.6125271
1621,A,166838949649967,-0.42556936,6.652888,-2.4600422,0.47510794,0.39521313,-0.28655612
1621,A,166838989725645,-1.1306617,11.525687,1.9117701,0.4314321,0.21518342,0.4079963
1621,A,166839029656738,-0.18136078,10.666168,1.2431892,0.7052051,0.18429075,0.4293016
1621,A,166839069859552,-2.4779987,12.54023,-1.1935096,1.0748519,0.11930962,1.0088054
1621,A,166839109552259,-0.8098387,15.160684,-3.4763808,0.002130529,1.0460896,-0.27696875
1621,A,166839149473562,-1.0935516,13.126211,2.8395233,-0.46978164,2.2945797,0.28442562
1621,A,166839189474394,2.943671,4.7399206,-1.8435353,-0.624245,1.6415725,0.39947417
1621,A,166839229501374,3.264494,9.189545,1.9243397,-0.29188246,0.05539375,0.5550028
1621,A,166839269470072,-0.58538234,5.7203465,0.16938977,-0.37284255,-1.2154667,-0.5944176
1621,A,166839309008198,-2.1398177,8.748413,3.7062242,-0.098004326,-0.6327671,-0.6583334
1621,A,166839348956166,-0.741604,4.1503487,-6.6720414,1.2229236,-1.1110709,0.18748654
1621,A,166839388757987,-0.7044938,2.8694508,-4.718373,1.325189,0.07989483,-1.2048141
1621,A,166839428737260,-10.617087,8.872911,-7.355586,1.5542208,1.4082797,-1.6010925
1621,A,166839468612936,-4.9877205,17.869123,-3.0681696,-1.5808525,-1.2197278,-0.19281286
1621,A,166839508841009,-4.8614264,14.009671,-4.775235,-0.41864893,0.6146576,-1.0471549
1621,A,166839548729082,-1.7848774,12.982558,-0.37469256,-0.18535602,3.5313516,-1.1483551
1621,A,166839588419707,2.5911248,10.562021,0.3609259,-0.54648066,2.9465215,-0.19920446
1621,A,166839628359968,4.0462008,5.98311,1.0354922,-1.0801781,0.13741912,1.0833739
1621,A,166839668228250,2.360683,9.318831,-0.55365914,-0.608266,-1.7086842,2.098571
1621,A,166839708059916,0.47225627,12.795213,-2.4821887,-0.6306366,-4.5454836,2.1273332
1621,A,166839748187884,-0.20530279,12.322357,-2.0123265,0.30146983,-1.5861788,0.9171927
1621,A,166839788159031,-1.3982137,7.892486,-2.6916811,0.0479369,2.4106934,-0.74675035
1621,A,166839828166790,2.4187422,6.931214,0.05207389,-0.12357068,0.45593318,0.8905611
1621,A,166839867726633,2.2481554,7.321469,-2.6132712,0.39947417,-0.66152924,1.063134
1621,A,166839907636945,-1.0606314,7.515399,-4.167108,-1.3752564,0.41864893,0.13848437
1621,A,166839947456374,-0.2885013,9.3026705,-0.40940848,-0.65194184,0.85327685,-0.002130529
1621,A,166839987396321,-0.78410107,11.159374,-2.754529,0.4463458,-0.035153728,-0.11611383
1621,A,166840027306946,2.4558525,8.124125,-5.04997,1.123854,1.1568772,0.41545314
1621,A,166840067121529,4.1102457,10.606912,-1.6035166,0.07989483,-1.2964269,-0.33449304
1621,A,166840106930644,3.9091327,16.316484,-0.33877954,-0.01917476,-1.4508902,0.3387541
1621,A,166840146786894,0.36511576,9.513959,1.2755109,-0.2908172,-1.6138756,0.09267801
1621,A,166840186686633,-2.8658595,8.752603,-1.6795325,0.65726817,-1.3518206,-0.5294364
1621,A,166840226830800,-0.42317516,9.443929,-2.5983074,-0.4048005,0.9555422,-0.2034655
1621,A,166840266775072,7.72968,7.165846,0.4997896,-0.4644553,0.4644553,-0.056459017
1621,A,166840306890539,2.2864625,5.324106,1.7345991,-1.0279802,-0.74675035,-0.3291667
1621,A,166840346782154,0.20171149,9.566033,1.532289,0.015978966,-1.051416,-0.17576863
1621,A,166840386734186,-0.6332663,10.569802,-0.8738836,0.23329292,-0.11504856,-0.5699165
1621,A,166840426770643,3.5212722,3.667917,-0.6512229,0.4527374,-0.85540736,1.0663297
1621,A,166840466457466,-1.5945383,11.120468,-5.531803,-0.5603291,-1.0482203,-0.18216023
1621,A,166840506225957,-1.4077905,10.934917,-2.0033484,-1.0578076,-1.3273195,0.24714136
1621,A,166840546314498,-4.9057193,10.399814,0.36631286,0.37603834,-1.4306501,0.2247708
1621,A,166840586392102,-1.3311762,11.216835,-2.9628246,-0.20879184,1.9643476,-0.48043427
1621,A,166840625826946,2.5719712,9.374496,1.845331,-3.154248,5.2453623,-0.8181231
1621,A,166840665747102,4.5005007,10.87626,6.323685,-1.3262542,4.6594667,-0.128897
1621,A,166840705645853,6.0890536,15.095442,7.9355817,2.6897926,0.34940675,1.9984361
1621,A,166840745588352,3.3632548,8.158841,2.6689363,2.6599653,-4.8160605,1.0972224
1621,A,166840785473924,-3.0137014,6.5122285,-3.7696705,-0.9534117,-7.3322153,-0.35260254
1621,A,166840825685124,-3.946243,9.445126,-2.5773582,-1.9451729,-0.50387007,-0.043675844
1621,A,166840865267623,-0.97264445,11.6986685,2.5115175,1.2996227,3.5111117,1.6895094
1621,A,166840905152310,3.506907,5.185242,-1.9698294,2.3531692,3.1127028,1.4146712
1621,A,166840945336165,4.745308,4.601057,-3.5260606,-0.69029135,-0.35792887,0.036218993
1621,A,166840985354185,0.7146692,9.66659,-2.259528,-1.1142666,-1.3944311,-0.13209279
1621,A,166841025193248,0.82360536,11.033679,-0.9415198,1.3677995,0.15020229,-0.11504856
1621,A,166841065167154,4.329315,9.913192,-1.3850456,0.20453078,1.3124058,0.3749731
1621,A,166841104751790,6.1728506,16.913837,0.87567925,-0.63702816,0.829841,0.051132694
1621,A,166841144609550,-0.51116204,10.557831,2.7641058,1.0865698,-2.0367856,0.24607609
1621,A,166841184616893,-1.4694413,6.622362,-2.5396495,0.4111921,-2.8826056,0.8724516
1621,A,166841224704133,1.2324153,8.945934,-2.6102784,-2.2338595,2.6759443,-0.8831042
1621,A,166841264317415,4.0162735,8.245032,2.8377275,-0.9534117,1.9504992,-0.3057309
1621,A,166841304529082,2.0524294,6.441001,1.1450269,0.20240025,0.5454154,-0.5763081
1621,A,166841344118509,1.1055226,8.22528,0.9283517,0.04474111,0.78936094,-0.010652645
1621,A,166841384015436,2.7850552,9.27394,-0.38726214,-0.8042747,-0.4111921,0.3749731
1621,A,166841424220332,2.4271219,9.992201,-1.0181342,-0.4165184,-1.6820526,0.083090626
1621,A,166841464065904,1.0540473,10.638636,-4.794389,0.31638354,-2.31695,0.38242993
1621,A,166841503731790,-1.3970166,9.603143,-4.6100354,0.15765914,-3.2767534,-0.08628642
1621,A,166841543751373,-4.0827127,9.537901,-3.2387564,0.46658584,-3.6474655,-0.28229508
1621,A,166841583546425,0.3549404,12.530055,0.6889315,-1.1174624,1.7949706,-0.21092236
1621,A,166841623651582,3.1016884,10.964247,6.059126,-0.9619338,5.4392405,-1.2282499
1621,A,166841663317778,5.951387,14.010868,2.7575219,-0.14807177,4.8192563,0.5486112
1621,A,166841703321634,12.046426,9.531317,8.484452,1.5478293,-0.9033443,1.6714
1621,A,166841743377571,-0.2112883,8.872911,2.7635074,1.5840483,-6.481069,0.053263225
1621,A,166841783364028,-3.933075,6.697779,-3.4554317,0.070307456,-6.3990436,-0.080960095
1621,A,166841822956686,-3.4243069,7.961918,-3.743933,0.5539375,1.5446335,0.49215218
1621,A,166841862887050,2.1697452,6.3943143,-1.738789,-0.14594123,3.4972632,0.83516735
1621,A,166841903063509,4.033033,6.906075,-1.702876,-0.5123922,0.47830373,0.29614353
1621,A,166841942654030,-0.3669114,9.778519,-3.755904,-0.23116238,-0.101200126,-0.046871636
1621,A,166841982882883,1.447295,10.882844,-2.211644,0.12783173,0.9917612,0.13635385
1621,A,166842022801737,3.8666358,8.902241,-2.7539306,1.2953615,0.97045594,0.043675844
1621,A,166842062397050,6.1159883,8.528147,-3.2148144,0.13422333,-0.17470337,0.43782368
1621,A,166842102560123,6.909666,18.065449,1.8764555,-0.31318775,-1.4604776,0.15446335
1621,A,166842142263872,1.9656396,11.723807,1.7932571,0.5187838,-3.1872714,0.9555422
1621,A,166842182144653,-3.0579941,6.510433,-2.2379801,1.3741912,-3.5473306,-0.721184
1621,A,166842221788664,-3.3357215,7.6231384,-5.589264,0.39095205,1.9259981,-1.8290591
1621,A,166842261957154,1.6561891,6.7324953,-1.6741456,-2.3989756,7.3023877,0.011717909
1621,A,166842301631060,9.589376,4.4861355,7.1724296,-1.9867182,3.193663,0.6103965
1621,A,166842341537830,3.6804867,9.4295635,1.2677298,0.46339005,-2.9177594,-0.0958738
1621,A,166842381896892,0.04129998,8.514978,-1.5855601,-0.40373522,-3.8157773,-0.22796659
1621,A,166842421621060,-1.5352819,10.084377,-4.538808,-0.07350325,-0.3920173,0.040480047
1621,A,166842461770436,0.99060094,10.253767,-5.8005524,-0.098004326,-0.4857606,0.43782368
1621,A,166842501258405,-1.8716671,9.938332,-3.2022448,0.5411543,-1.8141453,-0.18322548
1621,A,166842541451113,-3.934272,8.738836,-3.4847605,0.5134575,-1.2921658,-0.79255676
1621,A,166842581229705,0.66379243,11.705851,2.131438,-1.087635,4.108725,-0.7765778
1621,A,166842621420071,5.483919,10.66138,6.3913217,-1.5978967,5.7758636,-0.85540736
1621,A,166842661253820,10.316615,15.151706,3.4446578,-1.4572818,5.167598,0.11717909
1621,A,166842701170903,10.672752,12.180501,8.759786,1.5190672,-4.3697147,0.38136467
1621,A,166842740754863,-2.6952724,11.083957,2.846706,1.4935007,-7.8968053,0.17470337
1621,A,166842780581580,-7.2233067,6.0321913,-4.991312,2.2945797,-5.6980996,-0.39095205
1621,A,166842820576738,-3.3620577,3.7074213,-5.887342,2.275405,2.2050974,-0.05752428
1621,A,166842860748143,1.0947487,1.8968062,-3.1310172,-1.0801781,5.6618805,0.19068234
1621,A,166842900681737,4.0378213,7.1083846,-2.1398177,-3.1723576,2.1859226,0.07989483
1621,A,166842940620642,1.9009962,13.71698,1.0313023,-0.3355583,-0.1470065,-0.18322548
1621,A,166842980161790,2.1865046,11.399991,-2.908955,1.0833739,0.700944,0.058589544
1621,A,166843020083560,4.8919525,7.9942393,-3.7074213,0.9193232,0.6114618,-0.07882957
1621,A,166843060030278,9.329007,11.207857,1.5969325,0.20772657,-0.18109496,0.5422196
1621,A,166843099897779,3.7122097,14.407707,3.217807,-0.6679208,-2.5790052,0.20559604
1621,A,166843139811737,-1.8321629,8.221688,0.57760113,1.3464943,-3.407781,0.37071204
1621,A,166843180007362,-4.0318356,5.4725466,-4.285621,1.6341157,0.2609898,-1.196292
1621,A,166843219999914,1.7645266,6.0758853,-4.57113,-1.9963056,5.1580105,-0.17150758
1621,A,166843259530383,6.2608376,6.5271926,3.793014,-3.0445259,3.6804886,0.2066613
1621,A,166843299411842,4.4544125,8.807071,4.0557775,0.16937704,-1.9547603,-0.47723848
1621,A,166843339318664,0.0,9.348759,-1.3634979,0.4293016,-3.323625,-0.257794
1621,A,166843379219498,-1.1827357,8.368334,-3.1148565,-0.2790993,-0.26738137,0.04474111
1621,A,166843419130019,2.3517046,8.880095,-4.226963,-0.5230448,0.2790993,0.4346279
1621,A,166843459329340,2.3744495,10.992977,-3.6619315,-0.6743124,-1.3358417,0.32277513
1621,A,166843498945019,-1.7190368,10.519524,-2.0326772,0.4165184,-2.876214,-0.47297743
1621,A,166843539142571,-5.837662,11.333552,-5.7790046,0.4644553,-0.23648871,-1.0578076
1621,A,166843579138821,2.3666685,11.34253,3.7247794,-0.9033443,4.418717,-0.5251754
1621,A,166843618633716,6.2626333,10.126875,4.9919105,-1.1590078,4.889564,-0.21092236
1621,A,166843658600798,10.589554,12.003929,5.8663926,-0.08841695,2.0527647,0.07669904
1621,A,166843698679133,5.9639564,11.799225,2.5635915,1.3741912,-3.827495,-0.330232
1621,A,166843738663613,-2.5683799,10.198102,1.2312182,0.8330368,-6.0347233,0.34514567
1621,A,166843778367571,-5.808932,6.950966,-4.0252514,1.7544906,-2.227468,0.13954964
1621,A,166843818483769,1.9973627,4.2317514,0.84934306,-0.06711166,2.179531,0.83729786
1621,A,166843858492571,3.816956,7.4561424,-3.1866825,-1.1377025,0.10333065,-0.18855181
1621,A,166843897960018,-0.20649989,8.733449,-4.289212,0.23222765,0.3888215,0.1736381
1621,A,166843937856267,2.3199813,9.634268,-2.6809072,-0.59228706,0.4878911,-0.039414786
1621,A,166843978294965,2.2762873,10.546458,-3.2944214,0.07882957,1.2357068,-0.28016454
1621,A,166844017681319,4.187459,10.930728,-2.6761189,0.10546118,1.4210628,0.002130529
1621,A,166844057594913,3.4901476,11.673529,-0.46627077,0.8586032,0.8692558,0.23329292
1621,A,166844097497101,2.0883424,12.825739,1.1498153,-0.30360037,0.054328486,0.19813919
1621,A,166844137357362,-0.5919664,8.736442,0.84694886,-0.11717909,-1.1813782,0.015978966
1621,A,166844177310382,2.8802247,8.823232,0.47524905,-1.3219932,-1.2399678,-0.3174488
1621,A,166844217161268,1.697489,8.24204,-0.09636662,-0.23542345,-0.099069595,-0.018109497
1621,A,166844257134340,2.0266917,6.8444242,0.53809685,0.664725,0.67218184,-0.07989483
1621,A,166844297376527,2.1583729,6.707356,-1.0851719,0.71585774,0.25672874,0.23648871
1621,A,166844337138663,3.5314474,7.3298483,1.5023615,-0.3270362,-0.8926916,0.6593987
1621,A,166844376827829,3.3985693,8.193557,-0.7068881,-1.5840483,0.5273059,1.1408982
1621,A,166844416712674,1.1540052,8.508394,-4.548983,-2.0943098,-0.30786142,-0.10759171
1621,A,166844457002518,0.1933318,10.602123,-3.0029275,-1.8588865,0.34194988,-0.06498113
1621,A,166844496826997,-0.95708215,12.74254,0.45370123,-0.2034655,-0.31957933,-0.3174488
1621,A,166844536732466,2.8748376,13.526641,-1.3281834,0.8032094,-0.4165184,-0.3898868
1621,A,166844576788454,6.8127007,10.263943,2.9496565,2.2413163,1.3592775,-0.45806372
1621,A,166844616285382,2.7335799,11.543045,2.6090813,2.5065672,2.4671526,-0.6221144
1621,A,166844656164080,4.31076,10.033501,6.069301,0.922519,-0.011717909,-0.1768339
1621,A,166844695978872,5.2235494,10.381259,-1.6956934,0.49534798,-0.64341974,0.113983296
1621,A,166844735910330,0.6745663,7.0820484,-4.405331,-2.1315942,-0.48363006,0.7701862
1621,A,166844776127986,3.843891,6.419453,1.5915456,-1.2985574,-0.15765914,0.05006743
1621,A,166844815761319,-1.7280151,8.026561,-2.7700913,0.9289106,-0.5816344,-0.95660746
1621,A,166844855986162,0.073621705,8.456919,-1.4772224,0.4644553,-0.38029942,-0.4495416
1621,A,166844895880539,-0.62967503,8.755595,-4.1521444,0.97045594,0.13848437,-0.05539375
1621,A,166844935493299,0.7374141,8.18398,-3.0974984,0.15020229,-0.51452273,0.23435818
1621,A,166844975290850,2.60549,9.403826,-4.052785,0.8490158,-0.9853696,0.32384038
1621,A,166845015294393,5.932832,11.578958,-1.9476831,0.03195793,-0.112918034,0.25353295
1621,A,166845065294393,4.283227,14.697406,0.6703765,1.6927053,-0.9214538,0.037284255
1621,A,166845131873560,4.283227,14.697406,0.6703765,1.6927053,-0.9214538,0.037284255
1621,A,166845135702934,-1.4251486,8.375516,-2.055422,1.4040185,-4.542288,0.83516735
1621,A,166845174672205,-4.80636,6.8402343,-7.8625584,1.0290455,-1.0088054,-1.3017532
1621,A,166845214751371,0.6368576,6.469133,-3.21661,-1.0450244,6.2147527,-0.25353295
1621,A,166845254747569,6.283582,7.001843,4.993706,-1.6266588,3.5952675,0.76272935
1621,A,166845294827412,5.7005944,6.266823,2.1057005,-0.4878911,-2.3574302,0.19387813
1621,A,166845334818559,0.4237737,7.6764092,-3.3716345,-0.9502159,-3.2096417,-0.17789917
1621,A,166845374676008,-0.30645782,10.25257,-3.4781766,-1.4530207,-0.58056915,0.13528858
1621,A,166845414739810,1.5867572,10.382456,-3.0538042,-0.26205507,-0.4644553,0.5571333
1621,A,166845454160746,-0.55844754,10.236409,-4.279037,0.0958738,-2.0847225,0.35260254
1621,A,166845494086423,-3.4638114,9.2907,-5.2145715,0.12250541,-2.2903185,-0.608266
1621,A,166845534338141,-5.246893,12.172121,-7.3507977,-0.9108011,1.4093449,-0.6593987
1621,A,166845574024392,2.5797524,11.315596,3.5500026,-0.9981528,5.9111524,-0.54648066
1621,A,166845614168195,8.93935,9.941324,5.8484364,-0.23435818,4.35054,-0.1107875
1621,A,166845653986632,11.303026,11.723807,8.291719,0.57417756,0.81918836,-0.2066613
1621,A,166845694003351,5.97892,9.564836,1.666963,1.252751,-5.1090083,-0.4676511
1621,A,166845733473663,-3.1824925,9.729437,-3.1082723,0.21731395,-6.856042,0.022370555
1621,A,166845773403142,-7.1742253,8.486847,-6.1117983,0.28016454,-1.4295849,-0.38562572
1621,A,166845813658247,-1.738789,6.7223196,-3.2022448,1.4370418,5.2506886,0.49641323
1621,A,166845853512048,3.2028434,5.218761,0.80684596,0.7126619,3.516438,0.95128113
1621,A,166845893484340,4.4316673,5.040992,-4.4556093,-0.28549087,-0.6135923,0.44315
1621,A,166845933298454,-0.9600749,9.466674,-5.8867435,-1.5659387,-0.5305017,-0.23435818
1621,A,166845972979445,0.9600749,12.445659,-2.505532,-0.15765914,2.247708,-0.3717773
1621,A,166846014786735,5.5760956,12.136209,-1.83336,1.7278589,2.4160197,0.27164245
1621,A,166846052711007,10.700885,11.716026,-2.6593595,0.9257148,0.5390238,0.95447695
1621,A,166846093007569,4.5274353,9.739014,-1.412579,-0.314253,-5.1899686,0.26205507
1621,A,166846132677622,-1.4862007,9.815628,-1.8429368,0.22370553,-4.3292346,-0.28655612
1621,A,166846172771371,-9.065046,8.695741,-5.6407394,-0.10652645,-0.47723848,-1.1025487
1621,A,166846212451058,0.7727286,7.3537903,-2.8443117,-0.06924219,5.248558,0.034088463
1621,A,166846252261735,5.8292828,6.8486137,2.3517046,-0.52837116,2.6439865,0.8404937
1621,A,166846292078506,4.6902413,5.4911017,1.5161282,-0.86499476,-1.5840483,-0.10226539
1621,A,166846332086214,0.09756372,9.053674,-2.2750902,-1.4977618,-2.211489,-0.18429075
1621,A,166846372337881,0.45609543,9.865308,-2.4690206,-0.7392935,0.17150758,0.26418558
1621,A,166846412173818,2.4133554,9.927557,-3.0358477,0.0010652645,-0.08948222,0.5411543
1621,A,166846452204809,0.61770403,10.350733,-3.9773676,-0.56245965,-1.9835224,0.5305017
1621,A,166846493162204,-2.2750902,8.969278,-3.4650085,0.036218993,-2.892193,-0.4495416
1621,A,166846531628975,-7.9714947,11.662156,-6.633734,-0.12144015,-0.6018744,-1.5616777
1621,A,166846571957412,0.6440403,10.126276,-0.44891283,-0.7840346,4.986503,-0.25992453
1621,A,166846611367934,7.8745294,10.350134,7.5291657,-0.43995422,6.489591,0.00958738
1621,A,166846651652465,14.643537,14.161703,6.9102645,-0.9715212,3.1808796,-0.90014845
1621,A,166846691478090,8.3072815,13.6331835,3.7912183,0.6487461,-5.5692024,-0.813862
1621,A,166846731458663,-3.6008794,10.094553,1.5861586,1.1824435,-8.674448,0.28868666
1621,A,166846771326423,-11.3640785,6.0291986,-4.507085,2.202967,-5.783321,-0.39521313
1621,A,166846810956059,-7.20116,3.6565444,-5.3923407,2.2817965,4.422978,-0.19068234
1621,A,166846850842881,1.0426749,3.0538042,-2.6797101,0.69668293,7.0754867,0.40586576
1621,A,166846890749080,5.0876784,5.525219,-1.5251064,-2.1965754,2.0442424,0.48682585
1621,A,166846930969913,1.3575124,11.170148,-4.3299136,-1.5350461,-0.7275756,-0.017044231
1621,A,166846970650745,-0.01616086,13.678074,-1.9500773,0.3270362,1.0365024,-0.5230448
1621,A,166847010781788,5.341464,10.303447,-4.7459064,1.4295849,2.2658174,0.15446335
1621,A,166847050627204,5.9370217,7.900267,-2.3666685,1.8002969,-2.1923141,-0.3653857
1621,A,166847090315329,3.8115692,17.107769,-0.919972,-0.680704,0.46978164,0.18855181
1621,A,166847130153974,6.2554507,9.9951935,-2.2577322,-0.94808537,-2.7867317,1.1590078
1621,A,166847170058820,-2.6300306,6.8486137,-4.1335893,1.1824435,-2.8027108,-1.1323761
1621,A,166847210291423,-0.8475474,6.9078703,-5.4964886,0.3153183,3.6346824,-0.8692558
1621,A,166847250168403,5.222951,5.90889,2.2679076,-2.6855316,4.2237735,0.5273059
1621,A,166847289813037,6.215946,6.3165026,3.791817,-0.90654004,-2.23599,-0.27803403
1621,A,166847329948766,0.032920275,8.392874,-2.3870192,-0.16298546,-3.2565134,-0.28975195
1621,A,166847369634080,-0.061650693,8.880095,-3.6116533,-1.4839134,-0.58909124,0.26844665
1621,A,166847411006006,0.7098808,11.077373,-2.7096379,-0.18535602,-0.71159667,0.45060685
1621,A,166847449559287,-0.8391677,9.412206,-5.046977,0.4250405,-2.3702135,0.58269966
1621,A,166847489651006,-3.1423898,9.378088,-4.5435963,-0.07882957,-2.010154,-0.55074173
1621,A,166847529455693,-5.693412,12.432491,-7.1945763,-0.74248934,1.0226538,-0.36005938
1621,A,166847569541215,2.521693,9.858724,1.6783354,-0.6103965,3.86691,0.2908172
1621,A,166847608947309,7.056311,8.680777,3.9923313,-0.35260254,3.5547874,-0.09374327
1621,A,166847648948871,11.98657,13.271659,3.5236664,-0.80533993,3.0328078,-1.1483551
1621,A,166847688907673,10.028712,13.988124,7.0784574,0.62104917,-3.1361384,-0.82557994
1621,A,166847728528715,-2.4791958,11.182119,0.80445176,0.8692558,-7.278952,0.36964676
1621,A,166847768391058,-10.492589,6.0142345,-5.573103,1.562743,-5.2869077,-0.4346279
1621,A,166847808319600,-5.649119,5.0302176,-5.144541,2.2413163,4.459197,-0.037284255
1621,A,166847848671788,1.146224,2.9358897,-1.4317327,0.77444726,7.086139,0.8213189
1621,A,166847888523402,5.3486466,5.273828,0.70509243,-1.3102753,1.3241237,0.6295713
1621,A,166847928655694,1.5376761,11.368867,-5.457583,-1.8503643,-0.55606806,-0.09054748
1621,A,166847968363611,0.8463503,14.089278,-2.6791117,0.67963874,0.34940675,-0.4495416
1621,A,166848008414756,4.298789,10.248381,-4.123414,1.9430424,1.4413028,-0.11930962
1621,A,166848048542621,8.051102,12.603676,-0.45190558,1.3464943,0.7840346,0.18535602
1621,A,166848088241006,5.4527946,9.709685,-0.14425065,-0.8000136,-2.948652,0.49854377
1621,A,166848128108453,-0.9624691,10.402806,-1.9003977,0.15978967,-3.6517265,-0.039414786
1621,A,166848167690172,-4.827309,7.379528,-5.7885814,0.43995422,0.15339808,-1.3347764
1621,A,166848207479599,1.0342951,7.177817,-2.8209682,-0.3920173,5.5042214,-0.41438788
1621,A,166848247395277,6.132149,6.147113,4.3795934,-1.2186625,3.1201596,0.8990832
1621,A,166848287558558,4.969764,5.625177,2.5941176,-0.36432046,-1.9504992,-0.22796659
1621,A,166848327542932,0.6464345,8.590994,-2.7527335,-1.1057445,-2.3105586,-0.21944448
1621,A,166848367472255,0.729633,10.325593,-3.0903158,-0.9938917,-0.3110572,0.33662358
1621,A,166848407114963,2.0536265,10.387244,-4.221576,0.13209279,-0.7882957,0.7094661
1621,A,166848447311317,-0.83378077,9.455899,-3.933075,0.040480047,-2.683401,0.330232
1621,A,166848487309547,-4.5675383,9.423578,-5.501277,0.00958738,-2.401106,-1.0439591
1621,A,166848527149807,-2.9885623,11.269507,-5.4168816,-0.7435546,2.3180156,-0.47723848
1621,A,166848566779963,4.1341877,9.753379,7.823054,-0.8490158,6.40437,0.025566347
1621,A,166848606646005,14.793174,12.516288,3.0879216,-0.47723848,5.081311,-0.9331717
1621,A,166848646800276,11.3551,13.398551,8.280945,-0.02876214,-3.3651705,-1.1377025
1621,A,166848686419392,-0.57879823,12.378023,0.931943,0.9406285,-6.2584286,-0.36112466
1621,A,166848726653817,-6.974908,7.8529816,-2.891597,1.2697952,-5.721535,-0.23542345
1621,A,166848766629860,-6.5469446,5.08708,-10.5045595,2.271144,0.33662358,-0.40373522
1621,A,166848806304912,-1.6627731,2.4785974,-2.719813,2.0325246,6.5758777,0.15339808
1621,A,166848846095849,3.7475243,2.885013,-1.3862427,-0.69348717,4.1225734,0.32170987
1621,A,166848885956890,4.5286326,7.849989,-5.0038815,-1.7821875,-0.59761333,-0.10972224
1621,A,166848925860953,-0.19393034,14.0312195,-3.1896753,-1.0407634,0.27696875,-0.16831179
1621,A,166848965725171,4.034828,11.100118,-2.4265234,1.1867046,1.2144015,-0.024501082
1621,A,166849005913818,5.544971,9.406818,-1.1569979,1.901497,-1.4775218,-0.10972224
1621,A,166849045815537,4.176685,18.492813,-2.3517046,-0.87032104,0.58909124,0.051132694
1621,A,166849085877203,4.7016134,10.390237,-0.8182184,-0.7137272,-3.6836846,1.0396981
1621,A,166849125700796,-3.6272156,8.159439,-5.0439844,1.4157364,-2.5758095,-1.2218584
1621,A,166849165300433,-1.5765818,7.7171106,-5.0810947,0.89588743,4.67225,-0.7552725
1621,A,166849205250901,5.020641,5.2648497,4.2383356,-1.9686087,5.5095477,1.0141318
1621,A,166849245056421,7.951742,4.3837833,5.4671597,-1.1579424,-1.530785,-0.083090626
1621,A,166849285027100,1.388637,7.7087307,-1.2515689,-0.66152924,-3.9585228,-0.25246766
1621,A,166849325178192,0.4165911,10.794857,-3.4398694,-1.9611518,-2.3904533,0.49002165
1621,A,166849365196421,-0.8002619,11.222222,-2.3690627,-0.12037488,-1.7395768,0.2759035
1621,A,166849404705953,-2.4450784,9.183559,-6.9126587,0.78936094,-2.8016455,0.27377295
1621,A,166849444649652,-4.619014,7.240066,-4.4047327,0.033023197,-2.5459821,-0.9129316
1621,A,166849484820745,-4.39336,12.3834095,-8.329428,-1.1185277,2.0676782,-0.46552056
1621,A,166849524469391,3.2028434,11.574768,7.032369,-1.4668691,7.2246237,-0.13102753
1621,A,166849564634600,13.930064,12.53185,1.5819688,0.0628506,5.887717,-0.6775082
1621,A,166849604470328,14.411299,13.718177,10.679935,0.13315806,-1.2250541,-0.24607609
1621,A,166849644147412,1.9213469,10.896012,3.371036,1.2942963,-7.0989223,-0.0063915867
1621,A,166849684296683,-5.835268,7.687782,-1.9776106,1.099353,-8.062986,-0.0010652645
1621,A,166849724240224,-7.9146323,5.602432,-11.290457,1.2282499,-1.1504856,-0.2759035
1621,A,166849764231735,-2.3798366,4.3101616,-3.1136594,1.6948358,6.9210234,0.20453078
1621,A,166849803768454,3.4183214,4.673482,0.9367314,0.16831179,5.181446,0.61891866
1621,A,166849843670015,8.363545,4.805163,-4.546589,-1.8365159,-1.2687299,0.67005134
1621,A,166849883544079,-0.28072014,11.417948,-5.203199,-1.3017532,-0.2130529,-0.40053943
1621,A,166849923461682,2.5007436,14.283808,-1.5263035,0.567786,1.6074841,-0.63915867
1621,A,166849963595693,7.064092,9.309255,-3.525462,2.091114,1.5446335,0.48469532
1621,A,166850003579078,6.9796963,12.076952,-0.98461545,1.820537,-1.4146712,0.017044231
1621,A,166850043542463,3.7684734,9.086594,-0.6703765,-2.4746094,-3.9244342,1.0141318
1621,A,166850083480015,-2.2218192,10.011953,-1.4401124,-0.294013,-3.7848847,-0.10652645
1621,A,166850123004338,-5.7185507,8.717887,-5.5964465,1.3187973,2.082592,-1.5425029
1621,A,166850162921527,1.9560628,6.114791,-1.8387469,-0.7840346,5.3689327,-0.027696876
1621,A,166850202795953,6.7348895,6.407482,3.965995,-0.90014845,2.2050974,1.0120013
1621,A,166850242653558,4.596867,5.644929,1.1569979,-0.26312032,-1.6788567,-0.15446335
1621,A,166850282597306,0.8098387,8.89805,-2.4187422,-1.6245283,-1.9217371,-0.008522116
1621,A,166850322792464,1.2270284,11.056423,-2.622848,-1.031176,-0.45167214,0.19281286
1621,A,166850362729026,1.9117701,9.903615,-4.1156325,0.36218992,-0.91186637,0.55074173
1621,A,166850402622671,-0.7457938,10.140641,-3.5194764,-0.38242993,-2.7451866,0.2727077
1621,A,166850442518870,-4.367024,9.180567,-4.060566,0.23861924,-2.7441213,-1.2751216
1621,A,166850482480640,-4.577115,12.875419,-7.2262993,-0.5965481,2.2391858,-0.77444726
1621,A,166850522318817,3.2393548,11.634025,6.2464724,-1.4444987,7.255516,-0.3749731
1621,A,166850562246318,13.910911,11.845313,1.2964603,-0.2130529,4.507134,0.20879184
1621,A,166850601785224,13.558963,11.01273,9.961076,1.0737866,-1.6106799,0.07882957
1621,A,166850641736213,1.3467385,9.713875,2.0452468,1.200553,-6.236058,-0.45486793
1621,A,166850681936890,-4.0707417,7.9050555,-3.5571852,0.37390783,-5.824866,-0.09374327
1621,A,166850721547099,-6.3464303,8.198944,-6.795343,0.51452273,0.53263223,-0.13102753
1621,A,166850761746838,0.10175357,5.5407815,-1.2922704,1.5595472,4.990764,0.6562029
1621,A,166850801678661,3.4141316,4.4801497,-0.9295488,0.85753787,2.3947146,0.63702816
1621,A,166850841268401,2.6749218,5.4180784,-5.024831,-1.2218584,-0.42077947,0.1438107
1621,A,166850881098244,-0.8523358,12.360664,-5.2145715,-1.5606124,0.49428272,-0.28442562
1621,A,166850921077776,3.5410242,12.418126,-0.0017956513,1.0056096,1.5776566,-0.33981937
1621,A,166850961258036,6.1399302,8.6299,-3.7600937,2.126268,0.58696073,0.14274544
1621,A,166851000869026,4.8626237,13.818733,-1.7316064,0.95128113,-1.4966966,0.06391586
1621,A,166851041122203,4.19943,7.422025,-2.1601684,-1.2229236,-2.5992453,0.73290193
1621,A,166851081010015,-2.0033484,10.657789,-2.9706059,-0.13102753,-2.7292075,-0.4825648
1621,A,166851120919025,-5.159505,10.175956,-5.057751,0.39840892,2.3957798,-1.2676647
1621,A,166851160485433,2.9526494,7.1867948,0.6087258,-0.43995422,5.0163302,0.34514567
1621,A,166851200768869,9.93893,3.8905778,1.3192052,-0.6540724,0.75633776,0.75101143
1621,A,166851240499598,3.1040826,5.6102133,-0.59495914,-0.72011876,-2.0900488,-0.3110572
1621,A,166851280199234,1.7705121,9.13388,-1.0348936,-2.0804615,-0.7701862,0.07882957
1621,A,166851320083557,2.6120741,11.99495,-0.6667852,-0.82344943,-0.8064052,0.28868666
1621,A,166851360020120,0.64703304,10.178948,-4.1958385,0.78083885,-1.9899141,0.6317018
1621,A,166851399978088,-1.8016368,8.392276,-4.759673,-0.0063915867,-2.9582393,0.23116238
1621,A,166851439770745,-5.481525,8.9602995,-4.583699,-0.21198763,-1.6532904,-1.212271
1621,A,166851479723557,-2.3259668,11.604695,-5.9837084,-0.90014845,3.1723576,-0.26844665
1621,A,166851519892307,4.11264,10.650606,6.8869214,-0.33449304,5.3273873,0.040480047
1621,A,166851559839807,12.385804,9.687539,0.4961983,0.26525086,4.1555967,-0.5550028
1621,A,166851599765432,12.993333,13.34109,7.4884644,-0.44101948,-0.18216023,-0.7765778
1621,A,166851639344546,3.6254199,12.419323,3.1962593,0.4282363,-5.8184743,-0.44847634
1621,A,166851679231734,-5.1409497,8.781333,-1.91596,0.9938917,-7.919176,0.19387813
1621,A,166851719245379,-7.797915,5.98311,-10.899005,1.8524948,-0.78936094,-0.74035877
1621,A,166851759051943,-0.8643068,4.6178164,-1.7585411,1.8738002,5.7822556,0.58909124
1621,A,166851798997410,3.3566709,3.0897174,-2.168548,-0.314253,2.6674223,0.7094661
1621,A,166851838983452,2.309806,6.6325374,-3.9719806,-1.3997575,-0.16192019,0.07243799
1621,A,166851878980901,-0.5895722,11.629835,-5.4168816,-1.6500946,0.46232477,-0.22583607
1621,A,166851918637255,3.6140475,13.721169,0.39025488,0.40053943,2.0474384,-0.24181503
1621,A,166851958875745,6.5445504,10.468647,-3.5972881,1.3358417,0.9054748,0.39095205
1621,A,166851998677516,5.2343235,12.872425,1.1851299,1.1856394,-2.17527,0.017044231
1621,A,166852038525223,2.385822,8.420407,-3.345897,-0.58269966,-2.9593046,0.63915867
1621,A,166852078531316,-1.6633717,8.640076,-3.1028855,-0.037284255,-2.5502431,0.07137272
1621,A,166852118523297,-4.051588,8.325836,-5.1002483,0.16405073,1.8876486,-1.0695255
1621,A,166852158422202,2.932897,8.555081,-0.712275,-0.6679208,5.4488277,0.18216023
1621,A,166852198344130,10.79785,5.554548,1.7842789,-0.59122175,1.6799221,0.5209143
1621,A,166852237870588,3.5116954,5.5377884,0.47884035,-0.15339808,-3.3001893,-0.6199839
1621,A,166852277729805,-0.53809685,8.465299,-2.5809495,-1.4998924,-2.2892532,0.02130529
1621,A,166852317694390,0.95947635,11.413758,-1.1881226,-1.1451592,0.2695119,0.37071204
1621,A,166852357907046,2.368464,9.664794,-3.17531,0.716923,-0.83516735,0.644485
1621,A,166852397819285,-0.24420857,8.89446,-5.759252,0.049002163,-2.3329291,0.5368933
1621,A,166852437751838,-3.4901476,8.396465,-3.916914,-0.43249738,-2.9507825,-0.41864893
1621,A,166852477729962,-8.411429,13.740324,-5.265448,-0.6924219,-0.16937704,-1.454086
1621,A,166852517555327,1.204882,10.86788,3.0125043,-0.128897,6.223275,-0.036218993
1621,A,166852557048607,8.872911,8.851962,5.716755,0.3206446,4.0820932,0.07137272
1621,A,166852597036890,11.09114,13.663111,3.681085,-0.6892261,2.7931235,-1.1185277
1621,A,166852636855484,10.266935,14.021044,6.603807,-0.3206446,-2.5481126,-0.8628642
1621,A,166852676837307,-1.5508442,11.648989,1.5993267,1.1526161,-7.0904,0.3334278
1621,A,166852716768243,-7.744644,6.127361,-5.8388596,2.1017668,-4.4315,-0.81066626
1621,A,166852756669389,-5.7179523,3.2375593,-6.752846,2.0165455,3.7316215,-0.31851408
1621,A,166852796326733,1.5382746,3.0843303,-1.7052702,0.07456851,6.211557,0.58269966
1621,A,166852836477462,4.188656,6.9886746,-0.59256494,-1.2602079,1.8695391,0.32384038
1621,A,166852876440639,0.60333884,10.458471,-4.4514194,-1.5861788,-0.3930826,-0.010652645
1621,A,166852916555223,1.276708,13.543999,-1.3964181,0.43995422,1.7427727,-0.1736381
1621,A,166852956464389,5.2726307,10.418967,-4.072537,2.021872,1.5574167,0.12783173
1621,A,166852996394494,3.6601357,4.324527,-1.697489,1.0865698,-3.202185,-0.3121225
1621,A,166853036113452,0.41838676,12.378023,-7.8972745,0.680704,-2.23599,-1.0471549
1621,A,166853075869702,4.4101195,13.8241205,3.3692403,-3.9095206,2.7888622,2.034655
1621,A,166853115801108,1.4514848,9.968858,1.9740193,1.454086,-3.6261601,0.0
1621,A,166853155682722,-3.0747535,6.1926026,-7.790134,3.3949978,0.9534117,-2.0474384
1621,A,166853195535900,2.60549,4.7506948,-1.9901801,-0.8926916,6.7974524,-0.23222765
1621,A,166853235507306,10.796653,4.534618,7.117363,-3.529221,1.6809874,0.26205507
1621,A,166853275378295,2.5582044,11.1899,1.1067197,-1.0322412,-5.090899,-0.21624869
1621,A,166853315308555,-0.065242,9.277532,-2.9346926,-0.69987875,-3.516438,0.48469532
1621,A,166853355535743,0.37948096,9.430161,-3.8953662,-0.165116,-1.1899004,0.41545314
1621,A,166853395408869,-0.7236475,9.097966,-5.0906715,-0.18855181,-2.9635658,0.551807
1621,A,166853435307775,-3.4674027,8.120534,-4.6537294,-0.16192019,-3.976632,-0.53263223
1621,A,166853475221576,-8.89446,11.629835,-6.767211,-0.7819041,-1.8801918,-0.7946873
1621,A,166853515117045,-0.7062895,11.243171,-1.8752584,-1.2655342,6.3148875,0.20559604
1621,A,166853554684754,5.3157263,11.046846,7.4932528,-0.660464,7.069095,-0.036218993
1621,A,166853594853452,13.696031,12.352285,6.4697313,0.13209279,4.3004727,-0.48469532
1621,A,166853634485379,10.223241,11.438298,3.9947255,1.0801781,-4.8235173,-0.6402239
1621,A,166853674423660,-1.5765818,10.375273,1.0893618,1.0396981,-7.303453,0.029827405
1621,A,166853714615274,-6.091448,7.48188,-4.851251,0.8213189,-5.183577,-0.39627838
1621,A,166853754224337,-5.353435,6.3697734,-7.2185183,1.3528858,2.8027108,-0.30360037
1621,A,166853794447410,1.1073183,4.883573,-1.1522095,1.1483551,5.3082128,0.50173956
1621,A,166853834413660,4.0240545,5.5270147,-1.893215,-0.91612744,1.7757958,0.49747851
1621,A,166853874335170,0.91817635,8.69155,-4.2957964,-1.2367721,-0.4101268,-0.002130529
1621,A,166853913896888,0.08200141,11.201273,-4.171298,-0.8021441,1.4008228,-0.3291667
1621,A,166853953785171,3.8139634,13.223176,-1.9734207,1.1909657,2.2849922,-0.30040458
1621,A,166853993961420,7.709928,11.694478,-0.3309984,1.1419635,1.2697952,0.91186637
1621,A,166854033540222,6.2901664,12.212224,1.1150994,-0.06178534,-3.0509174,0.8905611
1621,A,166854073762410,-0.6075287,9.919776,-1.9847932,-0.23222765,-5.2943645,0.22903186
1621,A,166854113629441,-3.5966895,7.515399,-4.6022544,0.75633776,-1.7534252,-0.3387541
1621,A,166854153306837,-2.27928,7.6710224,-4.509479,-0.18002969,3.0956585,-0.52837116
1621,A,166854193431108,2.606687,7.1909847,0.59256494,-1.1941614,4.699947,0.33662358
1621,A,166854233092670,11.338341,4.781221,1.977012,-0.57417756,0.35260254,0.6540724
1621,A,166854273276629,2.8137856,8.1881695,0.4177882,-0.78936094,-2.654639,-0.24074976
1621,A,166854313269598,-0.077811554,9.730036,-2.6252422,-1.4988271,-2.2572954,0.11504856
1621,A,166854353117722,-0.27114335,10.7194395,-3.2028434,-0.06498113,-0.6956177,0.3898868
1621,A,166854393015223,1.2533646,8.787319,-4.892551,0.48043427,-0.6775082,0.551807
1621,A,166854432920952,-1.151611,9.496601,-4.5358152,-0.5475459,-2.6812706,0.4612595
1621,A,166854472448920,-4.708796,10.752958,-5.7825956,-0.3153183,-2.2434468,-1.3017532
1621,A,166854512431680,-4.372411,11.629835,-6.2943563,-0.25566345,2.6887274,-0.112918034
1621,A,166854552594389,3.0304608,9.017162,6.3542113,-0.5592638,5.772668,0.05965481
1621,A,166854592525639,12.315175,10.555437,1.79206,-0.6562029,4.91513,-0.5070659
1621,A,166854632434285,12.459426,15.014637,10.813412,-0.7190535,1.1227888,-0.63915867
1621,A,166854672476577,4.5142674,12.894572,2.7952304,1.6021577,-4.599812,-0.38775626
1621,A,166854711934389,-3.1106665,7.2149267,-0.9032126,1.8407769,-7.106379,0.40586576
1621,A,166854751767305,-8.392874,4.253299,-8.580819,2.1784658,-2.0197413,-0.89162636
1621,A,166854791760066,-2.6007016,3.8139634,-3.0119057,1.2793826,6.3628244,-0.03089267
1621,A,166854832035170,3.0621839,5.1277814,1.726818,-0.9235843,5.2496233,0.3174488
1621,A,166854871864806,5.5527525,8.103774,-2.6192567,-1.3944311,-0.17896444,0.3089267
1621,A,166854911848034,0.6691794,11.749545,-4.589086,-0.6828345,-0.17470337,-0.1736381
1621,A,166854951348973,2.5767596,10.523713,-0.58418524,1.2580773,1.4871092,-0.2876214
1621,A,166854991260274,5.6407394,8.124125,-4.9296613,1.6895094,0.17470337,0.13209279
1621,A,166855031142722,5.7574563,16.597803,-3.093907,0.77444726,0.6263755,-0.22583607
1621,A,166855071129232,9.316438,9.405622,1.3006501,-2.1571605,-1.7555559,1.7022926
1621,A,166855111219908,-1.2270284,9.347562,-1.2174516,1.055677,-4.89276,-0.2034655
1621,A,166855151197983,-4.9164934,7.417835,-7.1712327,0.40373522,-1.8865833,-2.2945797
1621,A,166855191089806,0.35673606,8.074445,-3.9378633,-1.655421,5.5244613,-0.2790993
1621,A,166855231137930,6.039374,7.0365586,6.6385226,-1.591505,4.0543966,1.4231933
1621,A,166855270590223,6.569091,5.9041014,3.1591492,0.52411014,-2.3787355,-0.25885928
1621,A,166855310428294,0.9379285,7.704541,-2.1883004,-1.1867046,-3.516438,0.0127831735
1621,A,166855350412878,0.219668,10.739192,-2.9993362,-1.4274544,-1.3134711,0.42077947
1621,A,166855390297306,0.12629414,10.453683,-3.163339,0.9757822,-0.97258645,0.61572284
1621,A,166855430304545,-1.1953052,7.4226236,-5.3103395,0.13209279,-3.3907368,0.46232477
1621,A,166855470415743,-4.593276,7.2286935,-5.231331,-0.5475459,-3.1148334,-1.2314457
1621,A,166855510219546,-5.358822,11.8094,-8.239645,-1.1547467,1.4093449,-0.63915867
1621,A,166855549973139,2.5312698,10.854114,7.599196,-0.8948221,7.536746,-0.12357068
1621,A,166855589752825,13.1950445,11.402985,2.5438392,0.47297743,5.221926,-0.69668293
1621,A,166855629734181,13.041815,14.85243,8.049306,-0.7850999,0.015978966,-0.7669904
1621,A,166855669612721,6.157887,13.84507,3.0759506,0.4346279,-4.95348,-0.4644553
1621,A,166855709674493,-2.9508536,9.529521,0.6991069,1.2186625,-7.6358156,0.3472762
1621,A,166855749781419,-9.532514,4.56694,-6.1369376,2.9060414,-4.8288436,-0.76059884
1621,A,166855789338920,-5.9519854,2.3523033,-4.200627,2.2615564,6.2989087,-0.23861924
1621,A,166855829242878,1.2491747,2.6072857,-0.08200141,-0.35473305,7.9085236,0.3089267
1621,A,166855869120639,10.634445,5.2421045,0.22984336,-2.1901836,-0.29614353,0.7595336
1621,A,166855909075794,0.7691373,11.9746,-2.9861681,-2.0250678,-1.0546118,-0.60507023
1621,A,166855948909127,-0.26515785,15.696386,-2.0272903,0.9214538,1.0215886,-0.6764429
1621,A,166855989179389,4.833295,9.605537,-1.8632874,1.6500946,2.83893,0.51452273
1621,A,166856029114648,8.292916,9.433155,2.2397757,2.3872576,-0.12463594,0.40053943
1621,A,166856068666158,5.1786585,11.309011,1.1731589,-2.2690134,-3.213903,0.7222493
1621,A,166856108725899,1.1139023,11.645996,-0.92176765,-0.34834146,-4.985438,0.21198763
1621,A,166856148555116,-3.750517,8.511387,-5.168483,0.77125144,-1.9899141,-1.381648
1621,A,166856188569024,-2.3511062,7.6560583,-4.209007,0.17576863,3.987285,-0.68176925
1621,A,166856228572670,3.311181,6.2871737,2.594716,-1.1920309,4.612595,1.1408982
1621,A,166856268585794,8.895657,5.021838,2.5390508,-0.48043427,0.07989483,0.24501082
1621,A,166856308102095,2.2146366,7.8463974,-1.2880806,-1.0247844,-3.919108,-0.19813919
1621,A,166856348011159,-0.060453594,10.059837,-2.8413188,-1.4604776,-2.7846012,0.21518342
1621,A,166856388350274,-1.1935096,10.4010105,-2.6689363,0.15233281,-0.9321064,0.2428803
1621,A,166856428210326,-1.6621746,9.588778,-6.081871,0.16085494,-1.8887138,0.74248934
1621,A,166856467707720,-2.533664,8.622119,-4.2173862,-0.29507825,-2.6855316,-0.17789917
1621,A,166856507878399,-9.594165,12.688072,-7.560889,-0.77870834,0.017044231,-0.79681784
1621,A,166856547819336,-0.5746084,10.403405,-2.2050598,-0.7797736,4.889564,0.083090626
1621,A,166856587554231,4.89315,10.368091,6.6085954,-0.128897,6.045376,-0.30253512
1621,A,166856627308607,11.968615,12.3516865,2.4492683,-0.26418558,4.584898,-0.57098174
1621,A,166856667231055,11.675324,13.603854,7.161656,0.23435818,-2.4756746,-0.8383631
1621,A,166856707127096,0.24121583,12.319963,2.6437972,0.5603291,-6.5694857,0.11824436
1621,A,166856747018658,-4.8500543,6.9120603,-2.8299465,1.3901701,-7.3364763,-0.34408042
1621,A,166856786894232,-8.41502,6.3566055,-9.568427,2.0112193,1.2772521,-0.9832391
1621,A,166856826846367,-1.3359646,4.671686,-1.073201,1.5041534,7.367369,0.7350325
1621,A,166856866978919,3.288436,4.0462008,-0.8726865,-0.87032104,3.717773,0.6668556
1621,A,166856906987825,4.9099092,7.313089,-3.4943373,-1.1313108,0.21944448,-0.007456851
1621,A,166856946900742,0.9804256,12.093113,-4.675876,-1.5371766,-0.19813919,-0.38562572
1621,A,166856986716680,2.4863784,12.221801,-0.80445176,1.1100056,1.4839134,-0.31318775
1621,A,166857026355534,6.0699,7.409456,-3.5895069,1.6969663,1.1622036,0.2247708
1621,A,166857066259023,4.6782703,14.01027,-5.5766945,1.3443637,-1.8620822,-0.16831179
1621,A,166857106342617,6.6163764,10.731411,1.8674773,-2.5896578,-1.1377025,1.1089402
1621,A,166857146478086,-0.1388637,10.724827,0.26994625,0.664725,-5.098356,-0.24181503
1621,A,166857186269180,-4.8279076,6.7851677,-7.191583,1.5371766,-0.44528055,-2.018676
1621,A,166857226154753,-0.8690952,7.225701,-3.6882677,-0.41971418,6.1795993,-0.33129725
1621,A,166857265724960,6.50744,7.2328835,5.9370217,-1.4050838,3.8008635,1.5350461
1621,A,166857305679596,7.1963716,5.9124813,4.466982,-0.39947417,-2.3329291,-0.25885928
1621,A,166857345904024,0.7092823,8.417415,-1.4209588,-1.743838,-5.365737,-0.19600865
1621,A,166857385873450,-1.2090719,10.262147,-3.86903,-1.474326,-2.83893,-0.051132694
1621,A,166857425724961,-3.0609868,10.572196,-3.6768951,0.78723043,-0.053263225,0.017044231
1621,A,166857465607148,-1.2360066,8.775947,-5.8586116,0.18109496,-2.159291,0.7254451
1621,A,166857505205741,-4.677073,8.871715,-4.1425676,-0.8607337,-3.4386737,-0.4612595
1621,A,166857545054440,-7.065888,13.077728,-8.86513,-0.69774824,0.8841695,-0.3387541
1621,A,166857585023033,0.038905777,10.805631,1.3263878,-0.5550028,7.2054486,0.002130529
1621,A,166857624892408,10.979211,9.630676,8.157045,0.34088463,6.475743,-0.099069595
1621,A,166857665136419,12.90774,12.633005,5.692813,-0.49641323,3.1009848,-0.8586032
1621,A,166857705092461,10.544662,13.133992,5.746084,-0.0958738,-4.796886,-0.56885123
1621,A,166857744733138,-1.5771804,11.133636,1.4101849,0.8159926,-8.829977,0.19920446
1621,A,166857784568971,-13.6649065,7.067683,-3.5482068,2.0975058,-6.883739,-0.8586032
1621,A,166857824794284,-9.406818,5.1966147,-8.388085,2.0900488,4.2472095,-0.25246766
1621,A,166857864177200,-0.095169514,4.051588,-1.0630256,1.1920309,8.968461,0.6040049
1621,A,166857903998398,6.401497,3.8935704,1.2198458,-0.87351686,2.7057717,1.0620687
1621,A,166857943895690,2.297835,8.288726,-3.311181,-1.623463,-1.0652645,-0.75101143
1621,A,166857984017461,0.12988544,13.622409,-4.300585,-1.2729911,0.3387541,-0.42397526
1621,A,166858023902253,3.5218706,12.20564,-1.5005659,1.0205233,2.525742,0.18642128
1621,A,166858063844440,8.996213,9.096769,0.4213795,2.625877,0.23755397,0.49534798
1621,A,166858103536940,5.475539,15.1858225,-2.1577742,-0.5763081,-1.8546255,0.4101268
1621,A,166858143648711,3.1896753,9.264363,-1.714847,-1.1749867,-5.442436,0.5954828
1621,A,166858183736315,-3.1202433,8.406042,-2.6114755,-0.2247708,-4.967328,-1.2623384
1621,A,166858223424805,-6.419453,10.199898,-5.711368,0.716923,3.283145,-1.401888
1621,A,166858268694649,0.88166475,6.7330937,1.8734628,-0.29614353,8.511463,0.90014845
1621,A,166858303487096,13.758879,3.8911762,1.8423382,-0.85540736,1.3273195,0.97258645
1621,A,166858343409492,4.3221326,7.0994067,1.2090719,-1.200553,-5.9313927,-0.5539375
1621,A,166858385111679,-1.0726024,9.625888,-1.4041992,-2.0921793,-5.3305836,0.015978966
1621,A,166858423293137,-3.7337575,11.337742,-3.4051533,-0.89375687,-1.0780476,-0.5933523
1621,A,166858462970117,-2.1703439,9.824607,-5.1104236,0.93849796,-0.5305017,0.6828345
1621,A,166858502800741,-3.3584664,7.7919292,-4.050989,0.24607609,-2.8868666,0.26418558
1621,A,166858543057930,-8.04751,10.453085,-5.48332,-0.29294774,-2.058091,-0.70627034
1621,A,166858583054803,-4.5352163,10.181941,-5.9346275,-0.8607337,4.08955,0.023435818
1621,A,166858622458710,2.356493,9.81922,6.1088057,-0.51984906,7.8062577,-0.113983296
1621,A,166858662352407,14.067731,10.324995,2.730587,0.14274544,6.14338,-0.6711166
1621,A,166858702235428,13.655928,15.560515,9.855731,-1.0897655,-0.07882957,-1.6319852
1621,A,166858742216418,3.8863878,15.520412,4.964976,0.40266997,-6.634467,-0.43036684
1621,A,166858782202929,-4.945224,8.734048,2.078167,2.2700787,-10.818826,0.07350325
1621,A,166858822352096,-13.066356,3.5901055,-11.18571,3.36304,-5.43711,-1.1430287
1621,A,166858862319804,-8.458116,2.2840683,-3.7642837,1.8397117,8.290954,-0.27696875
1621,A,166858902171471,-0.3585317,2.8904,1.6124948,-1.0343717,10.564228,0.18322548
1621,A,166858942082981,12.411542,6.3123126,2.1176715,-2.2200112,1.0865698,0.63702816
1621,A,166858981652616,1.8854338,12.837709,-1.9895816,-1.7065537,-1.8258632,-0.23648871
1621,A,166859021569283,0.41958386,14.18325,-2.9514523,0.9832391,0.8745821,-0.59867865
1621,A,166859061467824,5.741296,8.69993,-4.38917,2.3137543,3.5334823,0.6103965
1621,A,166859101388501,6.849811,6.657676,1.99437,1.2623384,-1.7939054,-0.3057309
1621,A,166859141571939,3.681085,15.54615,0.2100912,-2.1848574,-2.5033715,0.7254451
1621,A,166859181504908,2.124854,13.200431,-0.21547815,-1.2591426,-4.011786,0.45486793
1621,A,166859221107565,-2.6952724,7.781754,-3.1346085,1.8216022,-2.5587652,-1.3486248
1621,A,166859260989700,-2.3211784,5.966949,-5.9968767,1.3773869,4.353736,-0.71798825
1621,A,166859300913501,3.4404678,5.3037553,3.8307228,-1.5776566,5.9590893,1.0024139
1621,A,166859340794648,9.928755,6.025607,5.9729347,-1.8141453,-0.87990844,0.10333065
1621,A,166859381025429,2.2756886,9.400833,0.18435353,-1.6010925,-6.299974,-0.04261058
1621,A,166859420947200,-1.0708067,9.892841,-2.0763714,-1.8418423,-5.2155347,0.09374327
1621,A,166859460515533,-4.585495,11.274296,-3.8067808,0.34301516,-0.48043427,-0.4261058
1621,A,166859500445533,-1.6077064,8.295909,-6.163274,0.6466155,-1.1579424,0.8064052
1621,A,166859540305897,-5.9621606,8.839992,-3.90614,-0.4495416,-3.8136468,-0.15765914
1621,A,166859580232042,-8.290522,12.785636,-9.744401,-0.406931,0.02130529,-0.16831179
1621,A,166859620116106,-0.96785605,10.385448,-1.4053963,-0.6135923,7.387609,0.33449304
1621,A,166859660363710,5.6670756,9.928755,9.709086,0.22796659,7.0754867,0.11611383
1621,A,166859700457095,12.882002,12.381614,4.309563,0.018109497,3.6719666,-1.2016183
1621,A,166859739844023,11.327567,13.789405,5.7502737,-0.58696073,-3.827495,-0.7637946
1621,A,166859779738552,-0.61112,11.989564,2.8892028,0.5134575,-7.8456726,-0.1438107
1621,A,166859819639179,-15.311519,7.065289,-0.64942724,1.9611518,-7.4653735,-0.74035877
1621,A,166859859572460,-9.929952,3.9737763,-11.07019,2.5715485,2.6333337,-0.7914915
1621,A,166859899452773,-3.41473,4.284424,-2.079364,1.3667343,10.6356,-0.3930826
1621,A,166859939664127,3.7433343,5.0062757,3.7786489,-1.2090752,6.1529675,0.37816888
1621,A,166859979549751,5.843648,7.7207017,-2.3247697,-1.5180018,-0.40586576,0.11930962
1621,A,166860019159647,0.9247604,14.280814,-4.4963107,-0.9757822,-0.90014845,-0.71159667
1621,A,166860059445428,3.4183214,11.965023,-0.27832595,0.86392945,2.1038973,-0.04580637
1621,A,166860098836886,7.736264,7.3747396,-0.58119243,2.5672874,0.3685815,0.38029942
1621,A,166860138892096,2.681506,12.489353,-6.235698,1.2687299,-2.7302728,-0.46978164
1621,A,166860178787199,3.7840357,9.727043,0.2896984,-2.7462518,-2.3414512,1.1174624
1621,A,166860218671833,-0.70509243,10.967239,-0.6015432,-0.4079963,-3.435478,-0.5496765
1621,A,166860258653867,-4.5777135,9.458893,-5.197812,1.6990968,2.304167,-1.6319852
1621,A,166860298890221,1.661576,5.593454,0.19153613,0.083090626,6.593987,0.29827404
1621,A,166860338715794,11.428123,4.2054152,2.8485014,-1.28897,1.619202,0.6359629
1621,A,166860378645221,4.015076,7.6967597,0.8074445,-1.4391723,-5.0184608,-0.3920173
1621,A,166860418328190,-0.45789108,9.43076,-0.8583213,-1.8343854,-4.6189866,0.18322548
1621,A,166860458251158,-2.0416555,10.839149,-4.1096473,-0.7755125,-0.7850999,-0.21198763
1621,A,166860498016887,-1.757344,10.481815,-4.2515035,0.5028048,-0.8905611,0.5454154
1621,A,166860537900323,-2.8736405,9.23264,-3.9240966,0.22370553,-2.8495824,0.4644553
1621,A,166860577820063,-11.157578,9.940127,-5.1690817,0.26205507,-2.7654266,-1.0396981
1621,A,166860617724542,-5.7377043,10.724228,-7.8188643,-0.8511463,4.0543966,-0.033023197
1621,A,166860657652304,1.4173675,10.120291,6.821679,-1.4221281,8.537029,-0.24074976
1621,A,166860697806833,14.484322,8.544906,8.168418,0.08628642,6.1369886,-0.257794
1621,A,166860737828918,12.850878,14.721348,8.483853,-0.26312032,1.603223,-0.644485
1621,A,166860777341366,7.4962454,12.03625,4.396951,0.9470201,-4.5486794,-0.5028048
1621,A,166860817230792,-3.0765493,8.9279785,1.6478093,1.2655342,-9.6086855,0.37071204
1621,A,166860857160740,-11.337742,4.883573,-5.2421045,1.856756,-5.362541,-0.92784536
1621,A,166860897059124,-7.9714947,4.3436804,-5.009867,1.5233282,6.8507156,-0.44528055
1621,A,166860936964752,-0.59855044,5.474941,0.9636662,-0.350472,9.256083,0.18216023
1621,A,166860977148657,8.073847,7.373543,1.7651252,-0.93423694,2.5182853,0.8926916
1621,A,166861017068449,2.5809495,10.924144,-2.509722,-1.1377025,-1.4402375,-0.10652645
1621,A,166861056665740,1.1623849,11.661558,-1.6531962,0.05539375,0.18322548,-0.42077947
1621,A,166861096566729,5.3259015,8.902241,-5.7059813,1.6085494,2.6141589,-0.14061491
1621,A,166861136482251,5.181651,7.687183,-0.90500826,1.3827133,-2.57794,-0.2130529
1621,A,166861176385323,3.4302924,15.353417,-3.4853592,-0.3153183,-1.3422332,0.11930962
1621,A,166861216318761,4.4238863,12.158954,-0.3405752,-1.603223,-2.6045716,0.83729786
1621,A,166861256486678,-2.520496,8.731055,-1.3425486,0.40053943,-5.4083476,-1.1685951
1621,A,166861296393865,-5.6766524,8.333617,-8.269572,1.7757958,3.7518613,-1.5329156
1621,A,166861335994959,0.5907693,6.703166,1.6932992,-1.3187973,8.671252,0.6860303
1621,A,166861375928657,12.7814455,4.9386396,2.96881,-1.7108147,0.5581986,0.6114618
1621,A,166861415840845,3.7894228,7.7590094,0.81402856,-0.5368933,-5.6799903,-0.41864893
1621,A,166861455864595,-0.38845924,9.030929,-1.8459295,-1.9409119,-4.6008773,0.3334278
1621,A,166861495627147,-0.81881696,10.78947,-4.0916905,-0.9033443,-1.0982877,0.165116
1621,A,166861535812876,-0.8295909,10.274118,-4.091092,0.57311225,-1.5052186,0.3898868
1621,A,166861575703709,-2.4253263,8.076241,-4.9661727,0.053263225,-3.2160335,0.00958738
1621,A,166861615319907,-11.224616,10.541072,-4.413711,-0.60507023,-1.9931098,-1.2250541
1621,A,166861655156417,-2.7383683,11.422138,-6.38354,-1.1877699,4.4698496,-0.029827405
1621,A,166861695148448,3.2112231,11.015722,8.635287,-0.6764429,8.900285,-0.27803403
1621,A,166861735300532,14.9865055,14.642339,1.5640123,0.28229508,5.59903,-0.87138635
1621,A,166861774941886,12.826936,12.63899,10.25676,0.18961707,-4.979046,0.11930962
1621,A,166861815141678,-0.62488663,10.57878,2.3391352,0.56245965,-9.176188,0.16298546
1621,A,166861855061313,-16.320076,7.8930845,-1.7220296,1.3496901,-8.191884,-1.0546118
1621,A,166861894641834,-9.338584,4.3179426,-9.980229,1.8354506,1.7662084,-0.5581986
1621,A,166861934481001,-2.967613,4.9158945,-2.698864,0.89375687,9.654491,0.098004326
1621,A,166861974475844,3.544017,5.42167,3.2800562,-1.780057,5.4680023,0.92464954
1621,A,166862014309126,8.339603,6.3099184,-2.1577742,-1.6223978,-0.37284255,0.535828
1621,A,166862054593813,1.8052281,9.399037,-3.8564603,-1.128115,-2.8730183,-0.6562029
1621,A,166862094477563,0.5470751,12.250531,-2.3475149,-0.69348717,0.30040458,-0.4825648
1621,A,166862134094646,4.669292,11.199477,-2.107496,-0.18002969,0.71159667,-0.00958738
1621,A,166862173975636,6.558317,14.052767,0.11432313,1.1345067,-0.9960223,-0.3323625
1621,A,166862213890376,7.1544733,12.469003,2.6036944,-0.50813115,-1.2857742,0.77125144
1621,A,166862253812407,3.1136594,9.289502,1.3072342,1.1771172,-5.642706,1.0024139
1621,A,166862293980480,-2.4121583,6.0238113,-3.638588,0.05006743,-5.3231263,-0.17789917
1621,A,166862333891938,-2.9191303,8.095993,-6.117185,-1.1920309,2.3531692,-0.23648871
1621,A,166862373509333,4.111443,8.6334915,5.9729347,-2.2306638,4.2887545,1.0982877
1621,A,166862413398501,7.711724,5.547365,3.9480386,0.2609898,-3.4610443,0.2066613
1621,A,166862453317667,0.6266823,8.271967,-1.5023615,-0.6466155,-5.856824,0.19068234
1621,A,166862493200271,-0.9271546,8.861539,-2.7682958,-2.5726137,-4.559332,0.80533993
1621,A,166862533406625,-3.4811692,12.02009,-2.9011738,-0.8117315,-2.5672874,-0.28549087
1621,A,166862573311937,-4.758476,13.108852,-6.0202203,0.24394555,-0.8149273,0.27164245
1621,A,166862612956834,-2.8754363,10.031107,-6.1046157,0.24394555,-1.1163971,0.19707392
1621,A,166862652865792,-3.8235402,9.887454,-7.0449386,0.28229508,-0.46871635,-0.16298546
1621,A,166862692684542,0.11552023,8.960898,-2.1871033,-0.92038846,2.4991105,0.32170987
1621,A,166862732665532,4.0037036,9.52174,4.71538,-0.7222493,4.5625277,0.039414786
1621,A,166862772541001,9.857527,13.706804,2.9592333,-0.58696073,3.943609,-0.9896307
1621,A,166862812507979,12.199057,16.36796,8.3868885,0.35260254,0.2066613,-0.79681784
1621,A,166862852246416,2.6850972,10.927735,2.7569232,2.1081583,-6.2062306,0.99708754
1621,A,166862892362458,-3.7852328,4.545392,-2.416348,2.0250678,-8.776714,0.50387007
1621,A,166862932178708,-9.504981,4.666898,-7.150882,1.3081448,-0.53795856,-1.438107
1621,A,166862972037562,-3.1998506,5.923255,-2.895787,0.87777793,6.844324,0.294013
1621,A,166863011846521,2.819771,3.9881415,2.8790276,-0.67324716,4.954545,0.49002165
1621,A,166863052177041,4.609437,7.7919292,-3.6553473,-0.69029135,-0.25033715,0.5422196
1621,A,166863092063553,1.401805,10.745776,-4.072537,-0.84155893,0.7488809,-0.23861924
1621,A,166863131988761,3.1322143,11.513716,-1.6603789,1.2772521,1.6660736,-0.6125271
1621,A,166863171881885,5.0062757,8.1402855,-0.6171055,1.7736653,-0.40586576,-0.29294774
1621,A,166863211506990,6.427833,18.425179,0.090979666,-0.551807,2.8442562,0.20453078
1621,A,166863251394802,5.448006,11.190498,1.2599486,-1.3305153,-6.172142,0.8745821
1621,A,166863291293551,-2.9352913,7.4028716,-3.0992942,1.1259845,-5.3838468,-1.2389026
1621,A,166863331551052,-6.7887588,9.1751795,-7.7733746,0.72011876,4.007525,-1.8642128
1621,A,166863371093344,1.335366,5.6898203,2.1978772,-1.5339808,7.077617,0.7946873
1621,A,166863411315219,12.046426,4.507085,2.7509377,-1.0471549,1.1334413,1.1472899
1621,A,166863450989125,4.4921207,7.8469963,1.2689269,-0.6306366,-4.6147256,-0.21518342
1621,A,166863491128760,-0.08559271,9.68694,-1.0324994,-2.1166804,-4.67225,0.40373522
1621,A,166863530722511,-0.8870517,11.238981,-3.1118636,-0.46658584,-2.2786007,0.19281286
1621,A,166863570536156,-3.031658,11.13244,-5.421071,0.6860303,-3.2107072,0.47297743
1621,A,166863610523344,-5.620987,8.333617,-4.407127,-0.07456851,-4.221643,-0.58483016
1621,A,166863650431417,-8.468291,13.478757,-9.399636,-0.90973586,1.2282499,-0.479369
1621,A,166863690333969,-1.6190789,11.829751,1.1641805,-1.901497,9.837717,-0.64768076
1621,A,166863730563708,4.935647,11.844714,11.48319,-0.25033715,8.844891,0.28442562
1621,A,166863770541574,15.361796,11.473613,12.353482,1.1494204,2.1241374,0.97471696
1621,A,166863810041313,4.775235,8.614338,2.248754,1.0823087,-6.223275,-0.44101948
1621,A,166863849914124,-1.6531962,8.614936,-1.8351556,0.47617322,-7.005179,0.23329292
1621,A,166863889858656,-4.437653,8.692149,-7.079654,-0.29827404,-0.40373522,0.02130529
1621,A,166863930025895,-1.1444284,6.8168907,-1.3497312,1.2708606,3.3896716,0.38029942
1621,A,166863969654647,1.690905,4.590882,-1.5610195,1.8429075,2.505502,0.5954828
1621,A,166864009860583,3.3889925,4.8159366,-5.0906715,-0.46871635,1.1568772,0.34940675
1621,A,166864049421937,1.7842789,10.203489,-3.095703,-1.7278589,0.053263225,-0.002130529
1621,A,166864089830219,0.94930094,13.645154,-4.26527,0.37603834,-0.165116,-0.096939065
1621,A,166864129281311,1.7531542,9.411607,-4.63278,1.562743,1.381648,-0.15233281
1621,A,166864169174698,4.474763,9.288904,-0.94451255,1.5819178,0.9257148,-0.10652645
1621,A,166864209093969,9.922769,14.449606,4.927267,-1.4604776,2.0708742,0.69029135
1621,A,166864249282197,1.4867992,10.674548,-0.41718966,-0.023435818,-5.6086173,0.28229508
1621,A,166864288883813,-2.7497406,8.233061,-4.550779,-0.046871636,-2.7132285,-1.160073
1621,A,166864328845791,-1.0354922,8.02716,-4.270657,-0.29933932,4.9438925,-0.66579026
1621,A,166864368990687,4.5543704,7.073669,5.513248,-0.4527374,3.935087,0.93636745
1621,A,166864408857771,6.1650696,4.441244,3.5619736,-0.45699844,-2.167813,-0.011717909
1621,A,166864448843136,0.7715315,7.026982,-1.2707225,-1.4274544,-4.1428137,-0.11717909
1621,A,166864488747301,-0.1376666,9.709086,-2.107496,-1.9643476,-1.3369069,0.1949434
1621,A,166864528388239,0.42916065,12.162544,-0.4950012,0.17257284,-0.33129725,0.44208476
1621,A,166864568346573,-0.6410475,10.166978,-5.837064,0.92464954,-2.6184201,0.58269966
1621,A,166864608081520,-3.5045128,8.43178,-4.5765166,-0.080960095,-3.0264163,-1.0226538
1621,A,166864648026520,-8.547898,13.163321,-8.406641,-0.6402239,-0.3121225,-0.8969527
1621,A,166864688196834,-0.47225627,10.424355,-1.2108675,-1.051416,5.9867864,0.34940675
1621,A,166864728238187,5.4282537,9.991602,8.237849,0.19813919,6.2669506,0.080960095
1621,A,166864767709853,12.391191,11.768699,4.284424,0.14061491,4.13003,-0.8319715
1621,A,166864807639698,10.731411,14.210784,6.0639143,0.03089267,-1.9409119,-1.4583471
1621,A,166864847900739,1.0785879,11.75553,3.2501287,0.41971418,-6.1838603,0.4857606
1621,A,166864887773708,-3.8696284,6.344036,-1.6118963,1.743838,-7.471765,0.22903186
1621,A,166864927351468,-9.166202,3.389591,-9.163807,2.5459821,-0.5752428,-1.0972224
1621,A,166864967608759,-2.3277626,3.4033577,-2.8245595,1.4839134,7.318367,-0.06711166
1621,A,166865007432249,2.4486697,4.581305,1.1641805,-1.6415725,6.0570936,0.1949434
1621,A,166865047055374,7.6847887,10.6158905,-1.4047978,-1.6426378,-0.14913702,0.07563378
1621,A,166865087289177,0.04369418,12.911331,-6.079477,0.20879184,-1.8471686,-0.4133226
1621,A,166865126866936,-0.55725044,10.425551,-2.8939912,0.45912898,1.1994878,-0.49960902
1621,A,166865166811832,3.0400376,9.350554,-3.9348705,1.2431636,0.5400891,-0.30999196
1621,A,166865206644176,8.264186,16.069283,-2.5288756,0.19707392,3.1276164,0.11504856
1621,A,166865246585739,11.159973,8.08881,6.3631897,-0.4133226,-2.2391858,1.0034791
1621,A,166865286483760,-0.28491,9.850943,-1.726818,-0.17576863,-6.5609636,-0.21731395
1621,A,166865326398604,-3.353678,7.0784574,-5.568913,-0.16618125,-1.139833,-1.2761868
1621,A,166865366224332,0.40162733,6.8611836,-1.7274165,-0.5635249,5.313539,0.221575
1621,A,166865406213500,8.848969,5.5844755,5.2768207,-1.2197278,1.1813782,1.0524813
1621,A,166865446095374,4.295198,5.597045,2.7144263,-0.15765914,-3.1116376,-0.5571333
1621,A,166865486008968,0.88765025,9.3182335,-1.1623849,-1.8919097,-3.697533,0.31318775
1621,A,166865526204229,-0.048482586,11.340137,-1.8303672,-1.3880396,-3.1553133,0.21731395
1621,A,166865565810427,-2.4498668,10.394426,-5.2983685,0.9715212,-1.8077538,0.113983296
1621,A,166865606022822,-3.9534256,8.789114,-5.9986725,0.20240025,-3.0807447,0.05539375
1621,A,166865645921468,-7.056311,10.556035,-6.7444663,-0.5432849,-1.7821875,-0.69348717
1621,A,166865685830165,-3.1675289,11.16955,-5.967548,-1.1004182,2.7920582,0.44847634
1621,A,166865725722562,3.0693667,10.17835,5.9424086,-0.45912898,5.5436363,0.05539375
1621,A,166865765322873,12.483368,10.207679,0.8206126,0.43888897,5.0781155,-0.40906155
1621,A,166865805219802,13.363835,15.33965,8.440758,-0.49641323,-0.15765914,-1.3923006
1621,A,166865845144854,3.8714242,13.980342,5.08708,0.2247708,-5.630988,0.18855181
1621,A,166865885029281,-3.5284548,8.438364,0.5805939,1.7534252,-9.765279,0.9321064
1621,A,166865924949645,-10.873865,3.3494883,-5.7185507,2.7377295,-3.8658447,-1.1100056
1621,A,166865964844279,-6.6720414,3.141791,-4.0701427,2.1880531,6.7441893,-0.4293016
1621,A,166866005071260,0.878672,1.7034745,0.96067345,-0.89162636,8.271778,0.2609898
1621,A,166866044992406,9.044696,6.623559,-0.88405895,-2.2594259,1.0727214,0.67537767
1621,A,166866084622978,1.8644845,12.938865,-2.106299,-1.2676647,-1.655421,-0.4825648
1621,A,166866124770789,0.29867667,14.244303,-3.5302503,0.8926916,1.1877699,-0.5784386
1621,A,166866164631364,5.360019,12.152967,-0.6254852,1.8056233,3.5238948,0.111852765
1621,A,166866204303343,13.454815,15.316307,0.16819267,0.24181503,0.13422333,0.44315
1621,A,166866244209279,0.81043726,7.1939774,3.3476925,0.12357068,-8.688297,0.5432849
1621,A,166866284086052,-4.5022964,9.405023,-6.727707,-1.2911005,-5.4392405,-0.6562029
1621,A,166866323984020,-3.7511156,10.206482,-4.9972973,-1.3837786,4.3814325,-0.035153728
1621,A,166866364180635,2.4917655,8.079832,5.3941364,0.18642128,5.743906,0.9779128
1621,A,166866404111883,10.803835,3.436278,-0.3513491,0.4250405,-0.91612744,0.8404937
1621,A,166866443750740,3.1902738,5.0020857,0.5979519,-1.1227888,-3.959588,-0.43249738
1621,A,166866483602716,0.8822633,9.4217825,-0.31902736,-2.9667616,-3.193663,0.56885123
1621,A,166866523806416,0.29029694,12.238561,-0.5315128,-0.7819041,-2.2391858,0.19387813
1621,A,166866563719176,-1.4203602,10.121488,-5.257068,1.4977618,-1.2271847,0.2695119
1621,A,166866603224123,-2.0853498,8.000824,-5.221754,-0.10226539,-3.802994,0.0628506
1621,A,166866643259906,-11.851298,12.492346,-5.2863975,-0.74248934,-2.295645,-1.4956313
1621,A,166866683130530,-4.751293,11.583148,-6.549339,-0.50600064,2.1901836,0.4314321
1621,A,166866722829020,1.9512744,9.176975,4.23235,-0.20559604,6.3340626,0.18322548
1621,A,166866762925790,12.657546,9.339781,3.582923,0.61891866,6.5077004,-0.28016454
1621,A,166866802920634,14.583082,14.493898,9.128492,-0.9289106,0.9012137,-1.7385116
1621,A,166866842982093,4.4765587,15.0661125,3.8504748,-0.41225734,-6.010222,-0.5763081
1621,A,166866882920062,-3.3482912,9.470264,1.7537527,2.0250678,-8.649947,0.48469532
1621,A,166866922793967,-9.68694,3.74513,-5.7736173,3.5665054,-3.613377,-1.0013486
1621,A,166866962875685,-6.0902505,2.6659436,-4.55856,1.8684739,6.5886607,-0.46658584
1621,A,166867002348082,0.6374562,3.2615013,0.62728083,-1.031176,9.122925,0.10013486
1621,A,166867042247717,15.9657345,9.062652,0.8319851,-1.9835224,0.26312032,1.212271
1621,A,166867082472457,0.6452374,9.770737,-3.080739,-0.10226539,-3.0551784,-0.45380265
1621,A,166867122469853,-2.747945,9.949704,-8.292317,-0.5273059,-1.1132014,-0.6828345
1621,A,166867162279697,0.6548142,11.781268,-4.4819455,0.5134575,2.3446472,-0.46019423
1621,A,166867202164019,4.3993454,13.367427,1.0582372,1.3379722,2.9603698,0.25885928
1621,A,166867242108238,13.564948,16.011822,-2.9550436,-0.47191215,0.79255676,0.46871635
1621,A,166867282002092,3.9378633,6.8905125,4.050989,0.2066613,-5.25708,0.49854377
1621,A,166867321985112,-1.7986441,9.42238,-5.439626,-0.95234644,-4.1747713,-0.16192019
1621,A,166867361493395,0.22864626,9.385869,-2.468422,-1.6053536,1.9760655,0.12676647
1621,A,166867401386572,3.954024,8.893861,2.1769278,0.165116,1.1930962,0.16724652
1621,A,166867441366987,3.7594953,4.622605,-0.85473,0.28975195,-1.6990968,0.02876214
1621,A,166867481201936,0.4938041,4.4113164,-1.1168951,-1.0855045,-2.835734,-0.10013486
1621,A,166867521373395,-0.031124622,8.677185,-1.4407109,-2.2977755,-1.2580773,0.014913702
1621,A,166867561013551,0.91697925,11.096526,-0.3878607,-0.4079963,-0.04474111,-0.010652645
1621,A,166867600908916,1.6531962,9.865907,-2.6623523,0.9044095,-0.9054748,0.4644553
1621,A,166867641125217,-0.21667525,9.660604,-4.6285906,-0.12357068,-2.530003,0.31638354
1621,A,166867681158915,-2.2972364,10.746374,-4.8440685,-0.25033715,-2.3744745,-0.4282363
1621,A,166867720622873,-9.115923,11.058219,-4.9266686,0.02130529,-1.1206582,-0.7041398
1621,A,166867760580425,-2.542642,9.3738985,-4.7979803,-0.4282363,1.4093449,-0.025566347
1621,A,166867800567873,2.1493945,9.812037,3.4051533,-0.9555422,6.159359,-0.41438788
1621,A,166867840342873,13.789405,11.444284,6.903681,-0.44741106,5.6277924,-0.018109497
1621,A,166867880314540,12.604275,14.361619,12.846687,-0.18109496,-0.48043427,-0.9012137
1621,A,166867920418342,1.3856442,12.320562,1.738789,0.73822826,-6.1274014,-0.13528858
1621,A,166867960089905,-3.2202013,8.003218,-2.011728,1.5648735,-6.400109,0.06391586
1621,A,166867999726155,-7.409456,6.725911,-5.9759274,1.8322549,-0.07563378,-0.7126619
1621,A,166868039905321,-2.7275944,4.72376,-2.6581624,1.6042882,5.2496233,0.5422196
1621,A,166868079847822,1.726818,2.9921536,0.20590134,0.64768076,4.405934,0.5752428
1621,A,166868119696051,4.3209357,5.318719,-4.7099934,-0.8511463,0.46019423,0.63915867
1621,A,166868159497976,0.6757634,9.6767645,-3.6780925,-1.9185413,-0.2759035,-0.27803403
1621,A,166868199470635,0.25617957,13.679272,-2.942474,-0.3270362,0.99282646,-0.2908172
1621,A,166868239671988,3.5344403,10.721834,-3.82773,1.9153455,2.6493127,-0.25033715
1621,A,166868279673343,9.715072,6.5247984,0.4285621,1.7449032,0.89162636,0.6775082
1621,A,166868319471571,8.317456,14.2143755,0.338181,-1.1451592,-0.8223842,0.48682585
1621,A,166868359496207,4.827309,12.819155,4.4382515,-2.283927,-6.5598984,0.515588
1621,A,166868398994227,-3.459023,9.056067,-0.29747957,0.9321064,-6.8336716,-0.98430437
1621,A,166868438955739,-8.597578,8.246229,-8.95611,1.9931098,0.5901565,-1.6586168
1621,A,166868478790583,-0.8559271,5.523423,-2.183512,-1.1057445,8.580706,0.42717105
1621,A,166868518755322,16.715118,4.4699745,5.9705405,-1.9547603,2.573679,1.361408
1621,A,166868558823707,5.922058,7.7853456,4.771045,-0.40053943,-4.1875544,-0.12357068
1621,A,166868598950946,-0.53211135,8.446744,-1.7932571,-1.3390374,-5.893043,0.041545313
1621,A,166868638518184,-1.9153614,10.028113,-5.0798974,-1.1025487,-1.7417074,-0.2428803
1621,A,166868678668134,-2.1637597,10.290877,-2.6264393,0.21837921,-0.44208476,0.37603834
1621,A,166868718397040,-1.0480618,8.754398,-4.505289,0.049002163,-2.2125542,0.64555025
1621,A,166868758377873,-4.707599,9.069236,-4.3999443,-0.084155895,-2.6844664,-0.5336975
1621,A,166868798063966,-6.384139,11.225215,-7.375937,-0.54648066,0.2972088,-0.17150758
1621,A,166868838521206,-0.1364695,10.420763,0.46986207,-0.8426242,5.4562845,-0.28229508
1621,A,166868877912716,5.4102974,11.279084,7.369353,-0.13102753,6.767625,-0.31957933
1621,A,166868917829799,14.4609785,15.688605,8.012196,-0.5581986,4.397412,-0.65194184
1621,A,166868957444124,8.049905,13.772645,4.924873,0.74035877,-5.870672,-0.33129725
1621,A,166868997834175,-3.1381998,10.336368,1.1833342,0.9576728,-9.563944,0.07137272
1621,A,166869037741570,-11.018715,5.674258,-3.9468415,2.3371902,-5.301821,-0.68816084
1621,A,166869077648446,-7.0102224,4.033033,-4.829105,1.969674,5.937784,0.02876214
1621,A,166869117527039,0.095169514,3.494936,-0.17357962,0.6061355,8.476309,0.43356264
1621,A,166869157171257,6.120178,5.5701103,0.78410107,-1.3752564,0.31638354,0.9374327
1621,A,166869197046883,1.134253,8.771158,-2.678513,-1.8311896,-1.3134711,-0.38136467
1621,A,166869237006153,-0.79248077,13.603854,-4.1335893,-0.95234644,0.40266997,-0.567786
1621,A,166869277179905,2.5552118,12.026673,-1.0229226,1.6309199,2.5321336,-0.2759035
1621,A,166869316788445,10.741586,8.24204,-0.7062895,2.267948,1.7108147,0.66365975
1621,A,166869356987508,7.6788034,15.978304,1.0402806,-0.84688526,-1.4828482,0.67324716
1621,A,166869396841675,3.6463692,7.6823945,1.644218,-0.88203895,-6.879478,0.16937704
1621,A,166869436718133,-4.099472,8.717887,-4.216788,0.056459017,-5.7705374,-1.3912354
1621,A,166869476387560,-6.777985,9.692925,-8.50181,0.26844665,2.6077673,-0.7222493
1621,A,166869516295789,-0.557849,7.53575,3.031658,-1.1334413,10.436396,1.0130665
1621,A,166869556492768,15.264832,6.345233,3.7966053,-0.38562572,1.031176,1.0333065
1621,A,166869596091518,4.8704047,5.394735,2.3582888,0.084155895,-5.7779946,-0.39627838
1621,A,166869636324331,-1.0402806,8.217499,-2.1278467,-2.3957798,-6.110357,0.06178534
1621,A,166869676141675,-2.6713305,11.429919,-3.469797,-2.0431771,-1.4945661,-0.21518342
1621,A,166869715824591,-1.3012487,10.415975,-3.1016884,1.144094,0.7222493,0.23861924
1621,A,166869755993550,-0.09935937,7.5884223,-5.0284224,0.6125271,-1.2719258,0.59867865
1621,A,166869795922715,-4.578911,9.097368,-3.678691,-0.9374327,-3.830691,-0.43675843
1621,A,166869835828393,-8.073847,13.214198,-8.45213,-0.7680557,-0.056459017,-0.29614353
1621,A,166869875445685,-1.1767502,10.936115,-0.8319851,-0.51984906,6.557768,-0.25992453
1621,A,166869915324227,5.2899885,10.597934,9.105149,-0.027696876,7.0914655,-0.2130529
1621,A,166869955216831,13.732542,12.999917,2.8993783,0.060720075,4.556136,-0.47510794
1621,A,166869995154852,12.243349,12.8371105,7.727885,0.4708469,-3.6645098,-0.314253
1621,A,166870035282559,-0.47165772,11.455657,2.8874073,0.5581986,-8.461395,0.07243799
1621,A,166870075260216,-11.988366,8.957906,-2.0649989,1.4189322,-7.701862,-0.9044095
1621,A,166870114874383,-9.535507,4.8105497,-11.574169,2.211489,1.5094798,-0.3270362
1621,A,166870154776205,-2.8018146,3.470994,-2.606687,1.3358417,9.138904,0.28229508
1621,A,166870194959800,3.3620577,4.2760444,2.415151,-0.37603834,4.781972,0.6423545
1621,A,166870234560008,6.227917,5.9705405,-5.391144,-1.8152106,-0.8032094,-0.002130529
1621,A,166870274791050,0.26994625,12.644378,-4.5621514,-1.7022926,-0.38242993,-0.7222493
1621,A,166870314598602,2.135628,13.73733,-1.3880384,1.1504856,1.598962,-0.25353295
1621,A,166870354274487,9.077017,9.747394,-0.7787141,2.143312,1.9760655,0.7957525
1621,A,166870394511309,7.025785,14.7159605,0.6476316,0.33981937,-2.0378509,0.773382
1621,A,166870434102977,2.5767596,8.539519,0.2801216,-0.73290193,-6.2296667,0.20559604
1621,A,166870474305164,-5.245696,8.856153,-4.185065,-0.26738137,-4.9119344,-0.8948221
1621,A,166870513809070,-4.450821,9.091981,-8.166622,0.20240025,2.7398603,-0.6423545
1621,A,166870554117248,1.003769,7.4669166,5.113416,-0.7978831,9.572467,0.6530071
1621,A,166870593637248,14.4531975,5.020641,2.6725276,-0.25246766,1.5169365,0.83729786
1621,A,166870633611675,5.0493712,6.165668,1.3425486,-0.6221144,-5.9921126,-0.19281286
1621,A,166870673520580,-0.7954735,8.500014,-1.4089876,-2.389388,-5.735384,0.35153726
1621,A,166870713708288,-1.9500773,11.467029,-3.3141737,-1.2516857,-1.2335763,-0.30679616
1621,A,166870753624644,-2.6970682,10.514735,-4.1461587,1.603223,-0.49641323,0.34514567
1621,A,166870793532925,-1.9536686,7.147889,-4.2999864,0.56459016,-2.1209416,0.5368933
1621,A,166870833176727,-5.451597,8.499416,-5.5617304,-0.7488809,-3.0498521,-0.58909124
1621,A,166870873315060,-6.096236,11.674128,-7.0066314,-1.0354371,2.549178,0.0958738
1621,A,166870913241414,0.8439561,10.397419,3.1986535,-0.54435015,6.28293,0.11824436
1621,A,166870953078914,12.240954,7.507618,7.771579,-0.084155895,5.075985,-0.26631612
1621,A,166870992772612,11.23958,14.079103,4.0785227,-0.29933932,2.7718182,-1.5435683
1621,A,166871032916205,10.023325,15.34803,6.9844847,0.25992453,-2.4479778,-0.82557994
1621,A,166871072798497,-0.84934306,10.460267,2.148796,1.4753913,-7.5921397,0.39840892
1621,A,166871112477873,-16.235083,4.4358573,-3.1561563,2.2690134,-6.326606,-0.87032104
1621,A,166871152617716,-8.885481,3.8307228,-6.8492126,1.2921658,3.690076,-0.4612595
1621,A,166871192570319,-1.6047137,5.3169236,-2.2523453,0.05539375,9.757822,0.14061491
1621,A,166871232151622,4.5244427,7.8727336,4.705205,-1.5084145,3.5824845,0.813862
1621,A,166871272387768,2.2930467,9.427169,-1.7956513,-0.76272935,-0.8522116,0.002130529
1621,A,166871312217716,-0.0724246,11.474212,-4.470573,-0.15978967,0.12463594,-0.39734364
1621,A,166871351885789,3.6589386,10.75655,-1.477821,2.2498386,3.3747578,0.20559604
1621,A,166871392038966,6.7426705,5.4061074,0.8295909,1.3379722,-1.1558119,0.23009712
1621,A,166871432010320,4.208408,17.190369,-5.1942205,-0.2727077,-1.6511599,0.024501082
1621,A,166871471912091,7.642292,12.019491,1.0845734,-2.211489,-0.6625945,1.8034927
1621,A,166871511489852,-0.22266077,8.896255,-0.6500258,1.7694043,-5.643771,-0.23435818
1621,A,166871551718079,-4.493318,4.824915,-7.4136457,0.74035877,-2.179531,-2.3979104
1621,A,166871591450165,-0.7799112,7.597999,-5.6539073,-1.7757958,6.549246,-0.2545982
1621,A,166871631205996,13.321937,4.841076,7.7608047,-2.5502431,3.6996634,1.4253238
1621,A,166871671099174,6.727108,7.104195,4.3646297,0.74461985,-4.1747713,-0.5699165
1621,A,166871711024747,-0.16938977,8.399458,-3.0214825,-1.470065,-5.6405754,0.07882957
1621,A,166871750692351,-1.1013328,9.944916,-3.6954503,-1.7491642,-2.0485036,0.10439592
1621,A,166871790884174,-2.1374235,10.7356,-2.9352913,0.9108011,-0.40266997,0.42397526
1621,A,166871830757351,-1.8303672,7.799112,-5.864597,0.5070659,-1.3464943,1.0652645
1621,A,166871870618861,-3.2076318,8.425196,-4.435259,-0.28655612,-1.9579561,0.20453078
1621,A,166871910535320,-6.6947865,11.899182,-7.0832458,-0.9108011,0.61678815,-0.69668293
1621,A,166871950420371,-0.20709845,11.179725,-1.2635399,-0.29933932,5.4392405,0.16192019
1621,A,166871990319018,10.590752,9.176975,6.125565,-0.035153728,3.5558527,-0.35792887
1621,A,166872030560945,9.51755,12.20983,1.9021933,-0.10439592,2.078331,-1.5211977
1621,A,166872070388914,10.933122,14.713567,4.685453,-0.42077947,-1.2474247,-0.45380265
1621,A,166872110096258,0.82240826,12.325351,0.9900024,1.1025487,-5.638445,0.69774824
1621,A,166872149885788,-13.215395,7.443573,-1.9321208,1.0652645,-5.449893,-0.93849796
1621,A,166872189869903,-6.4182563,5.1505265,-9.381081,1.7406421,1.9750003,-0.36964676
1621,A,166872232315267,-0.41479546,3.526659,-3.1842883,1.0365024,7.3886743,0.32490566
1621,A,166872269621727,4.076727,5.089474,2.920926,-0.86499476,2.5076325,0.67218184
1621,A,166872309907507,3.321955,6.5499372,-2.8646624,-1.5861788,-1.4562165,0.05006743
1621,A,166872349395580,-0.6368576,12.516887,-6.479907,-1.5595472,-0.30253512,-0.7595336
1621,A,166872389374956,1.8267759,15.152304,-0.7942764,0.81705785,2.702576,-0.22796659
1621,A,166872429290319,8.401853,7.7572136,-3.8576574,1.6692694,1.1110709,1.0247844
1621,A,166872469507820,3.5511997,8.296508,-2.7593174,2.1294637,-4.3026032,-0.165116
1621,A,166872509394642,2.6090813,14.807539,-0.7032967,-2.2935145,-0.30146983,0.73822826
1621,A,166872549344121,3.8492777,12.785037,0.3393781,-0.5656554,-3.6687708,0.62531024
1621,A,166872589219799,-2.9179332,6.7983356,-4.2383356,1.635181,-3.3001893,-1.5371766
1621,A,166872628745110,-3.8857894,6.1782374,-5.871181,0.644485,4.4868937,-1.4626081
1621,A,166872668708080,2.4307132,6.96593,5.2241483,-2.0644825,6.82728,0.8511463
1621,A,166872708951621,11.349114,6.171055,4.0186677,-1.2751216,-0.98856544,0.67537767
1621,A,166872748597456,2.3535004,8.632295,-0.18315643,-0.78723043,-5.5606804,-0.05219796
1621,A,166872788765164,-0.545878,9.352949,-3.5476084,-1.5776566,-3.8786278,0.3653857
1621,A,166872828648445,-2.2709002,10.731411,-3.5164838,0.26418558,-1.0961571,0.036218993
1621,A,166872868582247,-3.7140055,8.267179,-5.0900726,0.37710363,-2.8698225,0.49428272
1621,A,166872908082089,-10.924743,9.328408,-4.9182887,-0.094808534,-2.7963192,-0.5592638
1621,A,166872948025892,-6.5523314,11.219229,-7.80809,-1.1739215,1.8993665,-0.14807177
1621,A,166872988236100,0.48003745,11.23958,4.245518,-1.0173275,7.8328896,-0.49534798
1621,A,166873028241049,5.868787,10.681132,8.957307,-0.128897,7.43235,-0.4079963
1621,A,166873068038131,14.656106,16.071678,8.556877,-0.49002165,3.6954024,-0.8000136
1621,A,166873107628705,9.255385,12.382213,5.497087,1.2836437,-5.887717,-0.18535602
1621,A,166873147562298,-3.0478187,8.758589,1.1390414,1.0578076,-10.019877,-0.06178534
1621,A,166873187388079,-11.716026,5.767632,-4.4675803,1.7608821,-5.7012954,-0.59867865
1621,A,166873227377558,-7.967903,4.413112,-3.9965212,1.3859091,6.8134313,0.004261058
1621,A,166873267612038,-0.45669398,5.096657,-0.32441434,0.6018744,9.437178,0.33662358
1621,A,166873307473339,10.763732,5.849035,1.5221137,-1.139833,0.25566345,1.2378373
1621,A,166873347383183,1.3640964,10.138845,-3.7355533,-1.4444987,-1.2879047,-0.47830373
1621,A,166873387000059,0.5542577,13.967175,-2.3780408,-0.0777643,0.47723848,-0.34621096
1621,A,166873426877403,4.1635165,11.042657,-1.9829975,1.4594123,2.2594259,0.18961707
1621,A,166873466777246,8.993818,13.244125,0.57879823,1.5393071,1.2580773,0.5049353
1621,A,166873506697402,6.0208187,12.036849,-0.8750807,-1.1313108,-4.9247174,0.28229508
1621,A,166873546862871,-0.96785605,9.190144,-0.7679402,0.45380265,-6.5556374,0.098004326
1621,A,166873586805007,-13.877392,7.748235,-4.3197384,0.12783173,-1.4157364,-1.5158713
1621,A,166873626628860,-2.7874494,7.2819643,-5.5282116,-0.49002165,7.9117193,0.08841695
1621,A,166873666315267,3.8827965,8.977059,9.725247,-1.091896,7.770039,1.2314457
1621,A,166873706205319,9.2907,5.445013,8.4234,-0.13315806,-0.7680557,0.38136467
1621,A,166873746057246,1.2934675,7.183802,-2.1086931,-0.7318367,-6.7974524,-0.20559604
1621,A,166873786017871,-1.039682,8.360553,-2.8736405,-2.2093585,-3.641074,0.32597092
1621,A,166873826190214,-2.4983494,11.6825075,-2.1799207,-0.40266997,0.5273059,-0.09267801
1621,A,166873866141673,-0.5081693,10.121488,-5.4743423,0.36964676,-1.8152106,0.628506
1621,A,166873906030266,-3.7612908,7.4723034,-2.8886044,-0.0053263223,-3.52496,-0.33662358
1621,A,166873945938080,-8.783129,10.745177,-7.97748,0.023435818,-1.6298546,-1.0588728
1621,A,166873985832142,-2.0033484,10.811018,-1.4508862,-1.4359765,8.19721,-0.6924219
1621,A,166874025742559,4.742315,12.572552,11.650186,-0.85327685,10.145578,-0.77231675
1621,A,166874065649225,16.80131,16.869545,9.052477,-0.3536678,4.055462,0.05752428
1621,A,166874105202768,8.736442,11.184513,4.349067,1.6884441,-6.6919913,-0.112918034
1621,A,166874145177974,-2.806603,8.489241,-0.83617496,0.40053943,-9.623599,0.02130529
1621,A,166874185060840,-11.212047,6.299743,-3.4272997,1.4327807,-4.9438925,-0.41225734
1621,A,166874225271101,-7.1981673,5.5527525,-6.083068,1.2314457,5.3870425,0.21411815
1621,A,166874265160891,-0.055066638,4.559757,0.45070848,0.7233146,8.630773,0.59761333
1621,A,166874304764433,6.751649,5.565322,1.3634979,-0.8948221,0.90973586,1.4082797
1621,A,166874344716934,1.7046716,8.541913,-2.606687,-1.3230585,-1.2729911,-0.38456047
1621,A,166874384902714,0.45609543,12.932281,-4.1934443,-0.7850999,-0.0010652645,-0.5113269
1621,A,166874424797402,3.276465,11.900379,-1.4383167,1.1515509,2.674879,-0.28122982
1621,A,166874464385995,9.417592,10.703279,0.3453636,1.8141453,0.7233146,0.25672874
1621,A,166874504326101,7.018004,16.127941,1.435324,-0.6625945,-1.8184065,0.10333065
1621,A,166874544483288,1.9620483,7.513005,-0.5081693,0.45380265,-5.5180697,0.95447695
1621,A,166874584073548,-2.6779146,7.025785,-5.3145294,0.23116238,-3.3428,-1.3177321
1621,A,166874624305007,-4.0037036,9.148245,-3.9803603,-1.2431636,4.200338,-0.7914915
1621,A,166874664243964,2.6970682,8.110358,6.0561333,-1.164334,5.5052867,1.1163971
1621,A,166874703806257,9.956886,4.563947,2.4301147,0.03834952,-1.099353,0.49321744
1621,A,166874744000631,2.541445,6.9126587,-1.359308,-0.34301516,-4.923652,-0.33981937
1621,A,166874783939380,-0.28311434,8.81964,-1.9853917,-2.1528995,-3.1723576,0.19068234
1621,A,166874823821829,-1.2084733,11.725603,-2.147599,-0.26844665,-1.397627,0.19600865
1621,A,166874863457454,-3.0783448,9.601347,-5.3145294,0.7882957,-2.6610305,0.38136467
1621,A,166874903614850,-5.181651,7.740454,-4.722563,0.07669904,-2.787797,-0.23542345
1621,A,166874943580735,-6.2464724,12.245743,-8.911818,-1.0141318,0.72651035,0.039414786
1621,A,166874983141569,-0.50278234,10.081385,-0.7332243,-0.9416938,5.9729376,0.21518342
1621,A,166875023254016,5.168483,9.591172,8.774151,-0.28229508,5.780125,-0.060720075
1621,A,166875062953965,11.432912,12.8448925,2.4756045,-0.18961707,3.213903,-1.0705907
1621,A,166875103184224,10.108319,15.380352,7.195773,0.06391586,-1.2815131,-1.2026836
1621,A,166875142816673,1.3964181,13.03164,3.0891187,0.5965481,-7.06803,0.60933125
1621,A,166875182954121,-4.482544,5.8693852,-2.77069,2.018676,-7.576161,-0.43249738
1621,A,166875222588704,-9.911396,4.2359414,-9.376292,2.6162896,0.9768475,-1.0908308
1621,A,166875262234902,-2.9376855,2.9783869,-2.0667946,0.9779128,8.3783045,0.28229508
1621,A,166875302459797,3.0065188,5.805939,0.31004912,-1.5893745,5.1739893,0.59867865
1621,A,166875342052609,5.5503583,10.140641,-3.764882,-1.4317155,-1.1994878,0.4079963
1621,A,166875382163547,0.6392518,13.837289,-3.6302083,0.41758367,0.13741912,-0.52837116
1621,A,166875422304902,3.4380736,9.533113,-3.3542767,1.2399678,2.5065672,-0.05965481
1621,A,166875462089642,7.157466,7.6626425,2.835932,1.5947009,-0.47723848,0.018109497
1621,A,166875502252661,6.4631476,19.612701,-2.046444,-1.7267936,0.1917476,0.010652645
1621,A,166875542113964,5.871181,10.825383,3.821146,-0.5070659,-5.7705374,1.1014835
1621,A,166875581718704,-3.5128925,5.111022,-2.6132712,2.0335898,-6.8176928,-1.3411679
1621,A,166875621627767,-9.0016,6.3242836,-7.9691005,0.4910869,2.5523736,-1.7875137
1621,A,166875661605215,-1.0043676,6.197391,0.15682021,-3.4429348,9.857957,0.6125271
1621,A,166875701420526,15.849615,6.904279,8.827422,-2.0612867,0.71585774,1.5169365
1621,A,166875741538340,4.1958385,7.8727336,4.322731,1.1366372,-4.979046,-0.36751625
1621,A,166875781524798,-1.1821371,6.5708866,-3.83192,-0.8319715,-6.0560284,-0.037284255
1621,A,166875821109068,-3.2788591,9.698911,-6.211158,-1.2090752,-1.0407634,-0.2428803
1621,A,166875861037350,-3.6050692,11.981184,-3.2620997,0.10333065,-0.6466155,0.45806372
1621,A,166875901279954,-4.631583,9.118916,-2.7395654,0.29933932,-1.9313245,-0.12463594
1621,A,166875940812038,-5.701193,10.344747,-7.9631147,0.034088463,0.35899413,-0.19281286
1621,A,166875981047245,-0.7326257,9.999383,-0.5506664,-1.6799221,5.7897124,0.15659387
1621,A,166876020892454,4.7644615,11.016919,9.6288805,-1.216532,7.3535204,-0.6125271
1621,A,166876060539745,14.624383,15.954362,3.29502,-0.16831179,4.3643885,-0.4676511
1621,A,166876100805265,11.739968,12.463615,9.163208,2.211489,-4.081028,-0.30146983
1621,A,166876140720058,-2.0548236,10.157999,0.092775315,0.7222493,-9.424395,-0.13741912
1621,A,166876180256516,-13.3386965,6.296152,-4.672883,1.2953615,-6.1934476,-0.7680557
1621,A,166876220157142,-8.684967,5.86759,-6.854001,1.6298546,5.2059474,-0.20985709
1621,A,166876260222402,-1.1019313,4.4597993,0.82121116,1.5180018,9.834521,0.54435015
1621,A,166876299950371,4.0940847,4.06296,1.4425066,-0.39627838,1.6777915,1.1920309
1621,A,166876340182192,2.6509798,7.114969,-2.979584,-1.587244,-1.1579424,-0.4079963
1621,A,166876380103236,0.16460137,12.221801,-3.3063924,-1.32945,-0.08841695,-0.71585774
1621,A,166876420004744,3.3488896,13.211205,-2.1242554,1.2442288,3.2362735,-0.020240024
1621,A,166876459585631,10.4171715,11.789648,2.5983074,2.2604911,2.0687435,1.0205233
1621,A,166876499814484,8.3821,14.976929,3.3494883,-0.90654004,-4.4602623,0.60933125
1621,A,166876539708026,-1.4957775,9.460688,-1.01574,-0.551807,-9.5373125,0.5230448
1621,A,166876579287766,-16.22311,9.654618,-5.561132,0.5422196,-3.3055155,-2.0676782
1621,A,166876619180579,-6.269217,8.471284,-6.6145806,-0.31851408,8.482701,-0.4708469
1621,A,166876659056150,1.5245079,7.095815,11.461642,-1.2399678,11.282216,0.90014845
1621,A,166876699311464,15.844827,3.8474822,4.619612,-0.41545314,-0.624245,0.7499462
1621,A,166876739150631,3.6092591,6.131551,0.6979098,-0.9054748,-7.7977357,-0.026631612
1621,A,166876779010526,-1.4209588,8.810662,-0.6889315,-3.3065808,-6.3777385,0.23116238
1621,A,166876818696567,-4.0677485,13.754689,-3.6649241,-1.1653993,-1.6714,-0.535828
1621,A,166876858655266,-3.6774938,10.882245,-6.0268044,1.8503643,-1.3837786,0.3334278
1621,A,166876898622661,-5.9489927,6.6750345,-3.4871547,0.5422196,-2.5577,-0.007456851
1621,A,166876938569224,-7.893683,11.695675,-8.372523,-1.4146712,-0.36218992,-0.50600064
1621,A,166876978531881,-1.9602526,11.157578,1.3371617,-1.6000272,7.878696,-0.28442562
1621,A,166877018266777,4.410718,11.266515,12.513894,0.43036684,9.794042,-0.6423545
1621,A,166877058490735,16.473904,16.178219,2.4827871,-0.27483824,4.584898,-0.2790993
1621,A,166877098359381,12.487557,13.451822,9.457695,1.5488945,-4.726578,-0.2908172
1621,A,166877138408287,-1.8483237,9.211691,3.630807,0.43569317,-9.655557,0.19813919
1621,A,166877177686307,-15.819688,6.4110737,-1.965041,1.2772521,-8.152469,-0.7456851
1621,A,166877217501672,-10.221446,4.4873323,-9.09258,1.591505,3.8637142,-0.47617322
1621,A,166877257538547,-1.7764976,4.1599255,-0.6123171,1.3496901,10.062488,0.5219796
1621,A,166877297308859,4.1557355,4.985925,2.0338743,-0.50173956,3.952131,0.7765778
1621,A,166877337184588,3.7223852,7.5561004,-0.54168814,-1.530785,-0.95128113,-0.40906155
1621,A,166877377112974,0.6488287,12.126632,-4.185065,-0.9310411,-0.4612595,-0.624245
1621,A,166877417108026,3.1878796,13.054983,-0.89064306,0.9800433,3.6442697,-0.27057716
1621,A,166877459452297,11.6855,14.136564,6.719327,2.1571605,2.650378,1.1291803
1621,A,166877496992036,6.9743094,13.549386,-0.23642741,-0.5784386,-6.339389,0.6870956
1621,A,166877536915995,-2.0721815,7.356185,0.1945289,-0.47510794,-9.664079,0.6689861
1621,A,166877576832713,-19.48102,9.169792,-4.7668557,-0.35579833,-3.4716969,-1.7853832
1621,A,166877616638078,-6.3392477,8.797494,-6.130952,-0.8447547,7.808388,0.18429075
1621,A,166877656480943,0.92176765,7.723695,9.972448,-1.0173275,11.596469,0.922519
1621,A,166877696324068,15.761628,4.911705,4.184466,0.054328486,0.23435818,0.6359629
1621,A,166877736225265,1.0444705,5.943606,-5.8149176,-0.71479243,-6.791061,-0.20453078
1621,A,166877776130057,3.354875,8.318055,14.455591,-1.9664782,1.4956313,-0.39521313
1621,A,166877816033911,2.1206641,10.675745,-5.755661,-1.0183928,-6.5748124,1.0418286
1621,A,166877856233755,-2.4223335,9.483433,-4.4753613,0.84368944,-3.3182988,0.07243799
1621,A,166877896153130,-6.7145386,9.028535,-4.987122,0.09374327,-2.5800705,-1.3326459
1621,A,166877936140734,-6.935404,11.230601,-8.995614,-0.38242993,-0.011717909,-0.0031957934
1621,A,166877976013807,-1.1725603,10.00896,-0.8283938,-1.320928,6.529006,0.45167214
1621,A,166878015903182,5.28939,10.891224,10.025121,-0.08628642,7.1436634,-0.13528858
1621,A,166878056009120,13.163321,14.9889,5.816713,0.011717909,3.5760927,-0.6679208
1621,A,166878095906828,9.986216,14.404715,7.0724716,0.8863,-4.2589273,-0.96406436
1621,A,166878135709588,-0.60932434,10.819398,1.2240356,0.99708754,-7.1447287,-0.2695119
1621,A,166878175574953,-13.556568,6.1626754,-1.3251907,1.9249328,-5.6043563,-0.5400891
1621,A,166878215580838,-8.036138,3.6361938,-9.103952,2.1539648,3.137204,-0.257794
1621,A,166878256894015,-1.7441759,3.5625722,-1.7369933,0.6199839,9.498963,0.034088463
1621,A,166878295222401,3.667917,7.201759,5.6604915,-0.75101143,5.191034,0.5496765
1621,A,166878335058807,5.869984,7.4854717,-0.4429273,-1.3315805,-0.5581986,-0.10546118
1621,A,166878374981827,1.0235212,11.95365,-5.8532248,-0.664725,-1.4871092,-0.5422196
1621,A,166878414833337,2.1930888,12.455834,-0.95827925,0.60933125,2.7622306,-0.1438107
1621,A,166878455075994,7.340024,7.405266,-0.9804256,2.026133,0.6711166,0.48682585
1621,A,166878494957816,1.6418238,7.5291657,-3.4638114,2.0570257,-5.9644156,-0.60507023
1621,A,166878534901099,1.3688848,17.688362,-3.5727475,-3.674097,0.99282646,0.6178534
1621,A,166878574730109,5.451597,13.011888,3.6870706,-0.16405073,-3.0445259,0.9310411
1621,A,166878614400422,-2.5965118,5.20679,-6.0621185,3.0360036,-3.0551784,-1.6223978
1621,A,166878654430838,-1.654992,5.9082913,-4.9320555,-0.45060685,4.466654,-0.9832391
1621,A,166878694164380,3.0969,6.130952,6.2315083,-2.8506477,6.611031,0.80107886
1621,A,166878734421046,10.521918,6.7492547,5.9148755,-0.9139969,-1.2410331,0.5837649
1621,A,166878774313703,2.5773582,9.360131,0.006584055,-0.79255676,-5.586247,0.014913702
1621,A,166878813987609,-0.39384618,8.98484,-2.532467,-1.546764,-4.4176517,0.43356264
1621,A,166878853828547,-1.6747441,9.998186,-4.3275194,-0.0777643,-1.856756,0.18535602
1621,A,166878893487870,-3.2668881,9.041702,-5.4899044,0.5028048,-3.1808796,-0.09161274
1621,A,166878933385890,-7.2568254,9.25359,-4.701015,-0.34940675,-2.8996499,-0.8671253
1621,A,166878973264745,-6.273407,12.199057,-8.3821,-1.2463595,1.6990968,0.6125271
1621,A,166879013435109,0.04189853,10.402806,3.3871968,-1.0450244,7.217167,0.42184472
1621,A,166879053294587,5.7664347,10.184934,9.859323,0.24714136,6.7250147,-0.32170987
1621,A,166879093203182,12.199057,14.501679,5.616797,-0.13209279,3.5739622,-0.92784536
1621,A,166879133159900,10.135254,13.160927,7.5812397,0.8309063,-4.138552,-0.73290193
1621,A,166879173048651,-1.9033904,10.426748,2.168548,0.8745821,-8.914133,0.002130529
1621,A,166879213281879,-12.000936,5.705383,-3.53863,1.824798,-5.848302,-0.34408042
1621,A,166879252869222,-7.852383,5.3079453,-6.51582,1.8141453,6.005961,-0.06178534
1621,A,166879293084849,-1.0486604,4.4597993,-0.2693477,1.0173275,10.137056,0.37816888
1621,A,166879332446254,6.8809357,7.1347213,4.2981906,-0.32810146,2.7483823,1.0045444
1621,A,166879372606358,4.031237,8.783728,-0.04249708,-1.5446335,-2.0857878,-0.49002165
1621,A,166879412356619,0.60214174,12.3516865,-5.113416,-1.0279802,-2.1827269,0.07669904
1621,A,166879452607557,4.1264067,10.200497,-2.5079262,-0.07243799,0.32384038,-0.03195793
1621,A,166879492304744,3.406949,7.443573,-1.3377602,-0.22264028,-4.055462,0.03195793
1621,A,166879532448129,2.0374656,15.888521,-3.3740287,1.2431636,-0.60933125,-0.93423694
1621,A,166879572094849,4.6902413,12.467207,1.9740193,-0.9086706,2.457565,0.9235843
1621,A,166879612310263,1.8513165,8.764574,0.5255273,1.0237192,-2.485262,-0.5390238
1621,A,166879652123026,-2.345719,7.3268557,-3.9109285,0.2514024,-1.9025623,-1.0407634
1621,A,166879691836931,1.4999673,7.5327573,-3.0681696,-0.958738,2.9593046,0.81918836
1621,A,166879731988024,8.51857,4.699219,2.830545,-1.1408982,2.1326594,0.7105314
1621,A,166879771784015,4.6112323,5.9364233,0.99179804,-0.24394555,-1.7853832,-0.03834952
1621,A,166879811488128,2.1559787,8.213907,0.02932897,-1.212271,-1.6500946,0.50173956
1621,A,166879851342140,1.1312603,11.205462,-1.1246762,-0.76912093,-1.1366372,-0.13422333
1621,A,166879891642088,1.0516531,9.825804,-3.7373488,0.9193232,-1.7150757,0.82344943
1621,A,166879931200316,-1.1971009,7.835025,-5.453393,-0.28442562,-4.995025,0.13209279
1621,A,166879971091566,-4.601057,8.267777,-3.4793737,-0.19068234,-4.051201,-1.6362462
1621,A,166880011072139,-7.156269,12.516288,-6.7402763,-1.71188,0.53476274,-0.27483824
1621,A,166880050728181,-0.09995792,11.883021,4.705205,-0.12996227,8.1854925,0.13954964
1621,A,166880090554639,15.407885,7.351396,3.7241807,0.6295713,5.7385798,-0.4250405
1621,A,166880130484431,12.699445,14.875175,4.4999022,-0.6327671,4.1353564,-0.39627838
1621,A,166880170558702,9.2787285,12.46182,6.892308,0.01917476,-2.3020365,1.4093449
1621,A,166880210249796,-2.3068132,8.899846,-1.2431892,0.20133498,-8.671252,-0.5858955
1621,A,166880250213702,-9.062054,5.4144874,-1.4580688,2.492719,-5.562811,-0.406931
1621,A,166880290075577,-5.167286,4.042011,-2.6001031,2.630138,3.7997983,-0.8181231
1621,A,166880330155733,-0.40402153,1.8447324,-3.2944214,-1.1195929,6.8113008,0.28122982
1621,A,166880369850421,2.4714148,5.6682725,-0.19991584,-2.5885925,1.8684739,0.20772657
1621,A,166880409844848,4.947618,11.645996,-3.9121256,-1.490305,-1.1185277,0.30253512
1621,A,166880449692712,1.6903064,13.205818,-1.0259154,0.96406436,1.8322549,-0.531567
1621,A,166880489864483,6.879739,8.645462,-3.6002808,0.6199839,3.2916672,-0.24927188
1621,A,166880529538077,7.3765354,12.559982,5.085883,1.3347764,-1.7928401,0.11611383
1621,A,166880569460160,-3.1501708,15.961544,2.7712884,-0.7286409,-0.36751625,1.6053536
1621,A,166880609637036,1.2689269,8.275558,-2.0111294,1.2879047,-1.3795174,1.5584819
1621,A,166880649876775,1.6903064,5.125387,-2.179322,1.3326459,-0.34301516,-1.3709954
1621,A,166880689346098,2.8604724,6.8809357,-4.0539823,-1.4892397,2.751578,-1.0727214
1621,A,166880729210265,6.193201,7.369353,4.785411,-1.1558119,2.062352,0.45593318
1621,A,166880769064484,4.869208,6.729502,1.9919758,-0.37390783,-2.5033715,-0.4048005
1621,A,166880808892348,1.3718776,7.49026,-1.2210429,-1.3156016,-3.113768,0.23329292
1621,A,166880848794848,0.7290344,8.775947,-2.7808652,-1.627724,-1.3038837,0.17044231
1621,A,166880888928286,1.0690111,10.679337,-2.858677,-0.294013,-0.809601,0.6466155
1621,A,166880929014640,-0.41838676,8.814852,-3.83192,-0.10439592,-3.0274816,0.2908172
1621,A,166880968783545,-7.265205,10.511144,-3.5613751,-0.5390238,-4.443218,-0.3888215
1621,A,166881008872660,-3.810372,11.555016,-6.3967085,-0.36218992,-1.1153319,-0.551807
1621,A,166881048709587,-1.4359225,11.849503,-2.344522,-0.850081,5.519135,-0.45699844
1621,A,166881088818651,2.9311013,11.122863,12.228385,-0.24927188,12.876917,-0.7339672
1621,A,166881128736878,19.612701,19.127277,10.876859,1.135572,4.7958207,0.34088463
1621,A,166881168769170,4.2784386,8.404246,0.6997054,1.71188,-6.223275,-0.0958738
1621,A,166881208381098,-4.4502225,7.0712748,3.1944637,-1.4008228,-3.347061,-0.11824436
1621,A,166881248522816,-0.31902736,9.861118,-2.1266496,0.8447547,-4.748949,0.48469532
1621,A,166881287908024,-1.0600328,4.4753613,-1.8004397,2.8016455,0.26738137,0.5965481
1621,A,166881327897764,0.40940848,4.847061,-4.663905,1.6490294,0.49428272,-0.28549087
1621,A,166881367766253,-1.1121067,4.969764,-5.993884,-0.6125271,2.3531692,-0.23542345
1621,A,166881407610368,1.6591818,9.516354,-3.8067808,-1.1068097,1.4977618,-0.33129725
1621,A,166881447884326,3.0490158,12.306795,-2.8461072,0.3717773,1.2825783,-0.16831179
1621,A,166881487631097,5.398925,8.710106,-6.1501055,1.4764565,1.1068097,0.23542345
1621,A,166881527695003,4.1946416,6.7372837,1.8064252,1.2879047,-0.9821738,0.22903186
1621,A,166881567506410,5.479729,19.612701,-3.1603463,-1.4881744,0.43675843,0.19707392
1621,A,166881607180316,4.0545807,10.80623,3.4045548,-0.77125144,-4.367584,1.2687299
1621,A,166881647081097,-4.0426097,6.0860605,-5.3145294,2.525742,-4.5295043,-1.0844392
1621,A,166881686965733,-5.237316,5.943606,-7.562086,0.3834952,3.914847,-1.5478293
1621,A,166881727203181,2.3427265,7.669825,2.7383683,-2.6770096,7.9213066,0.12996227
1621,A,166881766937398,11.198878,6.7402763,7.089231,-1.3912354,0.26205507,0.2790993
1621,A,166881806991202,2.2158337,8.379706,-0.5410896,-0.094808534,-5.3476276,-0.13741912
1621,A,166881846631618,-0.6943185,8.039729,-4.073136,-1.3156016,-2.9337382,0.029827405
1621,A,166881886530524,1.9692309,10.875063,-1.1486182,-0.83516735,-0.7233146,0.55606806
1621,A,166881926706150,-0.59735334,8.458116,-5.1487308,0.20133498,-3.5665054,0.5656554
1621,A,166881966325784,-3.1741128,6.7342906,-4.3999443,-0.023435818,-3.7710361,-0.36432046
1621,A,166882006517243,-10.204087,11.358691,-5.5587378,-1.010936,-0.65726817,-1.2229236
1621,A,166882046429795,-0.30107087,11.719617,0.5129577,-1.433846,6.06242,-0.48469532
1621,A,166882086030836,13.151949,11.302427,6.9246297,-0.9757822,5.3955646,-0.4250405
1621,A,166882125955733,10.445902,16.234484,4.751293,-0.24074976,3.7763624,-0.77444726
1621,A,166882166158650,10.169372,14.343064,7.001843,0.89588743,-3.2032502,-0.28442562
1621,A,166882206046356,-1.0779893,10.3639,2.4768016,1.4966966,-7.274691,1.0663297
1621,A,166882245952868,-16.060904,4.7979803,-2.0919337,2.223207,-6.1700115,0.17576863
1621,A,166882285857971,-7.7009497,1.8830396,-6.5020533,1.562743,2.7100327,-0.022370555
1621,A,166882325453857,0.06464344,4.0156746,-3.8947675,-0.06178534,6.731406,0.23755397
1621,A,166882365376722,4.0342298,8.297705,-0.108936176,-2.2125542,2.1784658,0.7137272
1621,A,166882405283648,2.9388826,9.94312,-3.0801406,-1.0844392,-0.67005134,0.13315806
1621,A,166882445245054,0.36511576,10.9343195,-3.1519666,0.6125271,1.0610034,-0.32597092
1621,A,166882485176253,3.7128084,10.359112,-1.1797429,1.438107,2.4959147,-0.33768883
1621,A,166882525135472,7.6009917,8.15106,-1.8938135,0.9171927,0.28655612,0.2130529
1621,A,166882564746721,5.6880245,15.900492,-4.3101616,0.644485,-1.7832527,-0.13102753
1621,A,166882605091252,6.4002995,10.041282,0.9624691,-1.865278,-2.541721,0.88203895
1621,A,166882644906565,-1.3700819,8.720282,-0.58897364,1.055677,-5.172924,-0.20453078
1621,A,166882684942244,-8.1558485,8.47727,-5.4366336,0.0958738,1.1515509,-1.5318503
1621,A,166882724420471,0.9756372,7.5920134,0.6733692,-1.2804478,6.7143617,0.23648871
1621,A,166882764442555,10.813412,5.7269306,3.0502129,-0.37923414,2.2413163,0.9310411
1621,A,166882804260107,5.5006785,6.0369797,1.9800048,-0.01917476,-3.2671661,-0.13954964
1621,A,166882844218389,1.6567876,8.578424,-1.1079168,-2.3915186,-3.5398738,0.2759035
1621,A,166882883868180,0.23882163,10.086173,-2.144606,-1.7875137,-2.4351945,0.314253
1621,A,166882923804118,0.46267948,9.90601,-4.6764746,0.7957525,-1.4306501,0.5294364
1621,A,166882964805837,-0.62967503,8.368334,-5.1660886,-0.16192019,-3.1521175,0.13102753
1621,A,166883004066721,-3.627814,9.5971575,-4.83509,-0.7126619,-3.375823,-1.2602079
1621,A,166883043746930,-5.602432,13.20941,-7.1568675,-0.95234644,0.5305017,-0.15126756
1621,A,166883083620264,1.7381904,9.802461,6.3105173,-0.6125271,5.9516325,-0.10546118
1621,A,166883123819117,14.225149,9.45171,3.5021186,-0.17044231,5.2411013,-0.21731395
1621,A,166883163637920,13.250111,14.590864,11.020511,-0.2066613,1.5499598,-0.2130529
1621,A,166883203651461,3.957017,12.324153,2.806603,1.0215886,-5.486112,-0.14487597
1621,A,166883243183596,-3.1561563,9.089587,-1.5705963,1.0173275,-7.861652,0.37710363
1621,A,166883283083805,-8.740033,4.795586,-7.5525093,2.0282636,-2.3233418,-0.7222493
1621,A,166883323386201,-3.965995,4.167108,-2.4558525,2.1518342,6.34365,-0.05006743
1621,A,166883363220002,1.6825253,4.2461166,0.4985925,0.46871635,5.844041,0.2908172
1621,A,166883403179899,8.764574,5.2852,-2.4109612,-1.9558256,-0.49641323,0.6423545
1621,A,166883445263128,0.9403227,11.841123,-2.8682537,-1.3795174,-0.3355583,-0.6498113
1621,A,166883482760316,0.5847838,14.932037,-1.0127473,1.2026836,1.9004318,-0.52837116
1621,A,166883522725524,7.165247,6.730101,-6.0728927,2.2487733,2.0399814,0.314253
1621,A,166883562712555,2.7503393,6.8545995,-2.3307555,1.700162,-3.10205,-0.16298546
1621,A,166883602758597,2.5390508,17.11495,-1.050456,-3.1009848,0.35579833,0.3930826
1621,A,166883642345940,1.5358804,13.043611,0.9516952,0.12250541,-3.5537221,0.4612595
1621,A,166883682485158,-3.544017,8.045116,-6.1195793,1.8407769,-0.9438243,-1.4253238
1621,A,166883722361566,-1.3640964,6.870162,-2.9472623,0.06711166,5.643771,-0.96299905
1621,A,166883762291670,4.0641575,7.2364745,3.6661212,-0.9331717,4.576376,0.4250405
1621,A,166883802174951,7.492056,5.2648497,4.722563,-0.7755125,-0.046871636,-0.0031957934
1621,A,166883841742763,2.878429,7.533954,-0.5315128,-1.808819,-3.726295,0.21837921
1621,A,166883881724690,0.6841431,9.6767645,-1.4969746,-2.2019017,-3.2213597,0.38775626
1621,A,166883925200679,-0.017357962,10.8152075,-2.9867666,0.03089267,-0.9960223,0.25566345
1621,A,166883961844639,-0.3824737,9.251195,-6.239888,0.54435015,-2.4074976,0.44741106
1621,A,166884001675314,-2.392406,7.6614456,-3.857059,-0.3898868,-3.7667751,-0.572047
1621,A,166884041313232,-9.749788,12.456433,-5.159505,-1.0162623,-2.0240026,-0.9353022
1621,A,166884081466721,-1.1073183,10.031107,-0.40641573,-0.73290193,6.0315275,0.3121225
1621,A,166884121370159,5.237316,11.523293,7.5866265,-0.5475459,6.3862605,-0.567786
1621,A,166884161045837,11.76391,16.263813,4.583101,-1.0120013,5.1739893,-0.77444726
1621,A,166884200929689,10.42196,13.620015,7.3232646,1.180313,-3.1233554,-0.10652645
1621,A,166884241207034,-0.08020575,11.145607,2.6910827,0.59122175,-5.800365,0.3898868
1621,A,166884280984117,-5.083489,6.1387334,-2.5725696,1.6042882,-6.7580376,-0.13102753
1621,A,166884320990472,-7.223905,4.781221,-7.926005,1.9877834,1.2974921,-0.47617322
1621,A,166884360885785,-0.8912416,3.8085763,-2.557606,1.1302456,7.262973,0.33129725
1621,A,166884400862190,3.1783028,5.6006365,1.423353,-1.2282499,2.7739487,0.46552056
1621,A,166884440676149,5.542577,7.8715367,-5.81372,-1.6682042,-1.5052186,0.7105314
1621,A,166884480510211,1.2401965,12.890382,-2.6384103,0.28336033,1.212271,-0.45912898
1621,A,166884520512815,4.469376,10.551247,-2.2415714,1.5073493,1.5318503,-0.28655612
1621,A,166884560312971,7.059902,9.068039,-0.25617957,1.4530207,-1.1547467,0.068176925
1621,A,166884600309274,7.5136037,19.612701,1.4197617,-1.320928,-0.45912898,0.30999196
1621,A,166884639862033,1.3042414,8.219295,-1.400608,0.11930962,-5.5692024,0.5251754
1621,A,166884679722501,-4.957793,8.755595,-5.0116625,-0.16831179,-3.6623793,-1.442368
1621,A,166884720002139,-3.7421372,9.297882,-6.0160303,-0.15659387,5.047223,-0.60080916
1621,A,166884759514637,2.285864,7.3088994,6.827066,-0.74781567,7.3620424,0.83516735
1621,A,166884800158752,10.99597,4.1138372,3.1842883,-0.531567,0.5273059,0.51771855
1621,A,166884839483960,3.1555579,6.2752028,-0.60094464,-0.8032094,-4.3846283,-0.42397526
1621,A,166884879070002,0.38067806,9.604341,-0.62967503,-2.3627565,-2.4671526,0.4165184
1621,A,166884918957450,1.0720038,10.837354,-1.7286136,-0.39095205,-0.91612744,0.33662358
1621,A,166884959091929,-0.40282443,8.957307,-5.0876784,1.0759171,-3.0498521,0.4016047
1621,A,166884999369012,-2.8658595,6.5631056,-2.8628666,-0.3206446,-4.546549,-0.94488955
1621,A,166885038848024,-9.479841,11.430517,-9.348161,-0.5901565,-2.8538435,-1.0567423
1621,A,166885078792711,-0.90500826,10.228029,2.831742,-1.1856394,8.602011,-0.12250541
1621,A,166885118582086,7.289147,15.370176,11.303625,-0.50813115,8.938634,-0.9917612
1621,A,166885158410003,16.254833,18.559254,13.9564,-0.78723043,4.8948903,-0.17789917
1621,A,166885198463128,7.123947,11.637017,3.0107086,1.3901701,-6.510896,-0.24927188
1621,A,166885238179482,-3.5871127,8.804078,1.4790181,1.0450244,-10.802847,0.44741106
1621,A,166885278690210,-11.422736,5.2504845,-3.7906199,2.1124194,-5.8941083,-0.3174488
1621,A,166885318432033,-8.455123,2.8496985,-3.7822402,1.4839134,5.7502975,-0.23009712
1621,A,166885358098543,-0.5650316,3.4859576,-2.0177135,0.3920173,8.864065,0.14061491
1621,A,166885397967033,4.5364137,7.219715,3.0095115,-1.4359765,1.216532,0.5230448
1621,A,166885438031877,1.9285295,11.113884,-2.4941597,-1.707619,-0.31957933,-0.21198763
1621,A,166885478016200,0.74399817,13.151949,-2.123657,0.92464954,0.99921805,-0.59228706
1621,A,166885517802346,5.4899044,8.802881,-3.6242228,1.5318503,2.3531692,0.29294774
1621,A,166885557481929,7.8847046,11.751341,2.823961,1.7022926,-0.77870834,0.07350325
1621,A,166885597339898,5.3366756,12.524668,3.7642837,-2.5044367,-3.7273602,0.87990844
1621,A,166885637234637,-1.4000094,10.166978,-1.3814543,0.3920173,-5.687447,0.15020229
1621,A,166885677400523,-10.699089,9.549872,-6.6684504,0.35153726,1.1952267,-1.7342505
1621,A,166885717291200,-0.0035913025,6.9000893,-0.7954735,-0.40373522,6.778278,0.011717909
1621,A,166885757384533,11.218631,6.007651,3.9755719,-0.1470065,2.964631,1.3326459
1621,A,166885797126407,6.367978,4.915296,4.164714,-0.88203895,-2.1603563,-0.11504856
1621,A,166885837291615,1.353921,8.195353,-1.3383588,-2.1326594,-4.4251084,0.17470337
1621,A,166885877239220,-0.13227965,10.18254,-3.3824084,-1.695901,-2.4607608,0.058589544
1621,A,166885917230106,-0.91697925,10.827777,-2.6940753,0.70840085,-0.5965481,0.0958738
1621,A,166885956646980,-1.9201498,7.4746976,-5.4803276,0.44741106,-3.0146985,0.35792887
1621,A,166885996694533,-5.7484784,9.272743,-3.9755719,-0.89375687,-2.7004454,-1.4093449
1621,A,166886036453596,-3.8857894,11.731588,-6.254852,-0.8767126,3.5462654,0.05965481
1621,A,166886076368387,3.3399115,10.74817,8.175002,-0.47297743,6.961503,-0.18642128
1621,A,166886116646460,13.06875,13.237541,3.305794,-0.7190535,5.5202003,-0.46019423
1621,A,166886156171407,14.265252,14.277224,14.384364,0.49854377,-1.0780476,0.03089267
1621,A,166886196457971,2.4103625,12.698247,4.449025,1.0354371,-8.000136,-0.068176925
1621,A,166886237478491,-5.3995233,8.173206,-0.3585317,0.5763081,-9.378589,-0.42184472
1621,A,166886276232865,-10.548853,6.7959414,-11.425131,1.6884441,-2.1486385,-0.9193232
1621,A,166886316090575,-4.034828,4.7201686,-1.2144588,1.9750003,7.694405,0.6135923
1621,A,166886356069376,1.7872716,3.031658,-0.521936,0.36964676,5.063202,0.47617322
1621,A,166886395882449,6.55293,6.5230026,-5.379173,-1.2420983,0.515588,0.26738137
1621,A,166886435489533,1.3581109,10.931925,-2.5079262,-1.6096146,-0.9129316,-0.25885928
1621,A,166886475474376,1.0720038,11.017518,-1.6837224,1.6447684,1.0844392,-0.51984906
1621,A,166886515305470,5.85502,7.0874357,-5.819706,1.8418423,2.763296,0.21624869
1621,A,166886555292554,7.280169,11.149199,1.3634979,0.9150622,-1.8620822,-0.25992453
1621,A,166886595125730,3.0083144,15.476718,3.144784,-3.0264163,-4.515656,0.9139969
1621,A,166886635066668,-2.9191303,10.514735,-0.6560113,0.59122175,-5.4637413,-0.5432849
1621,A,166886675280940,-9.385869,8.663419,-5.5701103,1.0503508,2.8581045,-0.83516735
1621,A,166886715237813,-0.7745243,5.395932,-0.9708488,-0.2130529,9.242234,0.29933932
1621,A,166886755068803,13.484742,4.7698483,1.7417817,-1.0940266,3.733752,0.76912093
1621,A,166886794680262,7.307702,7.0186024,3.6302083,-1.4849787,-2.884736,-0.05539375
1621,A,166886834603075,-0.06284779,9.950901,-0.41359833,-2.2455776,-6.6536417,0.21837921
1621,A,166886874719950,-2.8311436,10.481216,-6.8827314,-0.9779128,-2.7121632,-0.96619487
1621,A,166886914422137,-3.2746694,10.745177,-3.4680011,1.0002834,0.8479505,-0.12357068
1621,A,166886954560001,0.8972271,7.8308353,-4.087501,0.3174488,-0.08948222,0.3536678
1621,A,166886994587294,-4.0019083,9.323022,-2.8832173,-0.5550028,-3.251187,-0.50813115
1621,A,166887034113022,-5.267244,12.31278,-6.9605427,-1.0535465,0.68816084,-0.26525086
1621,A,166887074307658,0.56802434,10.843938,4.378995,-0.52837116,7.4536552,-0.9619338
1621,A,166887114230782,5.9292407,15.442601,7.599196,-0.30466563,7.3535204,-0.034088463
1621,A,166887154177137,14.22934,12.492346,13.426683,0.71585774,0.90973586,0.89162636
1621,A,166887193780523,4.011485,11.550227,3.0621839,0.90654004,-7.4941354,-0.09161274
1621,A,166887233601250,-3.7223852,8.298303,-1.2856863,0.43888897,-8.163121,-0.51452273
1621,A,166887273489065,-11.908759,5.5880666,-8.525154,0.35899413,-0.16618125,-0.34940675
1621,A,166887313794532,-2.112883,6.362591,-4.2197804,1.7747306,7.4014573,0.30679616
1621,A,166887353349688,2.4546554,6.0956373,3.4213142,0.95234644,4.419782,0.51665324
1621,A,166887393658647,5.100847,5.2887917,-5.571906,-0.9438243,-0.5816344,0.4016047
1621,A,166887433139271,-0.16579847,10.055647,-4.407127,-1.2868395,0.20879184,-0.8202536
1621,A,166887473209481,1.453879,11.048642,0.26276365,0.68176925,1.6010925,-0.19600865
1621,A,166887513224688,5.418677,7.9026613,-5.09546,1.768339,2.3031018,0.48469532
1621,A,166887552912865,6.95336,11.89619,-0.6775591,1.71188,-1.5435683,-0.20240025
1621,A,166887592716772,4.7620673,14.262858,4.1293993,-3.069027,-2.9220204,0.5752428
1621,A,166887632925940,-2.830545,10.921151,-1.0049661,0.8330368,-6.215818,-0.36432046
1621,A,166887672911511,-8.866327,7.832032,-6.0531406,1.0492855,1.917476,-0.9896307
1621,A,166887712489637,-0.8283938,6.344036,-1.0480618,-0.22903186,9.432917,-0.10652645
1621,A,166887752548074,16.039955,3.3734303,2.178125,-1.3518206,2.352104,0.68389976
1621,A,166887792619741,5.3899465,7.2286935,4.06715,-0.94808537,-3.7071204,-0.29827404
1621,A,166887832140523,0.23223756,8.710705,-1.3760674,-2.0421119,-5.5255265,0.49215218
1621,A,166887872404897,-0.878672,10.359112,-4.0641575,-1.3795174,-1.8919097,-0.4111921
1621,A,166887912238491,-2.0141222,10.907384,-2.4588451,0.8032094,0.5571333,-0.3291667
1621,A,166887952237189,0.18794483,8.588001,-4.6351743,-0.018109497,-2.3371902,0.45167214
1621,A,166887992044324,-3.7792473,9.149442,-3.4237084,-0.47617322,-3.6815538,-0.44101948
1621,A,166888032079324,-6.7223196,11.501146,-7.916428,-0.45486793,-0.12783173,-0.45806372
1621,A,166888073167657,0.33159694,10.463859,3.5110967,-1.0343717,6.6930566,-0.20559604
1621,A,166888111789898,6.559514,12.501923,6.7486563,-1.0120013,5.354019,-0.099069595
1621,A,166888151767345,11.832744,13.334506,7.355586,0.05006743,2.7004454,0.09161274
1621,A,166888191566668,7.8769236,12.252327,4.3754034,1.3731259,-4.69249,-0.14913702
1621,A,166888231665209,-1.5682021,9.840768,0.16340427,0.6306366,-8.08003,0.16724652
1621,A,166888271053803,-12.902951,7.838018,-5.579687,1.1664646,-3.8924763,-0.96939063
1621,A,166888311366720,-4.0198646,6.479907,-4.06296,1.2868395,4.7457533,0.4314321
1621,A,166888351178282,1.216853,5.795764,1.6118963,1.4413028,5.432849,0.49747851
1621,A,166888390853334,5.0182467,4.767454,-4.518457,-0.479369,-0.2609898,0.9491506
1621,A,166888431045209,0.3669114,7.988254,-3.6182373,-1.6831179,-0.6828345,-0.48682585
1621,A,166888470584689,-0.6596026,12.668919,-2.4247277,-0.28229508,0.95660746,-0.59867865
1621,A,166888510623646,2.7311857,10.881048,-1.6346412,1.71188,2.5790052,-0.046871636
1621,A,166888550424167,11.113884,11.574768,-3.5595794,1.4072144,1.8631475,0.84688526
1621,A,166888590707814,6.093842,13.511678,-0.54049104,-0.9395633,-5.0536146,0.014913702
1621,A,166888630549793,-1.8130093,9.92636,-1.1965023,-0.5816344,-5.8152785,-0.25566345
1621,A,166888670600417,-9.251195,10.392631,-3.2363622,0.41864893,0.4527374,-0.9012137
1621,A,166888710037657,-0.98341835,7.7626004,-1.2898762,0.50173956,7.536746,0.26205507
1621,A,166888749939429,8.627506,7.4854717,4.132991,-0.18748654,4.0011334,1.0599382
1621,A,166888790241875,6.7564373,6.2129536,4.4580035,-0.8202536,-1.6671388,-0.40906155
1621,A,166888830102188,1.2024878,8.500014,-0.98820674,-1.7012273,-4.4485445,-0.0031957934
1621,A,166888870011146,-0.31783026,9.519346,-1.1528081,-1.675661,-2.3425164,0.0053263223
1621,A,166888909604480,-1.2336124,10.029311,-1.5280992,-0.0958738,0.14487597,-0.11824436
1621,A,166888949541094,1.5586253,9.033323,-3.916914,0.0031957934,-0.5603291,0.4825648
1621,A,166888989461875,-0.46866497,9.906608,-4.394557,-0.29294774,-2.5118935,0.18322548
1621,A,166889029092135,-3.527856,8.765771,-3.8983588,-0.08948222,-2.5374599,-0.7584683
1621,A,166889068986250,-6.7725983,11.741764,-7.479486,-0.5028048,-0.5997439,-0.608266
1621,A,166889109136458,-0.053869538,10.147225,1.6543933,-0.77444726,5.9005,0.21092236
1621,A,166889148777761,5.6910176,11.052833,7.5363483,-0.49641323,4.305799,-0.014913702
1621,A,166889188852604,10.439917,13.846866,4.6740804,-0.96939063,3.351322,-0.39521313
1621,A,166889228836564,9.768343,13.976751,8.282143,1.3060142,-2.2817965,-0.04261058
1621,A,166889268647241,-0.5770026,10.271125,1.7848774,1.3049489,-8.100271,0.34514567
1621,A,166889308934063,-16.709133,7.3448124,-5.29777,1.4136059,-5.590508,-1.1526161
1621,A,166889348781147,-4.851251,5.3199162,-4.394557,1.0333065,4.3366914,0.29507825
1621,A,166889388605990,0.8607155,6.0716953,1.4077905,1.3411679,6.1732078,0.59228706
1621,A,166889428611250,4.134786,5.795165,-2.1398177,-0.41545314,-0.10865697,0.99921805
1621,A,166889468661719,0.6338649,7.643489,-3.2740707,-1.5393071,-0.3355583,-0.26418558
1621,A,166889508460833,-0.10594343,12.802994,-2.823961,-0.33981937,1.0258497,-0.40373522
1621,A,166889548388543,2.697667,9.97604,-1.8644845,1.7512947,1.9590213,-0.10546118
1621,A,166889588033593,8.874108,5.8023477,-5.4659624,0.91186637,0.65726817,0.5305017
1621,A,166889627856093,5.266645,16.21114,-0.37948096,-0.39095205,-2.7611654,-0.30146983
1621,A,166889667808490,2.630629,10.854712,0.08200141,-1.2772521,-4.322843,0.44847634
1621,A,166889707630833,-2.6222494,9.944317,-2.123657,0.7914915,-3.6240296,-0.6945524
1621,A,166889747548334,-5.239112,6.9731126,-5.9244523,0.3568636,2.271144,-0.69774824
1621,A,166889787787708,0.55126494,7.903858,1.678934,-0.27803403,7.576161,0.23755397
1621,A,166889827708178,12.97358,5.9442043,0.62368953,-0.99282646,1.506284,0.72970617
