Subject-Id,Activity Label,Time stamp,Accel_x,Accel_y,Accel_z,Gyro_x,Gyro_y,Gyro_z
1608,A,111545361029038,-0.9742279,5.953766,0.94929504,-1.9273376,1.0402832,1.019577
1608,A,111545381170640,0.15733337,4.689102,0.18240356,-1.7163391,-0.50245667,0.7943573
1608,A,111545401312241,1.1733398,5.5074615,0.0021209717,-1.3680115,2.0305786,1.4015045
1608,A,111545421453843,1.8968964,7.376465,-0.096191406,-0.75323486,2.9957733,0.3732605
1608,A,111545441595444,1.3527527,8.336426,0.9597931,0.22329712,1.7531128,0.42704773
1608,A,111545461737046,0.5713959,7.9409027,0.4937439,0.45373535,0.6885071,0.18513489
1608,A,111545481878647,-0.73339844,8.402939,0.6667633,0.36865234,0.76667786,-0.1252594
1608,A,111545502020249,-0.97584534,8.856888,0.988678,-0.29675293,0.49949646,9.613037E-4
1608,A,111545522161851,0.028244019,8.818985,0.9690552,-0.17947388,0.75286865,0.4350586
1608,A,111545542303452,2.304947,8.412338,0.49609375,-0.704834,-0.13082886,-0.51013184
1608,A,111545562445054,3.374466,7.506012,1.1876678,0.16073608,-0.71507263,-0.3666687
1608,A,111545582586655,2.4441376,7.89653,1.6528168,1.3879089,-0.5369873,-0.8257904
1608,A,111545602728257,1.3501587,9.486145,1.6815948,1.4206543,-0.4691162,-0.5352936
1608,A,111545622869858,1.246048,9.831955,1.0520782,1.1616516,-1.8376923,-0.025146484
1608,A,111545643011460,1.2631531,12.118179,-1.5352325,0.7731018,-1.9310913,0.059402466
1608,A,111545663153062,-1.751831,14.177307,-2.7898407,1.1224365,-0.7436981,-0.45089722
1608,A,111545683294663,-2.9709778,12.420288,-5.9272614,0.87545776,-0.40542603,-0.68573
1608,A,111545703436265,-4.39386,15.681381,-5.0054626,0.61909485,-0.24983215,-0.6982727
1608,A,111545723577866,-4.598999,19.404434,-0.7627411,0.43099976,-0.054763794,-0.33010864
1608,A,111545743719468,-5.516144,18.687317,1.0686188,0.22299194,1.0974884,0.7787781
1608,A,111545763861069,-2.922943,16.969406,0.73709106,-0.91342163,1.5926056,1.4285736
1608,A,111545784002671,0.26062012,13.106705,1.7541809,-2.1124115,-0.24458313,0.84184265
1608,A,111545804144272,2.5373535,10.328995,2.6476898,-1.8646698,-0.21542358,0.3017273
1608,A,111545824285874,5.1704254,10.392593,0.38360596,-1.6796722,1.8719635,0.9397888
1608,A,111545844427476,4.319275,9.2408905,-0.77568054,-0.16825867,2.2085266,0.41279602
1608,A,111545864569077,1.0476074,6.8250427,1.1964569,0.28981018,1.288208,0.25828552
1608,A,111545884710679,-0.78904724,5.8375854,3.246933,0.64253235,0.42436218,0.25239563
1608,A,111545904852280,-2.0746307,5.545059,-0.0028381348,-0.0011749268,0.45117188,-0.11376953
1608,A,111545924993882,-2.2560577,3.9856873,-2.7269135,0.0049438477,0.31033325,-0.039230347
1608,A,111545945135483,-1.9889374,2.1272583,-1.1753082,-5.187988E-4,0.8345947,0.025482178
1608,A,111545965277085,-1.7922211,1.8510895,0.47114563,-0.3483734,0.12277222,-1.3907166
1608,A,111545985418687,-1.5535126,2.2560577,1.053421,0.26391602,-1.791687,-0.74406433
1608,A,111546005560288,-1.4837952,2.8246765,0.9577637,1.6923523,-0.57136536,-0.122024536
1608,A,111546025701890,-1.1079865,4.3845367,2.9544525,1.5574188,-0.09820557,-0.5632477
1608,A,111546045843491,-0.0061798096,7.7779694,2.8211975,0.7944031,-2.2663574,0.41000366
1608,A,111546065985093,1.6189728,15.88826,2.2816315,1.0018768,-1.9334717,-0.18588257
1608,A,111546086126694,0.84425354,16.286575,4.586258,1.1716919,-0.7705841,-0.6932068
1608,A,111546106268296,0.19929504,9.280609,7.0398407,0.3527832,-0.82647705,-0.5953369
1608,A,111546126409897,2.2039948,4.894226,5.7664185,0.21534729,0.2841034,0.0546875
1608,A,111546146551499,-0.45773315,8.971359,-2.2774353,-0.35768127,1.2224426,1.5874023
1608,A,111546166693101,-0.28051758,17.292526,0.42591858,-2.1868439,0.39889526,1.2877655
1608,A,111546186834702,-2.0321808,19.613052,2.617447,-2.1800385,-1.1737823,0.37347412
1608,A,111546206976304,-10.215851,8.714737,2.3006287,-1.84758,1.2891846,1.1858978
1608,A,111546227117905,-6.263748,6.0690765,-1.5811768,-0.7357025,2.5149384,0.38015747
1608,A,111546247259507,2.0358582,7.6989594,-1.6838989,0.18695068,1.8080139,-0.10902405
1608,A,111546267401108,6.7381134,10.2942505,-1.8427582,0.023834229,0.92277527,-0.021133423
1608,A,111546287542710,2.4226227,11.518936,-0.7564392,-0.5338745,0.6233673,0.31285095
1608,A,111546307684312,-7.6282196,8.934036,-0.5584564,0.17222595,0.44067383,0.01651001
1608,A,111546327825913,-4.6858826,9.01738,2.6100006,-0.26487732,0.60502625,0.181427
1608,A,111546347967515,-4.4302063,8.595367,-0.44926453,0.32328796,-0.7207489,-0.7146454
1608,A,111546368109116,-4.289566,10.167007,-2.4608765,0.43566895,-0.90437317,-1.0226135
1608,A,111546388250718,-1.5589142,10.230484,0.55319214,1.9948273,-0.2441864,-1.0222778
1608,A,111546408392319,0.6753235,8.184357,0.73202515,1.3382416,-0.7420044,0.004486084
1608,A,111546428533921,1.8195953,6.514282,-1.1437836,0.831604,-2.1561584,0.4615631
1608,A,111546448675522,1.3834534,5.827179,1.0333557,0.90960693,-1.354599,-0.21633911
1608,A,111546468817124,1.965683,6.7778473,0.7825165,1.204956,-0.43103027,-0.522171
1608,A,111546488958726,3.1962738,8.513336,2.2811127,0.83187866,-0.038848877,-0.8277283
1608,A,111546509100327,2.081833,6.7299805,0.4260254,0.33729553,-0.042892456,-0.5150757
1608,A,111546529241929,0.9003906,6.793289,1.4861755,0.5072632,0.26997375,-0.06666565
1608,A,111546549383530,0.37986755,7.991623,1.5308685,-0.4320984,0.87657166,0.92977905
1608,A,111546569525132,0.74542236,9.002808,-0.44622803,-1.5186157,1.9902954,1.9495544
1608,A,111546589666733,0.37023926,8.757141,0.13768005,-2.1093903,-0.39997864,0.27015686
1608,A,111546609808335,0.8731079,9.392014,0.68263245,-1.9266815,0.6951599,0.83535767
1608,A,111546629949937,1.7510376,9.222931,0.7409973,-1.9946136,2.5494385,0.70477295
1608,A,111546650091538,2.1422882,9.296967,0.560791,0.083480835,2.2809753,0.24899292
1608,A,111546670233140,2.0590057,11.30838,-1.0421295,0.36372375,0.8121338,0.13778687
1608,A,111546690374741,-1.3585663,12.24881,-1.6555634,0.10873413,0.18762207,0.14268494
1608,A,111546710516343,-2.6041565,13.288223,-4.8086243,-0.20855713,0.21794128,-0.13320923
1608,A,111546730657944,-3.1888733,13.441635,-5.1939697,0.28782654,0.7354431,-0.10169983
1608,A,111546750799546,-5.350586,15.214233,-4.1215057,-0.4610443,-0.6046753,-0.15261841
1608,A,111546770941147,-6.5906525,17.35344,-0.72094727,0.57128906,-1.259964,-0.44406128
1608,A,111546791082749,-4.790741,16.229843,-0.50486755,1.4545288,-0.97024536,-1.154602
1608,A,111546811224351,-1.7083893,14.578552,-0.6021271,1.9052429,-0.16178894,-0.47966003
1608,A,111546831365952,1.5853882,14.248947,1.5309143,0.97276306,-2.1247864,0.37678528
1608,A,111546851507554,2.3751068,12.605759,2.3022308,0.7044678,-2.3587036,0.28697205
1608,A,111546871649155,2.2337189,11.197937,0.94462585,1.3063507,-0.5546417,-0.34057617
1608,A,111546891790757,2.5837097,9.6684265,1.0544128,0.7356262,-0.23764038,-0.76504517
1608,A,111546911932358,0.44844055,6.256012,3.8425598,0.3269348,-0.26856995,-0.7707367
1608,A,111546932073960,-0.6382141,5.5805817,3.0297394,0.2963562,-0.5632477,-0.31321716
1608,A,111546952215562,-1.0739441,4.476288,-1.1450348,0.17906189,-0.0513916,0.043167114
1608,A,111546972357163,-1.5305176,1.9623718,-1.2370758,-1.0803528,1.1146545,1.3762817
1608,A,111546992498765,-1.9928741,1.0608978,-0.31932068,-2.058731,1.217102,0.9441986
1608,A,111547012640366,-1.7029419,1.0011292,-0.007156372,-1.6811829,-0.6877289,0.43440247
1608,A,111547032781968,-1.4300537,1.287323,0.370636,-1.7815247,2.0603485,0.9222717
1608,A,111547052923569,-1.3229523,2.282074,0.4500122,-1.1247559,2.4384003,0.037979126
1608,A,111547073065171,-0.862854,4.7799683,2.0313568,0.23999023,1.6684418,0.123306274
1608,A,111547093206772,0.029556274,8.201477,4.133713,0.5357971,0.5752411,0.2474823
1608,A,111547113348374,1.990097,15.703629,3.968979,0.1296997,0.35437012,0.11695862
1608,A,111547133489976,2.1954803,16.639877,4.4960938,-0.072906494,0.13702393,-0.030258179
1608,A,111547153631577,0.77111816,8.883652,6.456192,-0.38552856,0.72128296,0.22920227
1608,A,111547173773179,2.096878,4.5906525,6.6622925,0.04333496,-0.92266846,-0.2734375
1608,A,111547193914780,1.3691406,5.1224365,3.1520844,0.57777405,-0.6873779,-0.5268707
1608,A,111547214056382,-1.3422394,9.245758,-2.0748901,1.8523254,-0.13847351,-1.3858643
1608,A,111547234197983,0.9963684,17.288147,1.1406097,1.3222046,-0.22688293,0.38098145
1608,A,111547254339585,-11.477783,19.613052,-1.3116608,0.5745239,-2.262085,0.7112427
1608,A,111547274481187,-8.31517,13.164978,1.7837067,1.1302032,-1.2135315,-0.15766907
1608,A,111547294622788,-1.4023438,6.222946,-3.5027466,0.99990845,-0.42614746,-0.6722412
1608,A,111547314764390,2.218277,4.91803,-1.7058563,0.62294006,-0.019973755,-0.8707123
1608,A,111547334905991,7.9538116,6.7969513,-0.04307556,0.29341125,0.034820557,-0.5202484
1608,A,111547355047593,4.9106293,7.4786987,-3.7850952,0.31655884,0.288208,0.48997498
1608,A,111547375189194,1.4178467,9.677811,1.1318054,-1.0159454,0.79800415,1.7899017
1608,A,111547395330796,-17.262634,13.043488,-1.4468536,-2.2202148,0.15270996,0.81632996
1608,A,111547415472397,-4.2464905,12.621292,-0.39634705,-2.1187286,-1.0718079,0.20263672
1608,A,111547435613999,-4.3546906,9.78067,-1.3526001,-1.8587799,1.7130585,0.81817627
1608,A,111547455755601,-0.9769592,6.0885468,-2.4062347,-0.48738098,2.0646667,0.18989563
1608,A,111547475897202,2.2689667,4.8216705,-1.0620728,0.2739563,1.5169373,0.08432007
1608,A,111547496038804,1.9279633,4.7182007,2.6088715,0.4815216,0.20425415,0.32302856
1608,A,111547516180405,3.8140259,7.282501,0.9647827,-0.41711426,0.0695343,0.19226074
1608,A,111547536322007,3.9406433,9.80748,2.134781,0.055389404,0.47694397,-0.22598267
1608,A,111547556463608,0.23010254,8.606293,-2.086609,-0.4300537,0.47280884,0.37304688
1608,A,111547576605210,-0.9312439,8.330261,1.458725,0.10852051,-0.61135864,-0.21461487
1608,A,111547596746812,2.011322,9.8428955,0.20599365,0.506897,-0.65763855,-0.9008789
1608,A,111547616888413,2.7299347,8.875427,1.6072083,1.7594452,-0.07672119,-1.0936737
1608,A,111547637030015,2.1162262,8.233734,2.370575,1.462738,-0.93681335,-0.1947937
1608,A,111547657171616,-0.13052368,12.162888,-1.9810791,0.6545105,-2.337326,0.42462158
1608,A,111547677313218,-2.5793152,11.293671,-3.4962158,0.9722748,-1.4712067,-0.18595886
1608,A,111547697454819,-1.4783325,11.787735,-3.1719818,1.2264252,-0.50852966,-0.51953125
1608,A,111547717596421,-2.3837433,15.461731,-4.7202454,0.6767731,-0.07048035,-0.86720276
1608,A,111547737738022,-5.6600037,19.357346,-2.6792297,0.36457825,-0.01763916,-0.55485535
1608,A,111547757879624,-5.3936768,19.613052,-1.0709686,0.5914154,0.285141,-0.08874512
1608,A,111547778021226,-3.880539,18.63124,-1.2048798,-0.2776184,0.56799316,1.1427307
1608,A,111547798162827,-0.9181366,14.445755,1.030777,-1.6478882,1.3531647,1.4989624
1608,A,111547818304429,0.8084259,10.851196,3.161438,-2.189865,-1.2611847,0.322052
1608,A,111547838446030,2.1727753,10.89888,2.3615265,-1.9100037,0.41392517,0.4822693
1608,A,111547858587632,4.737335,9.436096,1.37677,-1.6224365,1.9390564,0.48861694
1608,A,111547878729233,2.380127,5.106369,3.8691864,0.019836426,1.8787537,0.0982666
1608,A,111547898870835,0.2372284,5.314331,0.41401672,0.65133667,0.9025421,-0.055603027
1608,A,111547919012437,-0.4400177,2.4612122,-1.154129,0.060531616,0.42951965,0.23275757
1608,A,111547939154038,-1.1911926,-0.06362915,0.040512085,-0.37493896,0.20347595,0.07901001
1608,A,111547959295640,-2.0581512,1.067627,-0.2006073,-0.098480225,0.9052887,-0.059188843
1608,A,111547979437241,-1.140152,2.3891144,-0.10348511,-0.55955505,-0.48832703,-0.31028748
1608,A,111547999578843,-0.90426636,2.6385193,-0.16607666,0.5805054,-0.91656494,-0.40711975
1608,A,111548019720444,-0.9122772,4.481949,0.32226563,1.5765839,-0.50471497,-0.9965515
1608,A,111548039862046,-0.39723206,7.546463,3.809723,1.1986542,0.028640747,-0.35220337
1608,A,111548060003647,0.9936676,12.035324,6.0366974,0.6745148,-2.1136627,0.56259155
1608,A,111548080145249,2.0609894,15.367706,6.478485,0.9932556,-1.8093567,0.008605957
1608,A,111548100286851,1.5577545,11.760345,8.13797,1.4080353,-0.30041504,-0.7675171
1608,A,111548120428452,0.52293396,6.571396,5.7808228,0.7451172,-0.24943542,-1.0731049
1608,A,111548140570054,-2.9158478,10.00975,-0.06591797,0.23410034,-0.42137146,-0.46339417
1608,A,111548160711655,-1.5684814,17.173294,1.2261505,0.6588745,0.45961,-0.016418457
1608,A,111548180853257,-5.06958,19.613052,2.8417664,-0.08911133,0.9036102,1.1275787
1608,A,111548200994858,-7.2595673,8.685562,3.01651,-1.6067963,1.2032928,1.5750275
1608,A,111548221136460,-3.2424774,4.2813873,-1.3828735,-2.075241,-1.0720825,0.36886597
1608,A,111548241278062,1.9123077,6.3114014,-4.0247955,-1.6685638,0.03517151,0.45404053
1608,A,111548261419663,4.811035,7.1649933,-1.9363708,-1.7304535,2.2181244,0.6010437
1608,A,111548281561265,2.1260223,8.79567,-1.5699615,-0.22398376,2.279007,0.111587524
1608,A,111548301702866,-8.36557,8.99202,0.9851227,0.6234894,1.1428833,0.05557251
1608,A,111548321844468,-7.2745056,8.394104,0.9263153,0.40803528,0.62934875,0.06465149
1608,A,111548341986069,-3.2868195,9.746628,-0.05557251,-0.32600403,0.1659851,0.008651733
1608,A,111548362127671,-2.7672577,11.137482,-2.2375183,-0.23100281,0.94662476,0.17871094
1608,A,111548382269272,-1.4900055,10.186615,-0.6887207,-0.778595,-0.51568604,-0.13456726
1608,A,111548402410874,0.59458923,7.864258,0.5160675,0.17304993,-0.79237366,-0.6286011
1608,A,111548422552476,0.3105011,5.8004303,-0.63272095,1.423111,-0.74638367,-1.3087006
1608,A,111548442694077,0.63298035,5.3945923,0.14700317,1.697998,-0.28126526,-0.177948
1608,A,111548462835679,1.5590515,6.8127747,0.8364868,1.0503845,-1.6615753,0.26113892
1608,A,111548482977280,3.0868988,8.616043,2.3281708,0.7132263,-2.1256714,0.17547607
1608,A,111548503118882,2.0461426,7.835083,0.6250458,1.3266602,-0.78697205,-0.5200043
1608,A,111548523260483,1.2928314,7.6388702,1.2153015,0.8676758,-0.32011414,-0.8537903
1608,A,111548543402085,1.5121918,8.567902,0.4111328,0.47851563,-0.17329407,-0.5988159
1608,A,111548563543687,0.12402344,9.9474945,1.1817017,0.50083923,0.17098999,-0.19322205
1608,A,111548583685288,-0.30970764,9.799759,-1.5040131,0.008331299,0.4645691,0.7310791
1608,A,111548603826890,0.56214905,9.486938,-0.57110596,-1.2533112,1.1160431,1.7876129
1608,A,111548623968491,1.1203766,8.615677,1.3290558,-1.9648132,-0.27590942,0.69918823
1608,A,111548644110093,0.87008667,9.68515,1.9693909,-1.9654083,-1.1746674,0.22001648
1608,A,111548664251694,1.9037476,10.705582,-0.08203125,-1.5105286,1.4775696,0.78196716
1608,A,111548684393296,1.2815857,12.833267,-1.8811798,-0.12994385,2.0543976,0.0435791
1608,A,111548704534897,1.0475922,13.561768,-5.89032,0.8145447,1.3564911,-0.11717224
1608,A,111548724676499,-3.135727,9.403015,-5.8292236,0.37071228,0.27809143,0.10765076
1608,A,111548744818101,-4.388809,12.871643,-3.3429108,-0.5332947,0.06489563,0.1852417
1608,A,111548764959702,-2.8403473,19.613052,-2.743988,-0.88479614,0.72906494,-0.13269043
1608,A,111548785101304,-5.6529236,19.20961,-1.881485,-0.5084381,-0.92240906,-0.45277405
1608,A,111548805242905,-6.410507,16.672836,-1.0596313,0.45262146,-0.8426056,-0.78738403
1608,A,111548825384507,-3.1752777,12.402405,0.85995483,2.1908875,-0.31051636,-1.5616608
1608,A,111548845526108,0.32315063,10.0516205,3.8840485,1.3326721,-0.77957153,0.33898926
1608,A,111548865667710,4.801483,11.290207,0.4509735,0.88797,-2.2996216,0.43450928
1608,A,111548885809312,6.4111786,9.926834,-2.2911682,1.2472839,-1.2992096,-0.28529358
1608,A,111548905950913,1.7934723,5.5879364,0.73376465,1.2620544,-0.106399536,-0.83200073
1608,A,111548926092515,-1.3820343,3.7366028,3.6138916,0.3759308,-0.12184143,-0.7957306
1608,A,111548946234116,-2.3684082,3.4846954,1.2700043,0.42391968,0.26783752,-0.33906555
1608,A,111548966375718,-2.6920776,1.5496368,-1.7823944,0.28276062,0.43746948,0.6156769
1608,A,111548986517319,-2.626419,0.5819397,-0.47177124,-1.0536499,0.87535095,1.7545471
1608,A,111549006658921,-2.3994293,1.9282684,0.6006012,-2.3460999,-0.3769989,0.88116455
1608,A,111549026800522,-1.9207916,2.1370544,1.2403259,-2.1772003,-1.400711,0.13023376
1608,A,111549046942124,-1.6056061,3.2938538,1.5868683,-1.7832947,1.6026764,0.9412384
1608,A,111549067083726,-0.87731934,5.982849,4.014374,-0.35092163,2.2830963,0.13790894
1608,A,111549087225327,0.6938324,10.462601,5.068268,0.3948059,1.8195953,-0.21051025
1608,A,111549107366929,1.3852997,16.691727,4.7278748,0.09335327,0.717453,0.331604
1608,A,111549127508530,0.8351898,13.926132,6.0456543,-0.6551666,0.026855469,0.43585205
1608,A,111549147650132,1.060257,6.6062317,6.7041626,-0.53868103,1.278595,-0.25508118
1608,A,111549167791733,-2.2500305,8.672714,2.0883484,-0.44386292,-0.4628296,-0.17633057
1608,A,111549187933335,-3.801178,16.305237,1.6460419,0.47155762,-0.80218506,-0.65141296
1608,A,111549208074937,-1.4016418,19.613052,2.2385101,1.9153442,-0.28068542,-1.2330475
1608,A,111549228216538,-8.208618,12.080093,4.413864,1.6768188,0.031295776,-0.14654541
1608,A,111549248358140,-6.5112915,4.4505005,1.7458801,1.026001,-1.6580658,0.37950134
1608,A,111549268499741,-0.23999023,4.539383,-4.058304,0.6739197,-1.4492645,-0.05847168
1608,A,111549288641343,6.151291,6.0976563,-2.9355774,0.9442749,-0.6320801,-0.38224792
1608,A,111549308782944,5.8894196,6.3554993,-2.4681244,0.8629761,-0.14016724,-0.5624237
1608,A,111549328924546,0.99261475,7.986664,-1.6556702,0.59129333,0.19494629,-0.35760498
1608,A,111549349066147,-12.581024,9.121475,-1.8273621,0.8231659,0.4037323,-0.26637268
1608,A,111549369207749,-7.8078766,9.746521,0.29937744,-0.030776978,0.4187317,0.7266846
1608,A,111549389349351,-3.5956268,10.303421,-0.69384766,-0.882782,1.67482,1.7372894
1608,A,111549409490952,-1.9271088,10.268204,-1.5866394,-2.2332458,0.111343384,0.55981445
1608,A,111549429632554,0.6427002,8.651657,-0.5406189,-2.120697,-0.6851349,-0.005554199
1608,A,111549449774155,2.2769623,7.2794495,-0.07902527,-1.9173431,1.6555176,0.6586914
1608,A,111549469915757,1.5092773,5.564331,1.4256287,-0.56230164,1.9349976,0.15661621
1608,A,111549490057358,2.6593475,7.2979584,-0.8783722,0.47387695,0.9182129,0.05432129
1608,A,111549510198960,3.47966,8.164764,1.0356445,0.3807068,-0.19410706,0.2626648
1608,A,111549530340562,1.8718414,8.495712,2.4020386,-0.29060364,0.081085205,0.08067322
1608,A,111549550482163,0.51039124,8.957291,-1.177887,-0.21003723,0.41270447,-0.09628296
1608,A,111549570623765,1.2288208,9.781509,0.11694336,-0.6618805,0.07902527,0.21212769
1608,A,111549590765366,-0.61512756,9.720032,0.79829407,0.36228943,-0.5566559,-0.5098114
1608,A,111549610906968,0.07093811,9.517166,-0.12069702,1.072815,-0.5586395,-1.1097412
1608,A,111549631048569,-0.08590698,9.823685,0.36834717,1.8858185,-0.20196533,-0.7212982
1608,A,111549651190171,0.43165588,8.148483,1.3923187,1.0052643,-0.95433044,-0.024658203
1608,A,111549671331772,0.9696655,8.926575,1.7376556,0.5611725,-1.9706879,0.37779236
1608,A,111549691473374,0.86354065,11.043076,0.959198,1.4590454,-0.8274994,-0.26670837
1608,A,111549711614976,1.6689758,13.547638,-1.3229065,0.97647095,-0.25386047,-0.7649231
1608,A,111549731756577,-0.33616638,12.4240265,-4.657913,0.5723419,-0.1324768,-0.77116394
1608,A,111549751898179,-1.2202454,9.515823,-5.06485,0.35658264,-0.08483887,-0.21813965
1608,A,111549772039780,-4.4675446,10.146896,-3.8070679,0.58380127,1.1551819,0.596405
1608,A,111549792181382,-3.0439606,15.013855,-2.6580505,-0.3157196,1.326767,1.3672333
1608,A,111549812322983,-4.9087524,19.613052,-0.40463257,-2.4741669,-0.00843811,0.8147278
1608,A,111549832464585,-4.5991974,18.874405,1.8774414,-1.8497467,-1.0512085,-0.047439575
1608,A,111549852606187,-1.8231354,15.055298,-1.3896332,-2.2939453,1.5079651,0.27357483
1608,A,111549872747788,1.9835205,11.920074,2.0113525,-0.7818146,1.3973083,0.36894226
1608,A,111549892889390,3.64534,10.685242,2.3575592,0.13705444,1.2784271,0.20620728
1608,A,111549913030991,5.7548523,9.664719,-2.3059845,0.61499023,0.4197235,0.22610474
1608,A,111549933172593,1.3669281,5.546051,-1.9698486,0.03300476,-0.11279297,0.3264923
1608,A,111549953314194,-1.7014465,4.3002014,1.2830658,-0.22624207,0.037612915,-0.04019165
1608,A,111549973455796,-2.9101105,4.3042297,2.8688354,0.07002258,0.65000916,-0.12007141
1608,A,111549993597397,-2.978485,3.915268,-0.16638184,-0.39822388,-0.7814026,-0.33683777
1608,A,111550013738999,-2.5134583,2.153473,-0.47076416,0.34855652,-1.0930939,-0.5144806
1608,A,111550033880601,-1.6937714,1.8651428,0.1955719,1.6533661,-0.62153625,-1.14328
1608,A,111550054022202,-1.4070435,2.802765,0.5523987,1.2365417,0.027877808,-0.306427
1608,A,111550074163804,-1.2630768,3.5963135,0.36116028,0.67285156,-1.9093018,0.5551605
1608,A,111550094305405,-1.1087341,5.540085,1.1751099,0.83369446,-1.8772278,0.11790466
1608,A,111550114447007,-0.96839905,7.9115295,4.1799927,1.2375793,-0.36749268,-0.7613983
1608,A,111550134588608,0.3113556,11.951752,4.772873,0.6652832,-0.029067993,-1.0283203
1608,A,111550154730210,1.107544,16.897858,4.9885254,0.25764465,0.12257385,-0.40260315
1608,A,111550174871812,1.1598053,13.671555,7.3726196,0.41711426,0.56199646,0.4847412
1608,A,111550195013413,1.5690308,6.702545,7.1530304,-0.5457916,0.6428833,1.5771179
1608,A,111550215155015,-0.798584,10.302795,0.53082275,-1.8270416,0.5757446,0.99209595
1608,A,111550235296616,-1.0002441,17.565994,-0.60043335,-1.9221039,-1.5808868,0.0032958984
1608,A,111550255438218,-5.019943,19.613052,2.8049927,-1.7932892,0.61024475,0.3891449
1608,A,111550275579819,-8.968353,10.293182,2.8220825,-1.0149078,1.14888,0.24104309
1608,A,111550295721421,-4.921768,3.8154144,-0.68544006,0.40055847,1.3085785,-0.106796265
1608,A,111550315863022,3.3595886,5.546341,-2.6134644,0.75305176,0.5654297,-0.027740479
1608,A,111550336004624,6.7825775,6.7676697,-1.7620697,-0.698349,0.06036377,0.30030823
1608,A,111550356146226,4.1739655,7.2982025,-3.084381,-0.15782166,0.4488678,0.019622803
1608,A,111550376287827,-4.98497,8.999084,-1.2295074,-0.6553192,0.8754425,0.14685059
1608,A,111550396429429,-9.708038,9.829514,1.0532837,-0.08918762,-0.3915558,-0.7255707
1608,A,111550416571030,-6.1453857,9.447861,0.52033997,0.9519043,-1.0356293,-0.54434204
1608,A,111550436712632,-2.2195587,9.906387,-2.805481,1.6982574,-0.030929565,-1.4003448
1608,A,111550456854233,-0.30004883,8.878113,-0.6673279,1.1807098,-0.68807983,0.28269958
1608,A,111550476995835,0.4790039,6.50766,-1.0486298,0.572525,-2.3613281,0.39562988
1608,A,111550497137437,0.4373474,5.2556,0.028778076,1.2101593,-1.4494324,-0.37727356
1608,A,111550517279038,0.28926086,5.1229095,0.34632874,1.3010864,-0.32673645,-0.6695709
1608,A,111550537420640,4.831436,8.979294,2.4716034,0.6174164,-0.07675171,-0.89793396
1608,A,111550557562241,2.8160706,8.680023,1.0361481,0.2819214,0.055740356,-0.36421204
1608,A,111550577703843,2.032135,8.727951,1.3901062,0.3421173,0.8039551,0.48698425
1608,A,111550597845444,1.718216,9.421387,-0.03805542,-0.68522644,1.1569977,1.6514587
1608,A,111550617987046,0.3796234,9.875656,0.5057831,-2.1142426,0.5060272,0.6004486
1608,A,111550638128647,4.534775,8.959473,1.0092468,-1.9922638,-0.78775024,-0.0715332
1608,A,111550658270249,0.91329956,9.300552,0.87194824,-2.0436249,1.416336,0.37545776
1608,A,111550678411851,-0.19786072,7.7055664,2.0424957,-0.53862,1.7002411,0.15020752
1608,A,111550698553452,-0.21047974,10.171036,0.32270813,0.28007507,1.3565826,-0.03152466
1608,A,111550718695054,1.0301361,15.362488,-4.0227203,0.4532318,0.3900299,0.17845154
1608,A,111550738836655,-1.8908691,13.028427,-7.175232,-0.6500702,-0.0010070801,0.30178833
1608,A,111550758978257,-4.76445,12.143326,-5.4650574,-0.2342987,0.5211792,-0.041488647
1608,A,111550779119858,-4.7044525,12.295731,-3.6220093,-0.8795471,0.50746155,0.2979126
1608,A,111550799261460,-3.9323578,17.354736,-2.4881744,0.16838074,-0.39578247,-0.48298645
1608,A,111550819403062,-5.4363556,19.396683,0.63212585,0.7825165,-0.50445557,-0.96954346
1608,A,111550839544663,-3.2924347,17.45671,-0.31144714,1.8586884,-0.0045318604,-0.8235779
1608,A,111550859686265,0.02708435,14.436325,-0.011871338,1.2571564,-0.61997986,0.20440674
1608,A,111550879827866,2.27182,10.826996,4.166031,0.6688843,-1.6503754,0.29335022
1608,A,111550899969468,4.3514557,10.234756,2.2246094,1.4741821,-0.3595276,-0.48854065
1608,A,111550920111069,4.504608,7.1819305,0.0068511963,1.1440735,-0.034484863,-0.6845703
1608,A,111550940252671,0.55711365,2.692688,4.08226,0.29328918,-0.1633606,-0.33799744
1608,A,111550960394272,-1.4740295,4.396942,0.638443,0.49839783,0.704834,-0.011566162
1608,A,111550980535874,-1.5744934,4.5166473,-0.5111084,-0.2682495,0.92048645,1.5168304
1608,A,111551000677476,-1.5944214,2.6315155,-0.41412354,-1.6351929,1.1321259,1.4782867
1608,A,111551020819077,-1.7082367,1.3887634,-0.17300415,-2.1983185,-1.6196747,0.27522278
1608,A,111551040960679,-1.7723846,1.6390991,0.20185852,-1.9726563,0.4315338,0.41889954
1608,A,111551061102280,-1.8942261,2.6603699,0.78671265,-1.1151428,1.472641,0.32469177
1608,A,111551081243882,-1.9666443,4.379074,0.92755127,0.20549011,1.6167908,0.1519165
1608,A,111551101385483,-1.5455627,7.676941,3.4832764,0.7318115,0.9917755,0.0728302
1608,A,111551121527085,0.6412506,11.855774,5.653778,-0.4552002,0.32095337,0.312088
1608,A,111551141668687,1.7075958,16.782425,4.1852875,-0.20256042,0.62187195,-0.18621826
1608,A,111551161810288,1.2920074,14.439362,5.413864,-0.7370148,0.68644714,0.104263306
1608,A,111551181951890,2.4621735,7.5126038,6.9842377,0.044769287,-0.60627747,-0.15248108
1608,A,111551202093491,0.06921387,9.278183,3.6895447,0.5483856,-0.84902954,-0.8110504
1608,A,111551222235093,-1.5671692,15.596069,2.1034088,1.8703918,-0.5485687,-1.2982941
1608,A,111551242376694,-1.4851227,19.106567,2.4023438,1.4057617,-0.49386597,0.18156433
1608,A,111551262518296,-4.531204,15.678238,1.8792267,0.7635498,-2.3793488,0.37277222
1608,A,111551282659897,-5.102356,9.407715,2.7131958,1.2880402,-1.4729767,-0.40924072
1608,A,111551302801499,-0.9080658,7.881439,-1.1936646,1.2176514,-0.35386658,-0.70240784
1608,A,111551322943101,3.5522003,9.00412,-3.6313782,0.598999,-0.028930664,-0.789917
1608,A,111551343084702,3.3337402,7.8178406,-2.2440186,0.22547913,-0.07203674,-0.3324585
1608,A,111551363226304,-0.25759888,7.191452,-0.76693726,0.33140564,-0.076797485,0.4078369
1608,A,111551383367905,-7.4372406,7.256485,0.5313721,-0.62042236,0.604599,1.7794342
1608,A,111551403509507,-6.7549133,7.292618,-0.14208984,-1.9714966,0.5247803,1.245697
1608,A,111551423651108,-4.9738007,8.945541,-1.3902435,-1.9238586,-1.6002655,0.15020752
1608,A,111551443792710,-2.5056152,11.572189,-1.5111847,-1.6759033,1.1422119,0.97865295
1608,A,111551463934312,0.045211792,10.40271,0.3349762,-1.0993042,2.1749878,-0.10116577
1608,A,111551484075913,1.1756592,7.5270844,-0.18736267,0.4539032,1.4364624,-0.24101257
1608,A,111551504217515,0.7552185,5.390274,0.09049988,0.29463196,0.43284607,0.16175842
1608,A,111551524359116,1.1613159,5.3759003,0.6418457,-0.62002563,-0.15763855,0.19494629
1608,A,111551544500718,3.2941742,7.2921143,1.7586365,0.18617249,0.60643005,-0.15652466
1608,A,111551564642319,3.7364502,8.642517,2.2240143,-0.52879333,0.08888245,-0.21896362
1608,A,111551584783921,2.1445313,8.222504,1.3480682,0.25209045,-0.61927795,-1.0114594
1608,A,111551604925522,1.6611786,8.936966,-0.81941223,1.3893127,-1.3985748,-0.79403687
1608,A,111551625067124,0.2088623,9.470215,0.36047363,1.2233887,0.15924072,-0.9344177
1608,A,111551645208726,-0.35757446,9.309021,0.42599487,1.0904236,-1.2949677,0.4343872
1608,A,111551665350327,0.7095032,9.553345,-0.518692,0.7255249,-2.2016144,0.24453735
1608,A,111551685491929,0.91015625,8.384842,1.2516174,1.5792236,-0.013336182,-0.6249237
1608,A,111551705633530,0.19412231,9.704941,1.9915161,1.0078735,0.013381958,-0.96266174
1608,A,111551725775132,0.17860413,11.788849,0.11288452,0.4212799,-0.13078308,-0.60289
1608,A,111551745916733,0.1981659,14.544098,-2.1340332,0.47053528,0.15122986,-0.20199585
1608,A,111551766058335,0.15975952,12.69693,-6.0147552,-0.35308838,0.55163574,1.0758514
1608,A,111551786199937,-2.479782,11.967102,-5.310623,-1.3997955,1.3673248,1.6385956
1608,A,111551806341538,-4.0819244,10.921707,-4.880066,-2.195877,-0.5141907,0.44262695
1608,A,111551826483140,-4.5919952,14.350555,-3.52005,-1.7440338,-0.082855225,0.4872284
1608,A,111551846624741,-7.4709015,19.405533,0.33859253,-1.4300385,2.1259003,0.7856293
1608,A,111551866766343,-5.2523346,16.832397,0.85543823,0.07157898,2.1730347,0.38737488
1608,A,111551886907944,-1.3057861,14.35817,-1.9167938,0.48239136,1.0211487,0.064941406
1608,A,111551907049546,2.112793,11.932159,3.603424,-0.28468323,-0.21673584,0.337265
1608,A,111551927191147,3.5415497,10.436966,2.8106232,-0.07008362,0.21234131,-0.20951843
1608,A,111551947332749,5.6907196,10.455414,-1.3419037,-0.6206207,0.24113464,-0.05937195
1608,A,111551967474351,2.858673,5.725662,0.5590973,0.28657532,-0.95199585,-0.27912903
1608,A,111551987615952,-0.7340088,3.5682678,3.7901917,0.5501251,-0.27041626,-0.5965576
1608,A,111552007757554,-1.4421844,4.720413,1.9110718,1.5510864,-0.5454254,-1.2915802
1608,A,111552027899155,-1.4447021,3.8840332,-0.62506104,1.1236115,-1.3983765,0.14506531
1608,A,111552048040757,-1.5799103,1.4492645,0.37625122,1.1252441,-1.3224487,0.036026
1608,A,111552068182358,-1.4814453,1.2160339,0.4686432,1.1640625,-0.66893005,-0.21855164
1608,A,111552088323960,-1.3222504,2.1781006,0.5084381,0.30610657,-1.2602844,-0.04473877
1608,A,111552108465562,-1.318222,3.301941,0.3843994,-0.2817688,-0.5402069,-0.08015442
1608,A,111552128607163,-1.416214,5.910843,1.8449707,-0.38298035,1.0714417,0.95602417
1608,A,111552148748765,-0.44477844,9.076675,5.8728943,-1.724823,-0.39788818,0.9182892
1608,A,111552168890366,-0.05253601,14.147842,5.3457336,-1.4395905,-0.47608948,-0.06744385
1608,A,111552189031968,-0.11955261,15.671967,5.7738953,-1.5037994,0.4693451,0.11079407
1608,A,111552209173569,1.5574341,7.771744,7.4244537,-0.13568115,0.68141174,0.14282227
1608,A,111552229315171,0.46411133,6.7741394,3.326889,0.4855957,0.86724854,0.037963867
1608,A,111552249456772,-2.3061523,12.617874,-1.313385,0.8878174,0.30706787,-0.12567139
1608,A,111552269598374,-1.0653839,18.075516,0.72184753,0.40545654,-0.18119812,-0.37905884
1608,A,111552289739976,-6.113693,16.48433,1.4681549,0.07723999,0.12223816,-0.31655884
1608,A,111552309881577,-8.466202,7.7605896,1.7346039,-0.64585876,0.36602783,-0.12211609
1608,A,111552330023179,-1.1021118,3.1378021,-2.4678802,-1.3312378,-0.7452545,-1.1430206
1608,A,111552350164780,4.5035095,4.6476746,-3.8638916,0.6881714,-1.3218536,-0.33638
1608,A,111552370306382,6.395935,6.7806244,-1.0270691,2.0208893,0.43977356,-0.7138977
1608,A,111552390447983,3.3937378,8.124878,-2.304123,1.205368,-0.98316956,0.28746033
1608,A,111552410589585,-10.590958,10.1410675,-0.43959045,1.0143738,-2.2567902,0.03451538
1608,A,111552430731187,-9.182053,11.529373,0.5639801,1.3006744,-1.376358,-0.50642395
1608,A,111552450872788,-3.6899414,11.314407,-0.8943176,1.2970581,-0.7768402,-0.90449524
1608,A,111552471014390,-2.038025,10.174866,-1.0083008,0.3744049,-0.83226013,-0.7296753
1608,A,111552491155991,-0.17085266,7.027878,-0.5409546,0.6338196,0.17913818,-0.23616028
1608,A,111552511297593,1.3173218,5.0020294,-0.104660034,-0.47102356,1.1204681,1.2874451
1608,A,111552531439194,0.9824829,4.384781,0.86094666,-1.4515839,2.051651,1.8022461
1608,A,111552551580796,2.1885834,6.653305,0.31529236,-2.2631989,-1.264801,0.31266785
1608,A,111552571722397,2.7996979,8.78157,0.9042053,-1.5174255,1.2612915,1.3762817
1608,A,111552591863999,1.6458435,8.90712,0.94802856,-1.977951,3.3664703,0.07511902
1608,A,111552612005601,0.36283875,9.456848,1.2779083,-0.32777405,2.2602692,-0.12782288
1608,A,111552632147202,-0.59013367,10.236893,-0.42077637,-0.23352051,1.0168304,0.100753784
1608,A,111552652288804,0.11172485,9.946869,0.31596375,-0.6301727,0.60112,0.30436707
1608,A,111552672430405,0.8455353,9.321854,0.21852112,-0.032791138,0.53471375,0.2041626
1608,A,111552692567240,2.4908142,7.8998566,0.8815918,-0.72909546,0.4760437,0.048233032
1608,A,111552712708841,1.821106,7.999405,2.2857208,0.059921265,-0.31602478,-0.8579407
1608,A,111552732850443,1.6080322,10.903717,0.22576904,0.78141785,-1.1332092,-1.3717194
1608,A,111552752992045,0.056411743,13.198135,-1.8393097,1.7615509,0.6584778,-0.33425903
1608,A,111552773133646,-0.030883789,12.8428955,-5.6696625,1.4668732,0.33987427,0.23875427
1608,A,111552793275248,-2.224121,12.058777,-4.8386383,1.1402588,-0.80766296,0.3801422
1608,A,111552813416849,-3.977005,11.642548,-5.9739532,1.0387421,-0.32885742,-0.27043152
1608,A,111552833558451,-5.5625305,15.478149,-4.9515533,1.1806335,0.12715149,-0.37687683
1608,A,111552853700052,-7.2197113,19.470932,0.616272,0.7250061,0.31388855,-0.5455017
1608,A,111552873841654,-5.0874023,16.800415,0.7946167,0.3662567,0.17044067,-0.26463318
1608,A,111552893983255,-1.4464874,14.308029,-1.673172,0.23776245,1.0361023,0.23268127
1608,A,111552914124857,0.3249817,11.5924225,2.7915192,-0.7233429,1.3660278,1.6393433
1608,A,111552934266459,2.7682953,9.555893,3.2769928,-1.9011383,0.7690582,1.2806091
1608,A,111552954408060,5.5509644,10.711517,-0.82359314,-1.7791138,-1.1582184,0.15385437
1608,A,111552974549662,4.2274017,6.77536,-0.7494507,-1.464859,0.9944153,0.81562805
1608,A,111552994691263,0.2677765,4.105835,0.9623413,-1.33255,2.1387787,0.53744507
1608,A,111553014832865,-1.585144,3.4642944,3.2803192,0.2576294,1.8458405,0.19526672
1608,A,111553034974466,-1.374649,4.194687,1.4618378,0.43966675,0.82154846,0.14212036
1608,A,111553055116068,-1.7894897,3.4710236,0.22512817,-0.2250061,0.1465149,0.016662598
1608,A,111553075257670,-1.6307373,2.6836548,0.4419098,-0.31192017,0.48310852,-0.09921265
1608,A,111553095399271,-1.3372498,2.5554504,0.11820984,-0.6642456,0.6782074,0.34606934
1608,A,111553115540873,-0.9898834,2.8924866,0.68315125,0.19096375,-0.6935425,-0.31860352
1608,A,111553135682474,-1.2219696,4.0307007,1.1204834,0.42852783,-0.43719482,-1.0056305
1608,A,111553155824076,-1.1082458,7.1774445,3.0606384,1.788681,-0.41099548,-1.4021912
1608,A,111553175965677,-0.48582458,12.864548,4.0921783,1.6136627,0.011642456,0.071624756
1608,A,111553196107279,1.2592621,18.202545,4.957855,1.0213623,-1.4542999,0.53681946
1608,A,111553216248880,0.93460083,12.131638,7.1006165,1.2444458,-0.6539154,-0.17533875
1608,A,111553236390482,0.9376221,8.054535,3.5116577,1.3076782,-0.10038757,-0.556015
1608,A,111553256532084,-0.61450195,14.485794,-1.0919952,0.5162964,-0.18060303,-0.49111938
1608,A,111553276673685,-1.0958405,19.613052,1.8426361,0.49343872,0.17684937,-0.25202942
1608,A,111553296815287,-5.9327087,14.880585,3.2712555,0.21508789,0.7188873,0.6020508
1608,A,111553316956888,-9.527588,6.3567657,3.0651245,-0.8486023,0.93208313,1.7840118
1608,A,111553337098490,-3.1958313,5.1691895,-1.3683472,-2.1656036,-0.64253235,1.0633087
1608,A,111553357240091,3.6544952,8.153442,-2.532257,-2.129303,-1.8451843,-0.17172241
1608,A,111553377381693,5.9439545,9.404541,-1.7667542,-1.9542389,0.5058899,0.8550873
1608,A,111553397523295,1.5811005,9.385757,-0.89520264,-0.58543396,1.3813019,0.030593872
1608,A,111553417664896,-7.1392975,8.644608,-0.44500732,0.46910095,1.574707,-0.34588623
1608,A,111553437806498,-7.195984,8.458954,0.50779724,0.24594116,0.62805176,0.09713745
1608,A,111553457948099,-4.287674,8.475021,-0.7661896,-0.78282166,0.2427063,0.30934143
1608,A,111553478089701,-2.9622345,9.551132,-1.541626,-0.6402588,0.767334,-0.04360962
1608,A,111553498231302,-0.90205383,9.323837,0.06814575,-0.81318665,-0.37771606,-0.5501709
1608,A,111553518372904,0.05090332,7.1513824,-0.3508911,0.45378113,-1.3104858,-0.4862213
1608,A,111553538514505,0.7811432,5.6611786,-0.015823364,1.4455719,-0.35398865,-1.6698456
1608,A,111553558656107,1.4536285,5.652405,0.8614807,1.8706512,0.5593262,-0.4234314
1608,A,111553578797709,3.4858246,7.4005737,0.73472595,1.3930511,-0.7328949,0.061340332
1608,A,111553598939310,3.458084,8.303482,1.0820618,0.8847809,-1.3214264,0.25413513
1608,A,111553619080912,1.6711121,8.125977,1.6096344,1.3862457,-0.32556152,-0.45037842
1608,A,111553639222513,1.075592,8.647797,0.18347168,1.0250549,0.08262634,-0.6516876
1608,A,111553659364115,0.311203,9.775635,-0.037826538,0.40911865,0.04966736,-0.3229828
1608,A,111553679505716,0.20378113,9.812454,1.041153,0.6709595,0.8114929,-0.18365479
1608,A,111553699647318,0.5240936,9.181198,-0.7784729,-0.18051147,0.95210266,1.1429291
1608,A,111553719788920,1.1552734,8.158524,0.6273041,-1.5745087,1.4561462,1.6478882
1608,A,111553739930521,0.7292938,8.576736,2.2796478,-2.1275482,-0.991745,0.59747314
1608,A,111553760072123,0.24935913,10.146591,0.11854553,-1.9302521,-0.37745667,-0.03338623
1608,A,111553780213724,1.1025543,13.495758,-2.3947449,-1.6754913,1.7315979,0.8435211
1608,A,111553800355326,-1.1898804,12.810272,-5.162369,-0.18826294,1.9470978,0.19462585
1608,A,111553820496927,-4.1010895,11.747101,-4.9780884,0.734787,1.203125,0.060394287
1608,A,111553840638529,-5.5310516,12.751572,-3.5702057,0.027740479,0.17134094,0.4303131
1608,A,111553860780130,-5.042862,17.378067,-2.583969,-0.46221924,0.15222168,0.07795715
1608,A,111553880921732,-6.4648438,19.606277,1.3530884,-0.71217346,0.82369995,-0.15359497
1608,A,111553901063334,-4.247299,16.322601,0.30497742,-0.28627014,-0.74064636,-0.31121826
1608,A,111553921204935,-0.9458008,14.584549,-2.1349182,0.89611816,-1.1445007,-0.7723236
1608,A,111553941346537,1.0994415,10.643433,4.107437,1.9008179,-0.477005,-1.6294861
1608,A,111553961488138,2.7063293,9.263031,4.5762634,1.550705,-0.4776001,0.185318
1608,A,111553981629740,5.121689,8.559647,-1.638092,0.7188263,-2.3709564,0.466156
1608,A,111554001771341,2.3123322,4.8228455,1.2351074,1.1646423,-1.5068359,-0.35847473
1608,A,111554021912943,-1.0031128,2.7844849,4.709015,1.0878143,-0.3509369,-0.75424194
1608,A,111554042054545,-1.0324097,4.5616913,1.7458496,0.555542,-0.010620117,-0.6577606
1608,A,111554062196146,-0.8520813,3.1899567,-0.035217285,0.4627533,0.55107117,-0.36097717
1608,A,111554082337748,-0.43681335,1.2553253,-0.027816772,0.34677124,0.8196411,0.9309845
1608,A,111554102479349,-0.87290955,1.0794678,0.44424438,-0.60324097,1.216095,1.6015472
1608,A,111554122620951,-1.4470825,2.8537292,0.822464,-2.4348907,-0.57159424,0.6455231
1608,A,111554142762552,-1.8047943,4.3940887,0.4931183,-2.1180115,-1.234436,-0.22616577
1608,A,111554162904154,-1.7413483,7.6174164,3.122467,-2.1633606,1.4888458,0.5453491
1608,A,111554183045755,-0.45777893,13.184097,5.4749756,-0.55075073,1.7238922,0.19882202
1608,A,111554203187357,0.09509277,17.397522,7.2305145,0.21063232,1.1752319,0.10681152
1608,A,111554223328959,-0.26763916,11.620773,4.94928,0.39112854,0.23648071,0.19198608
1608,A,111554243470560,-0.050094604,13.441208,1.4113464,-0.36663818,0.03163147,0.21789551
1608,A,111554263612162,-0.15951538,19.613052,1.0811462,-0.3171997,0.4953003,-0.055374146
1608,A,111554283753763,-5.0988464,16.250687,3.6014252,-0.6781006,-0.19927979,0.049987793
1608,A,111554303895365,-9.286713,6.584854,6.1459503,0.37387085,-0.815506,-0.7026367
1608,A,111554324036966,-3.4203644,2.6877594,-3.075882,1.168747,-1.069458,-1.309372
1608,A,111554344178568,3.6667328,6.3053284,-1.6304169,1.982605,-0.4658661,-0.7253723
1608,A,111554364320170,7.5762787,6.910019,-1.5849609,1.0935822,-1.5773468,0.2158966
1608,A,111554384461771,3.3150635,9.051437,-3.0039368,0.5898895,-2.21344,0.24876404
1608,A,111554404603373,-8.373566,10.335403,-1.1477661,1.3611755,-0.3469696,-0.47383118
1608,A,111554424744974,-10.461227,9.467331,1.4341736,0.91867065,0.42822266,-0.7370453
1608,A,111554444886576,-4.491562,9.043137,-0.5626068,0.48339844,0.49931335,-0.6769867
1608,A,111554465028177,-3.1922607,8.789749,-1.7364197,0.39950562,0.32577515,-0.20837402
1608,A,111554485169779,-0.27018738,8.018036,0.3434906,0.26264954,1.0462494,0.93026733
1608,A,111554505311380,1.1801605,6.3097687,-0.004119873,-0.7672119,1.465332,1.4122772
1608,A,111554525452982,1.5196686,4.8380127,0.6043854,-2.3742523,-0.53526306,0.621994
1608,A,111554545594584,2.0227356,4.888153,0.36305237,-2.150299,-0.99217224,-0.08151245
1608,A,111554565736185,3.8100128,7.555725,1.0093079,-1.7807465,1.505722,0.58062744
1608,A,111554585877787,2.6750793,8.855942,1.5729523,-0.3355713,1.6982422,0.29936218
1608,A,111554606019388,0.9528198,9.342957,0.20179749,0.36608887,1.5094452,0.094680786
1608,A,111554626160990,-0.46429443,10.0061035,-1.2094727,0.41409302,0.63568115,0.23295593
1608,A,111554646302591,-0.36949158,9.745407,0.68159485,-0.48890686,0.124420166,0.200943
1608,A,111554666444193,0.94184875,8.871277,0.044952393,-0.26237488,0.31199646,-0.05253601
1608,A,111554686585795,1.1018829,7.82193,0.8854828,-1.1010284,0.4439392,0.045059204
1608,A,111554706727396,-0.26664734,9.145889,3.0686035,0.019088745,-0.7618408,-0.6550751
1608,A,111554726868998,0.9828949,12.643555,-1.1779633,0.9079437,-0.9459076,-1.2308655
1608,A,111554747010599,-0.099746704,13.952606,-4.320114,1.9540405,0.13897705,-0.8449249
1608,A,111554767152201,-1.568573,12.300949,-6.5339966,1.3792725,-0.545105,0.19650269
1608,A,111554787293802,-4.956497,11.173401,-5.792343,0.6760254,-2.0141296,0.3672943
1608,A,111554807435404,-4.150406,13.196732,-3.6948242,1.0822601,-1.1408081,-0.3453827
1608,A,111554827577005,-7.3592224,18.336838,-1.0111542,1.3440704,-0.07757568,-0.67907715
1608,A,111554847718607,-6.391327,19.544266,2.407608,0.56773376,0.012634277,-0.8409271
1608,A,111554867860209,-2.9650269,18.18132,-1.5232391,0.3247223,-0.0067596436,-0.3415985
1608,A,111554888001810,1.786789,15.138504,-0.64523315,0.45568848,0.76519775,0.22399902
1608,A,111554908143412,2.2566986,9.612701,4.611374,-0.330719,1.23172,1.3712921
1608,A,111554928285013,5.257126,10.848038,1.3439178,-1.8563843,1.0721893,1.2503662
1608,A,111554948426615,5.4223022,6.6576843,-0.1711731,-2.1145782,-1.4356232,0.107559204
1608,A,111554968568216,0.6249237,2.5183868,4.233963,-1.986496,1.4036102,0.3473053
1608,A,111554988709818,-1.1520691,3.642105,1.3243561,-1.2579193,2.0444794,0.32273865
1608,A,111555008851420,-1.0508118,3.3649445,-1.3729095,-0.044433594,1.8200531,0.20568848
1608,A,111555028993021,-0.89575195,0.40283203,-0.52326965,0.48242188,0.7781067,0.26582336
1608,A,111555049134623,-0.92826843,-0.48158264,0.611969,-0.09057617,-0.033950806,0.38711548
1608,A,111555069276224,-1.3166351,2.1436768,0.66548157,-0.35154724,0.056350708,-0.09863281
1608,A,111555089417826,-1.4914551,3.5414276,-0.16247559,-0.8735504,0.7787781,-0.06480408
1608,A,111555109559427,-2.5251007,6.822876,1.8026733,-0.11116028,-0.9141998,-0.32763672
1608,A,111555129701029,-1.1271515,10.771835,7.43309,0.6723175,-0.92037964,-0.850296
1608,A,111555149842630,2.0923157,17.46759,6.909012,1.7440338,-0.71417236,-1.5453186
1608,A,111555169984232,1.8983154,15.627853,7.641083,1.5069275,-0.272583,0.13192749
1608,A,111555190125834,1.0720825,7.7940674,5.5151825,0.8095398,-2.1756287,0.57170105
1608,A,111555210267435,-3.0721436,13.964737,-2.0750275,1.1173859,-1.029892,-0.20936584
1608,A,111555230409037,-1.9514465,19.613052,2.9095764,1.3188171,0.16029358,-0.6661377
1608,A,111555250550638,-2.982193,15.450958,3.7029266,0.40620422,-0.11376953,-0.65625
1608,A,111555270692240,-7.2901154,5.128601,0.7556,0.42300415,0.27198792,-0.22088623
1608,A,111555290833841,-3.9337463,5.449524,-1.8561707,0.5663605,0.56570435,-0.042877197
1608,A,111555310975443,4.0578156,7.262909,-1.6481628,-0.53041077,0.76698303,1.3286896
1608,A,111555331117045,6.6516113,8.361465,-2.8205261,-1.6512756,0.9548187,1.4936371
1608,A,111555351258646,1.9384766,8.972336,-3.3378906,-1.9476471,-1.4404297,0.1717987
1608,A,111555371400248,-6.3143005,8.223389,0.61372375,-1.8069153,0.4074402,0.48558044
1608,A,111555391541849,-8.54335,7.5359497,1.9706879,-1.5723114,1.9787903,0.5534668
1608,A,111555411683451,-3.9856415,8.547562,-1.0775757,0.1932373,2.1511688,0.21377563
1608,A,111555431825052,-2.7842712,9.158661,-1.9657593,0.6430054,1.0636902,0.07055664
1608,A,111555451966654,-0.77352905,8.671677,0.4772644,-0.1133728,0.055282593,0.4188385
1608,A,111555472108255,0.37345886,7.072235,0.33392334,-0.31115723,0.107177734,-0.08467102
1608,A,111555492249857,1.1173248,6.3680573,-0.14323425,-0.68937683,0.5403137,0.08062744
1608,A,111555512391459,1.6277161,7.2202454,0.58488464,0.1028595,-1.0120544,-0.5289917
1608,A,111555532533060,1.9830475,8.425552,1.3056335,0.768692,-1.220581,-0.82862854
1608,A,111555552674662,2.2263641,8.441025,2.0253448,1.9445038,-0.7220459,-1.2864838
1608,A,111555572816263,1.5920715,7.834839,2.0313416,1.4953766,-0.6331787,-0.025360107
1608,A,111555592957865,0.6642456,8.281448,0.9888153,0.68989563,-2.2419434,0.5309906
1608,A,111555613099466,0.38085938,9.413025,-0.34375,1.0224152,-1.3653107,-0.1027832
1608,A,111555633241068,-0.33000183,9.452118,-0.21966553,1.2507324,-0.08467102,-0.5536957
1608,A,111555653382670,0.78756714,9.042999,-0.15232849,0.66363525,0.21083069,-0.80807495
1608,A,111555673524271,1.4952087,8.81897,0.09017944,0.29652405,0.25735474,-0.34753418
1608,A,111555693665873,0.6549225,10.238968,1.4042816,0.5508728,0.15026855,-0.117767334
1608,A,111555713807474,0.72146606,11.575119,0.4103241,-0.5895233,0.13676453,1.1851654
1608,A,111555733949076,0.98072815,14.898788,-0.6704407,-1.5182343,0.8772278,1.5357208
1608,A,111555754090677,1.5607758,13.369614,-5.593277,-2.0373993,-1.3299713,0.075546265
1608,A,111555774232279,-1.1534271,10.306274,-4.9894257,-1.8849335,0.2729187,0.41615295
1608,A,111555794373880,-2.87883,10.390411,-4.096695,-1.8037262,1.9111481,0.30473328
1608,A,111555814515482,-2.0132751,13.39798,-4.969101,0.04005432,1.9527893,-0.053390503
1608,A,111555834657084,-6.9866486,18.413269,-2.3066406,0.7828827,0.8735657,-0.05973816
1608,A,111555854798685,-5.841385,18.20279,2.9243011,-0.2667694,-0.25064087,0.4908905
1608,A,111555874940287,-3.5547485,14.991547,-2.3834686,-0.14996338,-0.08517456,0.018112183
1608,A,111555895081888,-0.054092407,12.530685,-0.09820557,-0.6051941,0.624527,0.06329346
1608,A,111555915223490,1.6614838,10.248764,3.3611145,0.23094177,-0.8201904,-0.6534271
1608,A,111555935365091,4.252838,10.605545,-0.34361267,0.856308,-1.2914429,-0.7022705
1608,A,111555955506693,4.4327087,6.918167,-0.9024048,1.7924194,-0.5185394,-1.2940674
1608,A,111555975648295,-0.40290833,3.7246094,2.4023743,1.4464874,-0.881897,0.29515076
1608,A,111555995789896,-1.8002014,4.5019073,1.1342468,0.5558624,-2.4950867,0.5860443
1608,A,111556015931498,-2.0174408,4.9825745,0.30204773,1.5640717,-0.9249115,-0.46806335
1608,A,111556036073099,-2.4115448,3.08461,0.6213074,0.9610138,-0.12712097,-0.9456482
1608,A,111556056214701,-2.3527374,1.9331512,0.8800354,0.25178528,-0.07489014,-0.5203552
1608,A,111556076356302,-2.075592,2.6893616,0.794754,0.47192383,0.474411,-0.2922516
1608,A,111556096497904,-1.6192932,3.5550537,1.183609,-0.08934021,0.2467804,0.73321533
1608,A,111556116639505,-1.5023499,5.616455,-0.1118927,-0.96435547,1.0628357,1.8003235
1608,A,111556136781107,-0.09928894,8.801102,6.3052216,-2.200592,-0.12193298,0.46627808
1608,A,111556156922709,0.74108887,10.762482,6.081299,-1.9445496,-0.6744385,0.030456543
1608,A,111556177064310,2.6182098,15.684021,3.5219116,-1.89357,1.8748932,0.7453613
1608,A,111556197205912,2.0519104,12.179413,5.926193,-0.3274536,2.1186523,0.26159668
1608,A,111556217347513,1.0187683,10.702576,5.2876587,0.4546051,1.2588959,0.10682678
1608,A,111556237489115,1.1527405,16.436218,4.4424133,0.12130737,0.30133057,0.24157715
1608,A,111556257630716,-1.8527985,18.405487,-0.6214142,-0.41337585,0.10331726,0.11451721
1608,A,111556277772318,-4.834549,17.057632,3.4749298,-0.6575775,0.7658844,-0.13772583
1608,A,111556297913920,-5.63797,8.670334,4.593979,-0.40124512,-0.6548462,-0.07472229
1608,A,111556318055521,-1.2549133,6.5486145,-2.0691528,0.6632843,-0.81440735,-0.4987793
1608,A,111556338197123,3.2515259,7.8245697,-3.2388153,1.4374237,-0.8654175,-1.598465
1608,A,111556358338724,4.370926,7.413666,-1.7902985,1.7605286,-0.15472412,-0.4567566
1608,A,111556378480326,0.4765625,6.5741577,-2.4146118,1.0696716,-1.4975128,0.28619385
1608,A,111556398621927,-5.806366,6.20697,0.59033203,0.8523407,-1.6151733,0.09500122
1608,A,111556418763529,-8.372055,6.543701,1.373352,1.4052887,-0.22685242,-0.5223694
1608,A,111556438905130,-4.656723,9.470291,-1.6047516,0.78512573,0.199646,-0.90689087
1608,A,111556459046732,-2.3843231,11.949173,-1.0168762,0.28018188,0.20835876,-0.36291504
1608,A,111556479188334,0.35694885,10.285629,0.21028137,0.5949707,0.405838,-0.09359741
1608,A,111556499329935,1.2037354,7.295822,-0.76724243,-0.40766907,0.33735657,1.1241302
1608,A,111556519471537,0.9003601,5.639389,-0.5337219,-1.3139801,1.5450897,1.718689
1608,A,111556539613138,0.7812805,5.1773376,0.40086365,-1.9722595,-1.2839355,0.2657318
1608,A,111556559754740,2.1484222,7.016617,1.2419739,-1.6413269,-0.2854004,0.39100647
1608,A,111556579896341,2.1843872,8.760223,1.4733276,-1.8070374,1.7849884,0.49813843
1608,A,111556600037943,0.8656311,8.905884,-0.42684937,-0.053207397,1.8274689,0.001083374
1608,A,111556620179545,0.7173767,9.327667,-0.60124207,0.67422485,0.90771484,-0.05480957
1608,A,111556640321146,0.5055237,9.930618,0.7272644,-0.28347778,0.32780457,0.29753113
1608,A,111556660462748,-0.056350708,10.088837,0.14704895,-0.3092041,0.04220581,0.08453369
1608,A,111556680604349,0.3572693,9.5217285,-0.131073,-0.97351074,0.72442627,0.09375
1608,A,111556700745951,1.5083466,8.841537,0.99942017,0.12844849,-0.69018555,-0.3996277
1608,A,111556720887552,2.584259,10.063904,1.1236267,0.85102844,-0.7199249,-0.9267731
1608,A,111556741029154,2.000595,12.231583,-0.9858093,2.1651917,-0.48399353,-1.0318604
1608,A,111556761170755,-0.13516235,13.642868,-2.566513,1.5074158,-1.100296,0.08125305
1608,A,111556781312357,-1.6472931,14.865509,-4.9504395,0.6677551,-2.397232,0.34857178
1608,A,111556801453959,-2.6733093,14.157654,-5.851532,1.220871,-1.5538635,-0.25349426
1608,A,111556821595560,-3.5428772,13.394455,-5.056259,1.1142273,-0.44082642,-0.7055054
1608,A,111556841737162,-5.4265594,13.004349,-3.8183136,0.54660034,-0.0680542,-0.7241516
1608,A,111556861878763,-7.03891,14.018158,-1.0176697,0.43345642,0.19187927,-0.34674072
1608,A,111556882020365,-4.6253204,13.4232025,0.3731079,0.23355103,0.22047424,0.34207153
1608,A,111556902161966,-1.6216888,12.408157,0.6097412,-1.010376,0.42599487,1.5943451
1608,A,111556922303568,1.1233063,11.541931,0.5996704,-1.8581085,0.55726624,0.62786865
1608,A,111556942445170,1.8946381,10.61293,0.32800293,-2.2455292,-1.1202393,-0.14115906
1608,A,111556962586771,2.208725,10.027878,-1.4979706,-2.221527,1.1930847,0.56015015
1608,A,111556982728373,2.2030945,6.586914,2.9251862,-0.46870422,1.7609406,0.36961365
1608,A,111557002869974,-0.597229,4.42749,4.302429,0.3913269,1.4587402,0.112350464
1608,A,111557023011576,-1.3295898,5.509308,0.32302856,0.26545715,0.45014954,0.14007568
1608,A,111557043153177,-0.8701019,3.7445526,0.24482727,-0.458786,0.002090454,0.30473328
1608,A,111557063294779,-1.1975098,2.3774872,1.0956726,-0.5032501,0.96195984,-0.16053772
1608,A,111557083436380,-1.7591705,2.4709167,0.8377991,-0.6090088,-0.4234619,0.17433167
1608,A,111557103577982,-1.766983,3.4182434,1.4082031,0.381485,-0.29859924,-0.6690674
1608,A,111557123719584,-0.96517944,4.1728363,1.4649506,1.4058838,-0.49771118,-1.2806549
1608,A,111557143861185,-0.36636353,5.3065033,0.5713806,1.9524231,-0.13587952,-0.50601196
1608,A,111557164002787,-0.53878784,8.451767,2.693039,1.1758118,-0.9506073,0.38624573
1608,A,111557184144388,0.4299469,11.215469,6.540085,0.80078125,-1.6139679,0.4166565
1608,A,111557204285990,1.275116,15.824936,3.625473,1.3693237,-0.25326538,-0.23573303
1608,A,111557224427591,-0.2102356,13.61882,5.2687225,0.9285736,0.30204773,-0.7559662
1608,A,111557244569193,0.6385193,7.207062,7.3594055,0.36289978,0.23474121,-0.36483765
1608,A,111557264710795,1.4485474,6.6199493,4.7180786,0.6596832,0.4520874,-0.1602478
1608,A,111557284852396,-2.5147858,13.050705,-2.8040314,-0.06956482,0.3363037,1.1005402
1608,A,111557304993998,-1.1455536,19.208405,0.97117615,-1.2734833,0.76860046,1.495224
1608,A,111557325135599,-3.6476288,16.970078,1.9465332,-2.27536,-1.3922882,0.34654236
1608,A,111557345277201,-8.579895,7.8525543,1.4990387,-1.9669952,-0.39352417,-0.18864441
1608,A,111557365418802,-2.1393585,4.608261,0.2415924,-1.6738129,1.1158447,0.4096222
1608,A,111557385560404,3.9347534,5.9187317,-3.818634,-0.43571472,1.6552277,-0.059524536
1608,A,111557405702005,7.319809,8.004501,-2.0903625,0.3824005,1.3686371,-0.16645813
1608,A,111557425843607,4.554062,8.605408,-1.8749084,0.071014404,0.24867249,0.37324524
1608,A,111557445985209,-6.848831,8.087616,-2.8296204,-0.43240356,-0.13885498,0.10720825
1608,A,111557466126810,-12.314392,9.174683,-0.10533142,-1.1018829,0.73324585,-0.1158905
1608,A,111557486268412,-3.5115814,10.541733,0.16947937,-0.19496155,-0.48838806,-0.4282074
1608,A,111557506410013,-2.5016174,10.905975,-1.9900055,0.5182648,-0.9421997,-0.6137085
1608,A,111557526551615,-0.37532043,7.9435577,-1.3284912,1.6898499,-0.7833557,-1.6204681
1608,A,111557546693216,0.484787,5.49234,-0.04307556,1.7756958,0.08277893,-0.15917969
1608,A,111557566834818,0.6681824,5.1367493,0.81100464,1.2108002,-0.5212555,0.15052795
1608,A,111557586976420,2.844574,6.6845245,0.62654114,0.791275,-1.263092,0.19068909
1608,A,111557607118021,4.19635,8.728104,0.88594055,1.3126373,-0.28901672,-0.22601318
1608,A,111557627259623,2.2382507,8.670929,1.2156525,1.0070496,0.37835693,-0.77093506
1608,A,111557647401224,1.5797424,9.1241,0.93621826,0.26168823,-0.28749084,-0.32466125
1608,A,111557667542826,-0.012207031,9.9162445,0.0526886,0.6552887,0.7044983,0.037643433
1608,A,111557687684427,-0.006225586,9.892853,-0.22869873,-0.16699219,1.2363739,1.5094604
1608,A,111557707826029,0.98262024,9.679886,-0.2785492,-1.9842224,0.7537689,1.2791748
1608,A,111557727967630,0.46730042,9.12706,1.6188507,-2.04451,-2.1204987,0.16786194
1608,A,111557748109232,0.3068695,10.734283,1.4377747,-1.8248138,-0.020477295,0.21000671
1608,A,111557768250834,-0.9799042,12.455124,-1.3003998,-1.2730103,0.9409332,0.6749573
1608,A,111557788392435,-0.45199585,12.493042,-3.5883942,0.27368164,1.7108612,0.26759338
1608,A,111557808534037,-1.1087646,12.071045,-4.58902,0.5918579,0.90763855,-0.009307861
1608,A,111557828675638,-2.4687347,12.297745,-5.8307495,-0.34742737,0.17071533,0.2561798
1608,A,111557848817240,-4.937027,14.434448,-4.3517,-0.41212463,0.6472473,-0.113357544
1608,A,111557868958841,-6.4470825,17.911285,-1.5590363,-0.7885742,0.92637634,0.24589539
1608,A,111557889100443,-5.7048645,16.845322,-0.26713562,-0.05015564,-0.2587433,-0.50683594
1608,A,111557909242045,-2.8663788,14.505997,-1.0420074,0.74972534,-0.73439026,-0.95591736
1608,A,111557929383646,-0.026763916,12.592178,0.937973,1.8916168,-0.47062683,-1.4483643
1608,A,111557949525248,2.4512634,10.576569,2.528656,1.5218811,-0.88012695,0.33061218
1608,A,111557969666849,2.8922882,9.465988,0.676239,0.7266388,-2.5032806,0.5557556
1608,A,111557989808451,3.4371033,6.6017,-0.7004852,1.4239655,-1.1760559,-0.40602112
1608,A,111558009950052,1.7409515,2.044571,3.8414307,1.0912018,-0.1789856,-0.75112915
1608,A,111558030091654,-0.63235474,3.1237793,3.304657,0.3581848,-0.18101501,-0.69125366
1608,A,111558050233255,-0.7890625,4.0314026,0.8161316,0.47019958,0.4198761,-0.24557495
1608,A,111558070374857,-0.838974,2.3814697,0.64331055,0.26707458,0.77597046,1.0398865
1608,A,111558090516459,-1.0398102,1.782608,0.7872772,-0.97618103,1.1190796,1.806366
1608,A,111558110658060,-1.1286469,3.4611664,1.0000153,-2.1218262,-0.98716736,0.67658997
1608,A,111558130799662,-0.8863373,4.5016174,0.93400574,-1.9811401,-1.2179718,-0.11520386
1608,A,111558150941263,-1.1820068,7.3602295,0.98568726,-1.7954254,1.2280121,0.7276764
1608,A,111558171082865,0.18554688,11.534546,5.0642242,-0.44340515,1.7725983,0.07701111
1608,A,111558191224466,1.3299713,19.504288,5.0077972,0.5590973,1.1944733,-0.054885864
1608,A,111558211366068,-0.67082214,14.133072,7.0438538,0.15231323,0.5415497,0.182724
1608,A,111558231507670,2.0341644,7.1556854,7.4860687,-0.56729126,0.2716217,0.17681885
1608,A,111558251649271,3.6246796,5.558304,5.067276,-0.47833252,0.7989044,-0.117630005
1608,A,111558271790873,-0.28416443,12.566299,-1.6420135,-0.68429565,-0.5777283,-0.37487793
1608,A,111558291932474,-0.44950867,19.605515,1.6688385,0.61586,-1.2388153,-0.46488953
1608,A,111558312074076,-3.6186981,17.60913,3.6813812,1.4194031,-0.5447693,-1.5757751
1608,A,111558332215677,-9.487976,7.301895,1.5383606,1.6938934,-0.08963013,-0.23275757
1608,A,111558352357279,-4.271881,4.5371246,-0.5789032,0.9248657,-1.9117584,0.5099945
1608,A,111558372498880,2.3271027,6.536957,-3.1896362,0.96224976,-1.8923798,0.011978149
1608,A,111558392640482,6.2914124,7.9337616,-3.2986908,1.6669464,-0.25700378,-0.7027893
1608,A,111558412782084,3.8007965,8.296219,-1.7770691,0.64120483,-0.39100647,-0.9500122
1608,A,111558432923685,-5.588745,7.6489105,-1.7816315,0.21470642,-0.08294678,-0.28485107
1608,A,111558453065287,-13.211243,7.83815,-0.3959198,0.6485443,0.6717529,0.041900635
1608,A,111558473206888,-3.7887268,9.179825,-0.6278534,-0.32655334,0.6201477,1.3552551
1608,A,111558493348490,-3.137741,9.951019,-1.3882141,-1.3904419,1.1682739,1.3784637
1608,A,111558513490091,-0.6405182,9.457596,-0.44595337,-2.2528381,-1.462143,0.1829071
1608,A,111558533631693,1.4035797,7.27948,-0.38237,-1.9329376,0.04067993,0.050369263
1608,A,111558553773295,1.7149811,5.922577,0.48291016,-1.4984894,1.2155304,0.44622803
1608,A,111558573914896,1.7700806,5.8865356,1.345108,-0.004058838,1.8182373,-0.017196655
1608,A,111558594056498,3.1534271,7.2736664,0.60180664,0.49623108,1.0167999,-0.053527832
1608,A,111558614198099,2.8229523,8.769424,1.4463196,-0.4290924,0.21762085,0.36486816
1608,A,111558634339701,0.92051697,8.771744,0.5851898,-0.44636536,0.2501068,0.07192993
1608,A,111558654481302,1.0216217,9.265762,-0.48594666,-0.68447876,0.88305664,0.02557373
1608,A,111558674622904,0.6064453,10.027908,0.59358215,-0.10897827,-0.6685486,-0.28337097
1608,A,111558694764505,0.054275513,9.820435,0.064834595,0.781723,-0.9738617,-0.8018646
1608,A,111558714906107,1.5554047,9.535355,0.11607361,1.6990356,-0.26057434,-1.4938202
1608,A,111558735047709,1.3598175,9.253876,1.9002533,1.5762634,0.28341675,-0.007507324
1608,A,111558755189310,0.32330322,12.01738,0.67832947,0.9276428,-1.5571136,0.5498657
1608,A,111558775330912,-0.056488037,13.648392,-2.5794678,1.0447998,-1.2677917,-0.018600464
1608,A,111558795472513,-0.6953583,12.557266,-4.5642548,1.5900269,0.11264038,-0.66304016
1608,A,111558815614115,-1.1447906,12.726456,-5.7574005,0.4008789,-0.42800903,-0.75505066
1608,A,111558835755716,-2.7506561,13.77803,-4.448349,0.222229,-0.0700531,-0.16548157
1608,A,111558855897318,-5.757202,16.36168,-2.7717133,0.42811584,0.65293884,0.16400146
1608,A,111558876038920,-6.846283,17.552765,-0.3679657,-0.51335144,0.8889923,1.6195068
1608,A,111558896180521,-4.5234528,14.508438,-1.4685516,-1.9868469,0.74076843,1.2088013
1608,A,111558916322123,-1.0916138,12.561035,-0.57125854,-2.0978394,-1.7627869,0.10473633
1608,A,111558936463724,1.504364,11.2656555,1.3054047,-2.161026,0.8238373,0.5802002
1608,A,111558956605326,1.8027344,10.959198,0.85624695,-0.93289185,1.4818573,0.43174744
1608,A,111558976746927,2.3019867,8.71077,-0.29951477,0.20321655,1.9174042,-0.0071105957
1608,A,111558996888529,1.3484039,3.7326965,3.9773712,0.7019501,1.1571503,-0.10775757
1608,A,111559017030130,-0.53448486,4.4646454,0.98217773,-0.6257782,0.28599548,0.30056763
1608,A,111559037171732,-1.0002441,4.109253,-1.1898346,-0.24266052,0.54312134,0.046310425
1608,A,111559057313334,-0.95014954,1.9011841,0.054885864,-1.0108948,0.33236694,-0.07546997
1608,A,111559077454935,-1.490097,1.4076843,0.8838959,0.3189392,-0.8836212,-0.51498413
1608,A,111559097596537,-1.8042145,2.6002502,0.4241333,1.0036316,-0.72340393,-1.0675354
1608,A,111559117738138,-1.7563324,4.6976166,0.8459778,2.0853271,-0.3231964,-1.0966797
1608,A,111559137879740,-1.6150818,6.86351,0.22116089,1.4511871,-0.6147461,0.147995
1608,A,111559158021341,-1.7658234,11.166916,4.9934998,0.60765076,-2.2649689,0.4897461
1608,A,111559178162943,0.17529297,11.692734,5.8807526,1.5054779,-0.9628296,-0.41052246
1608,A,111559198304545,0.68977356,17.738556,4.120331,1.0761566,-0.2523346,-0.89334106
1608,A,111559218446146,0.30203247,10.611862,6.289398,0.36831665,0.02911377,-0.5354767
1608,A,111559238587748,1.2575531,6.714447,6.9152985,0.5655823,0.53685,-0.28477478
1608,A,111559258729349,-0.98864746,13.628342,1.0084839,-0.07766724,0.47099304,0.76493835
1608,A,111559278870951,-0.03642273,17.740204,1.3056946,-1.148407,1.1041565,1.754776
1608,A,111559299012552,-1.9349365,18.865295,0.4105835,-2.3631287,-0.3462677,0.71736145
1608,A,111559319154154,-8.5576935,11.199921,5.491501,-1.8937225,-0.59750366,-0.037979126
1608,A,111559339295755,-3.7728424,3.2370605,-0.171875,-1.8799438,2.1343536,0.6126709
1608,A,111559359437357,1.4376678,6.409897,-3.7304993,-0.34985352,2.0108185,0.33203125
1608,A,111559379578959,5.847931,7.9401093,-2.455536,0.4420929,1.0904694,0.29481506
1608,A,111559399720560,4.0027313,8.575836,-1.4189453,0.14944458,0.41662598,0.39601135
1608,A,111559419862162,-3.9199066,9.26033,-0.23861694,-0.37438965,0.18904114,0.23490906
1608,A,111559440003763,-12.722549,7.571274,2.7582855,-0.58703613,1.3008728,0.019577026
1608,A,111559460145365,-3.182663,8.0952,0.25967407,-0.2564087,-0.63612366,-0.15011597
1608,A,111559480286966,-2.8041534,8.842941,-2.3204193,0.63168335,-0.67297363,-0.6607971
1608,A,111559500428568,0.30433655,10.286942,-0.7999573,1.6201782,-0.74801636,-1.3587952
1608,A,111559520570170,0.61795044,7.3017426,0.040420532,1.8919067,-0.2514801,-0.44067383
1608,A,111559540711771,0.64886475,5.0842743,-0.24313354,0.72117615,-2.0493317,0.60147095
1608,A,111559560853373,0.29196167,4.777954,0.25517273,0.9412384,-1.7181702,-0.12310791
1608,A,111559580994974,1.0243378,6.807953,1.6654816,1.4081421,-0.3582611,-0.7802124
1608,A,111559601136576,2.0072174,8.818283,1.883728,0.6290436,0.0042266846,-0.86763
1608,A,111559621278177,0.5606842,9.249985,0.009063721,0.37799072,0.26341248,-0.31715393
1608,A,111559641419779,-0.3000946,10.142014,-1.2656708,0.4654541,0.32443237,0.26376343
1608,A,111559661561380,-0.29019165,10.196747,0.39964294,-0.7407379,0.8248749,1.6879425
1608,A,111559681702982,1.6419678,9.695663,1.3145905,-2.0483093,1.0272217,1.1382599
1608,A,111559701844584,2.7238617,8.166367,-0.07977295,-2.140808,-1.6317291,-0.045791626
1608,A,111559721986185,1.333847,9.0086975,0.8288269,-2.0409698,1.3171539,0.65571594
1608,A,111559742127787,-0.24420166,12.325241,0.7288208,-1.0074615,2.0871277,0.15748596
1608,A,111559762269388,0.12281799,13.287659,-3.4248505,0.30096436,1.6438751,0.112350464
1608,A,111559782410990,-1.3328247,12.585403,-6.096863,0.546402,0.755661,0.18804932
1608,A,111559802552591,-3.4917755,13.127899,-5.8736725,-0.44737244,0.049072266,0.40367126
1608,A,111559822694193,-4.6295013,17.024963,-4.949066,-0.031677246,0.1905365,-0.05795288
1608,A,111559842835795,-7.03685,19.481949,-2.2902832,-0.9568634,0.16963196,-0.083496094
1608,A,111559862977396,-5.857361,17.047073,-0.7219696,0.33605957,-0.8394165,-0.6387024
1608,A,111559883118998,-2.6831665,14.323196,-1.202179,1.1010132,-0.74954224,-1.0900879
1608,A,111559903260599,0.78440857,12.274887,0.49768066,1.9615021,-0.046081543,-0.8638611
1608,A,111559923402201,1.8438721,9.8602295,2.0006409,1.0924377,-1.1927948,0.21569824
1608,A,111559943543802,4.0118866,9.923157,0.5812683,0.6988678,-2.1979523,0.26255798
1608,A,111559963685404,4.9997864,5.6614685,2.2819061,1.6282959,-0.6836395,-0.61769104
1608,A,111559983827005,1.2635956,3.8618774,3.4247894,1.0627747,-0.12486267,-0.8858795
1608,A,111560003968607,-1.1936951,4.8982086,1.0943604,0.30223083,-0.3035431,-0.39353943
1608,A,111560024110209,-1.2776031,3.9029388,0.23751831,0.51034546,0.43962097,-0.07774353
1608,A,111560044251810,-1.314148,1.3400421,0.07778931,-0.043441772,0.88923645,1.2901001
1608,A,111560064393412,-0.9836731,0.3098755,0.23031616,-1.4670715,1.4291229,1.5481567
1608,A,111560084535013,-0.8541107,1.5394897,0.43852234,-2.1041412,-1.2628784,0.61875916
1608,A,111560104676615,-0.48062134,3.9289093,-0.83776855,-1.9810333,-0.7431793,0.14559937
1608,A,111560124818216,-0.99201965,7.808243,-1.3108215,-1.5723114,1.7682953,0.61958313
1608,A,111560144959818,-0.94844055,12.294556,8.233673,0.039978027,1.8984375,0.07041931
1608,A,111560165101420,-1.2801361,19.050934,6.855667,0.73439026,1.2123566,0.11431885
1608,A,111560185243021,-1.6966553,13.301193,5.2529144,-0.08602905,0.53656006,0.34172058
1608,A,111560205384623,1.5612793,7.134323,7.754959,-0.25424194,0.3007965,0.1492157
1608,A,111560225526224,-3.3199615,10.883728,-0.48469543,-0.9998169,0.70033264,0.038970947
1608,A,111560245667826,0.8926239,17.93364,4.688614,-0.33276367,-0.7054596,-0.51994324
1608,A,111560265809427,-1.1504974,19.523956,0.49845886,0.7985687,-0.8902283,-0.8364105
1608,A,111560285951029,-7.2941437,12.12645,4.575699,2.0724487,-0.40037537,-1.2144775
1608,A,111560306092630,-4.939636,3.7409058,1.2462616,1.3394012,-0.7688751,0.20606995
1608,A,111560326234232,0.020599365,6.3107758,-2.2401733,0.55677795,-2.226303,0.380188
1608,A,111560346375834,5.357254,8.185135,-3.6827545,1.338913,-1.4718628,-0.3474579
1608,A,111560366517435,5.147934,8.682556,-1.7989349,1.0264587,-0.7405548,-0.7889557
1608,A,111560386659037,-1.8880615,9.633347,-1.2372589,0.5029907,-0.28530884,-0.7727356
1608,A,111560406800638,-12.886475,6.8505554,-0.99368286,0.21159363,0.093933105,-0.37052917
1608,A,111560426942240,-5.669861,6.533386,0.5973358,0.3861084,0.31544495,0.29136658
1608,A,111560447083841,-4.320404,8.582825,-1.2363892,-0.5865021,0.64260864,1.7221527
1608,A,111560467225443,-0.59872437,10.7391205,-1.8105621,-1.875,0.38864136,1.1805725
1608,A,111560487367045,0.52182007,8.8294525,-0.13891602,-1.8368988,-1.396286,-0.010177612
1608,A,111560507508646,1.0267487,6.2563934,-0.4043274,-1.7953339,1.1590729,0.6808624
1608,A,111560527650248,0.9865265,5.383957,0.08256531,-0.8383484,2.0897522,0.018463135
1608,A,111560547791849,2.3703003,6.502594,0.67562866,0.49194336,1.7003479,-0.038116455
1608,A,111560567933451,3.8985138,8.511276,1.5420837,0.6205139,0.71069336,0.17304993
1608,A,111560588075052,2.0942383,8.895813,1.7011261,-0.6057434,0.06549072,0.29759216
1608,A,111560608216654,1.1159668,9.142227,-0.018096924,0.031021118,0.6777649,-0.20378113
1608,A,111560628358255,0.855011,9.638214,-0.12889099,-0.83818054,0.41796875,0.024902344
1608,A,111560648499857,-0.18513489,10.318283,-0.5600281,0.33450317,-0.656723,-0.38464355
1608,A,111560668641459,-0.09378052,9.72641,-0.5170288,0.86460876,-0.59135437,-0.8885193
1608,A,111560688783060,0.689209,8.586334,0.756958,1.9098969,-0.06930542,-1.2098083
1608,A,111560708924662,-0.32440186,9.013916,1.7055969,1.1277924,-1.2276459,0.25387573
1608,A,111560729066263,-0.67852783,12.047485,-0.19778442,0.67196655,-2.110489,0.3811798
1608,A,111560749207865,0.23757935,12.851486,-3.4347992,1.6712341,-0.6276245,-0.5039978
1608,A,111560769349466,0.010360718,11.296173,-4.976593,0.8451996,-0.5657196,-0.8088379
1608,A,111560789491068,-1.2940979,10.738632,-4.3621216,0.36817932,-0.36312866,-0.6088562
1608,A,111560809632670,-3.3749237,13.666977,-4.4142456,0.47473145,0.4079895,-0.08717346
1608,A,111560829774271,-5.7465973,18.155792,-3.086609,0.15280151,1.2489929,1.4912872
1608,A,111560849915873,-6.9418945,19.613052,0.3006134,-1.6608734,0.92263794,1.4606018
1608,A,111560870057474,-4.741211,17.23996,-0.7284241,-2.1537476,-1.7984009,0.3917389
1608,A,111560890199076,-1.2436981,13.133972,0.022262573,-2.193985,0.04248047,0.168396
1608,A,111560910340677,0.96958923,10.674545,3.847412,-1.0447845,1.2096558,0.5074463
1608,A,111560930482279,4.6985016,10.678436,0.8816376,0.35681152,1.742096,0.15034485
1608,A,111560950623880,5.4216003,7.2440186,-1.4953003,0.7198334,0.8419647,0.0027313232
1608,A,111560970765482,2.990799,3.0616302,0.75935364,-0.23120117,0.25328064,0.06681824
1608,A,111560990907084,0.022262573,1.9567108,2.0381927,-0.3761902,0.6682892,-0.08917236
1608,A,111561011048685,-1.7102051,2.3656616,0.35708618,0.25891113,0.89060974,-0.19090271
1608,A,111561031190287,-2.81839,1.4180908,0.55158997,-1.1595917,-0.09416199,-0.48146057
1608,A,111561051331888,-2.7298126,1.6221161,0.6348877,0.39241028,-0.6822052,-0.30769348
1608,A,111561071473490,-2.048462,3.024353,0.8062744,1.5140991,-0.21369934,-0.9353485
1608,A,111561091615091,-1.3209229,3.913498,-0.07748413,1.6445618,-0.053131104,-0.64868164
1608,A,111561111756693,-0.62623596,6.3030853,0.19779968,0.7114258,-2.611679,0.5651703
1608,A,111561131898295,0.53907776,9.4149475,4.7539063,1.2421265,-1.6141357,-0.19111633
1608,A,111561152039896,-0.61035156,18.232925,7.6045074,1.4729462,-0.29129028,-0.8708954
1608,A,111561172181498,-0.8805084,13.01329,5.5452423,0.49731445,-0.447464,-0.8417206
1608,A,111561192323099,2.9573364,6.6944733,8.369461,0.55444336,-0.035827637,-0.37191772
1608,A,111561212464701,0.78123474,7.895996,1.8260345,0.2904663,0.6112671,0.9147644
1608,A,111561232606302,0.50813293,14.645355,0.77293396,-0.95529175,1.5247803,2.08107
1608,A,111561252747904,-0.6465759,19.305145,-1.8281708,-2.1657257,-0.3826294,1.0287781
1608,A,111561272889505,-13.802643,18.494232,3.6221771,-1.9343109,-1.4010925,0.11343384
1608,A,111561293031107,-8.270462,6.3767395,3.838089,-1.8959656,2.0230865,0.8696289
1608,A,111561313172709,-0.2792511,6.387253,-2.8743134,-0.7750244,2.4842072,-0.21479797
1608,A,111561333314310,5.353134,7.393112,-4.7893066,0.7582245,1.5396423,-0.100128174
1608,A,111561353455912,6.3074493,7.9957123,-1.3170929,0.27990723,0.5127106,0.26394653
1608,A,111561373597513,0.52601624,6.150894,-3.5231628,-0.68566895,-0.032211304,0.16305542
1608,A,111561393739115,-8.751373,6.136215,0.008560181,-0.24757385,0.7454834,-0.15757751
1608,A,111561413880716,-8.633774,10.169907,1.3789063,-1.0289764,-0.6532593,-0.4300995
1608,A,111561434022318,-2.6665955,10.550415,-0.9629059,0.47198486,-1.1121216,-0.3877716
1608,A,111561454163920,-2.4487457,10.298019,0.4386902,1.6587677,-0.64823914,-1.5275879
1608,A,111561474305521,0.3640747,7.63501,-0.39891052,1.7688599,-0.10821533,-0.27235413
1608,A,111561494447123,2.0016327,5.8003845,-0.16491699,1.0033569,-1.8489532,0.29406738
1608,A,111561514588724,2.509613,5.569916,1.7681122,0.7908478,-1.779602,-0.04360962
1608,A,111561534730326,2.3894806,5.603897,-0.7236481,1.4015808,-0.41688538,-0.5857849
1608,A,111561554871927,3.0120544,8.162903,1.4745026,0.6614075,-0.14164734,-0.8861847
1608,A,111561575013529,0.30155945,8.93663,1.5068359,0.3310852,-0.028762817,-0.35273743
1608,A,111561595155130,0.09918213,9.416641,-0.9472046,0.66867065,0.63591003,0.0076904297
1608,A,111561615296732,0.4542389,10.389374,-0.34353638,-0.25379944,0.84532166,1.4660187
1608,A,111561635438334,0.23068237,9.91391,0.58921814,-1.7737885,1.176651,1.5277405
1608,A,111561655579935,0.50483704,9.462662,-0.1398468,-2.057373,-1.6837921,0.48461914
1608,A,111561675721537,0.33854675,8.85878,0.8392334,-1.8301544,-0.10095215,0.5662689
1608,A,111561695863138,-0.2896576,9.841309,1.7385712,-1.5548859,2.0658875,0.50219727
1608,A,111561716004740,0.45393372,12.724991,-0.7319641,0.29052734,2.261139,0.0040893555
1608,A,111561736146341,-0.37358093,13.163513,-4.184189,0.7927246,1.2882538,0.0058135986
1608,A,111561756287943,-1.4051666,11.7886505,-5.1449738,-0.32643127,0.11740112,0.43624878
1608,A,111561776429545,-3.463272,11.156448,-4.2376556,-0.17138672,0.4067688,0.17616272
1608,A,111561796571146,-3.3855743,13.853668,-3.1285553,-1.1694031,0.5939331,-0.21003723
1608,A,111561816712748,-4.6991577,18.09665,-1.4604034,0.023330688,-0.8542023,-0.46917725
1608,A,111561836854349,-5.4453583,17.93068,-0.9107971,0.75161743,-0.9074707,-0.97779846
1608,A,111561856995951,-3.080307,14.663544,-1.1387024,2.02359,-0.16517639,-1.0927124
1608,A,111561877137552,0.47050476,11.899506,0.9924011,1.25383,-0.8532715,-0.10116577
1608,A,111561897279154,2.4817047,9.935547,2.630188,0.64131165,-2.2388458,0.405838
1608,A,111561917420755,4.303955,10.084763,0.7452545,1.0683136,-1.1817627,-0.2952881
1608,A,111561937562357,3.2508392,7.8120728,-0.6520691,0.9640808,-0.48945618,-0.59310913
1608,A,111561957703959,-0.71003723,4.674103,1.7867584,0.77368164,0.0053863525,-0.8738098
1608,A,111561977845560,-2.1282349,5.411148,2.9549713,0.37657166,0.18496704,-0.3600006
1608,A,111561997987162,-2.0609894,5.295456,0.77360535,0.5724945,0.61302185,0.16517639
1608,A,111562018128763,-1.1643829,3.1184998,-0.9889984,-0.32902527,0.89572144,1.5486755
1608,A,111562038270365,-0.7921448,1.5097656,-0.8129425,-1.8304749,0.9484253,1.3171082
1608,A,111562058411966,-1.4811249,3.0154114,-0.43121338,-1.9515228,-1.3491516,0.23458862
1608,A,111562078553568,-2.741333,5.509018,-1.1301575,-1.7710419,0.64645386,0.3416748
1608,A,111562098695170,-2.1383362,7.4180145,4.8961487,-1.1260834,1.9819336,0.34300232
1608,A,111562118836771,-0.9108429,11.882278,4.7115784,0.21864319,1.9869537,0.066467285
1608,A,111562138978373,-0.13755798,12.791107,5.1223145,0.68681335,1.2608032,0.1504364
1608,A,111562159119974,1.5200043,9.702896,5.9921875,-0.18951416,0.25216675,0.45489502
1608,A,111562179261576,0.30473328,7.304535,2.7169037,-0.20721436,0.26963806,0.10223389
1608,A,111562199403177,-1.0779266,10.123886,-0.4152832,-0.8073578,0.7799988,-0.111968994
1608,A,111562219544779,2.5583038,18.155182,-3.731018,-0.1668396,-0.7688446,-0.5791321
1608,A,111562239686380,-7.7702026,19.613052,6.033478,0.8491974,-1.5028687,-0.66664124
1608,A,111562259827982,-7.038376,5.6315613,3.376175,1.8248596,-0.18913269,-1.4677277
1608,A,111562279969584,1.9029999,2.4689941,-6.205124,1.171402,-0.66070557,0.2539978
1608,A,111562300111185,3.8860626,3.450058,-2.8085632,0.5529022,-2.6052094,0.43600464
1608,A,111562320252787,2.6523895,5.232727,-0.4864807,1.2655029,-1.3269653,-0.41403198
1608,A,111562340394388,0.093063354,8.475983,-0.15293884,1.2532501,-0.25828552,-0.7563019
1608,A,111562360535990,-11.515289,12.220261,5.297531,0.5653839,-0.19692993,-0.8444061
1608,A,111562380677591,-5.1401215,13.389542,-4.7888184,0.3678894,0.02709961,-0.3282776
1608,A,111562400819193,1.1538391,10.607468,0.24829102,0.438385,0.61505127,0.5166931
1608,A,111562420960795,0.092422485,7.630066,1.6799164,-0.43367004,1.1815033,1.8520508
1608,A,111562441102396,1.2455139,5.3836823,-0.51478577,-2.2165985,0.3213501,1.1338959
1608,A,111562461243998,0.5582733,4.350891,0.20628357,-2.108551,-1.5751343,0.07800293
1608,A,111562481385599,-0.9004822,6.683029,-0.9485779,-1.9478455,1.3208771,0.7829132
1608,A,111562501527201,0.0118255615,9.823761,0.20750427,-0.7109375,2.1124268,0.1894226
1608,A,111562521668802,1.133728,11.909363,1.7740631,0.31892395,2.0743408,-0.045837402
1608,A,111562541810404,1.2259827,10.164169,-0.21107483,0.64053345,0.87538147,0.158844
1608,A,111562561952005,0.18659973,9.258911,-0.21652222,-0.52827454,-0.10475159,0.24559021
1608,A,111562582093607,0.15438843,8.673035,1.1418152,-0.08035278,0.49176025,-0.112838745
1608,A,111562602235209,1.2561951,8.96048,1.6347504,-1.1304169,0.28579712,-0.11431885
1608,A,111562622376810,0.12966919,10.110016,-0.009246826,0.35594177,-1.0782013,-0.4759369
1608,A,111562642518412,-0.1999054,11.090561,0.049942017,1.1096344,-0.955246,-1.0860596
1608,A,111562662660013,-0.69932556,12.401215,-1.2447815,1.9567871,-0.1040802,-1.1243286
1608,A,111562682805285,-2.0496368,14.023178,-3.463974,1.003418,-1.315628,0.24143982
1608,A,111562702946886,-5.221237,15.022034,0.53704834,0.5504608,-2.7732391,0.3668518
1608,A,111562723088488,-5.442032,12.95845,2.759491,1.538681,-1.0783386,-0.53038025
1608,A,111562743230090,-1.7743073,12.125229,2.71492,0.9361725,-0.4283142,-0.90167236
1608,A,111562763371691,0.9610748,12.584702,1.7357941,0.4626007,-0.0031433105,-0.64424133
1608,A,111562783513293,1.5236816,10.598358,0.028305054,0.48457336,0.37104797,-0.35113525
1608,A,111562803654894,2.1509552,7.3518677,1.3416595,0.080841064,0.15419006,0.59191895
1608,A,111562823796496,1.6419983,5.198288,4.4025116,-0.7599335,1.1421661,1.8446198
1608,A,111562843938097,-0.58740234,4.4415894,3.1954346,-2.1852875,0.007446289,0.90049744
1608,A,111562864079699,-0.40368652,3.720398,1.2612152,-1.8649597,-1.0623016,0.03868103
1608,A,111562884221300,-0.14263916,3.0895538,1.3092651,-1.7787781,2.1950684,0.80625916
1608,A,111562904362902,-0.5836334,3.2178345,1.1873474,-0.9430542,2.6709137,0.10147095
1608,A,111562924504504,-1.3938141,3.554779,1.0314941,0.6626282,1.6087036,0.05781555
1608,A,111562944646105,-1.6819458,4.665863,1.2658386,0.34169006,0.58140564,0.34788513
1608,A,111562964787707,-1.3253021,5.7516174,1.595047,-0.36079407,0.028686523,0.29647827
1608,A,111562984929308,-1.1779175,7.034546,2.6081696,-0.25550842,0.81962585,-0.04446411
1608,A,111563005070910,-1.5435638,9.80838,4.8025208,-0.55448914,-0.47535706,0.09812927
1608,A,111563025212511,-1.3055267,12.686584,6.1699677,0.39675903,-0.2682495,-0.4169464
1608,A,111563045354113,-0.6543274,11.875885,4.021469,1.4328613,-0.57777405,-1.2229309
1608,A,111563065495715,-0.31088257,8.724426,4.298004,1.7527466,-0.15254211,-0.5950928
1608,A,111563085637316,0.9699402,5.9024963,5.522232,0.8422394,-1.943573,0.4859619
1608,A,111563105778918,-2.0142822,9.213104,-0.9931946,1.0118408,-1.8316345,-0.062454224
1608,A,111563125920519,-6.506546,17.016449,-0.43385315,1.4696808,-0.61235046,-0.7209015
1608,A,111563146062121,-5.246826,19.613052,6.550049,0.61976624,-0.49084473,-0.9532013
1608,A,111563166203722,-5.7614746,6.9785004,3.2326965,0.26472473,-0.036758423,-0.41601563
1608,A,111563186345324,-3.3463287,3.0772247,-5.65683,0.5847473,0.5157318,-0.009140015
1608,A,111563206486925,3.4288177,3.5918274,-2.0414734,-0.25280762,0.7123871,1.46521
1608,A,111563226628527,7.9173126,9.703903,1.5583954,-1.8586731,0.954422,1.5539703
1608,A,111563246770129,4.075531,15.610992,-1.1889038,-1.9558868,-1.427414,0.3731079
1608,A,111563266911730,-14.855438,12.096008,1.7212372,-1.7561188,0.38397217,0.6112976
1608,A,111563287053332,-5.657089,9.560364,-2.376007,-1.4641724,2.5983734,0.37921143
1608,A,111563307194933,-4.1299133,8.35321,-3.6109009,0.22337341,2.221939,0.00982666
1608,A,111563327336535,-3.3925323,7.5395813,1.0153046,0.7639618,1.2271423,0.040115356
1608,A,111563347478136,-0.96409607,6.2635956,-0.7879181,-0.28390503,0.27618408,0.30108643
1608,A,111563367619738,1.6231384,5.950012,-0.47183228,-0.137146,0.30355835,0.21496582
1608,A,111563387761340,1.7671051,4.611511,-0.7871704,-1.1903381,0.7722168,0.055541992
1608,A,111563407902941,1.5714569,4.183731,-0.045669556,0.112075806,-0.7371216,-0.72032166
1608,A,111563428044543,2.1959686,6.8199005,4.007004,1.0078125,-0.99116516,-0.91156006
1608,A,111563448186144,1.1110077,10.488068,-0.36566162,1.925415,-0.5056915,-1.3779144
1608,A,111563468327746,0.77841187,10.210312,-1.007904,1.2554474,-0.9957733,0.5230408
1608,A,111563488469347,0.7688141,9.90596,0.5770416,0.6264343,-2.6608124,0.65042114
1608,A,111563508610949,2.43898,9.65303,1.7228241,1.4082336,-0.91908264,-0.4942932
1608,A,111563528752550,3.1122131,9.74295,2.6759949,1.1014557,-0.09408569,-0.91152954
1608,A,111563548894152,1.6821289,10.71434,2.9649048,0.34417725,-0.4139557,-0.5874939
1608,A,111563569035754,2.1995544,11.567459,-0.18746948,0.4559021,0.33450317,-0.22453308
1608,A,111563589177355,2.8460388,15.077179,-5.1204987,0.3138733,0.8762512,1.077713
1608,A,111563609318957,-1.2452545,11.667618,-8.808914,-1.0786743,1.1120911,1.6938629
1608,A,111563629460558,-5.897278,11.087631,-6.487564,-2.107727,-1.0800781,0.83898926
1608,A,111563649602160,-4.446701,15.205612,-3.747757,-2.165863,-1.1459045,-0.16186523
1608,A,111563669743761,-7.0857086,19.613052,-4.0694275,-1.8493805,1.5118713,0.4752655
1608,A,111563689885363,-7.779114,18.707947,-1.5213776,-0.20124817,1.795929,-0.12832642
1608,A,111563710026965,-3.4517365,14.889755,0.5296936,0.79067993,1.227356,-0.06478882
1608,A,111563730168566,-0.118881226,10.987656,1.5694885,0.26976013,0.6363678,0.25862122
1608,A,111563750310168,3.9705963,9.926743,2.7509918,-0.90104675,0.15393066,0.1695404
1608,A,111563770451769,8.640244,11.282074,-4.6798553,0.18199158,0.5986481,-0.014633179
1608,A,111563790593371,3.4645386,4.5102844,-4.7249603,-1.0160675,-0.2653656,-0.3959198
1608,A,111563810734972,-1.2077484,0.5484619,-0.17192078,0.49786377,-1.368988,-0.8470001
1608,A,111563830876574,-2.3251953,0.24357605,3.7605896,1.6657715,-0.9520874,-1.1233826
1608,A,111563851018175,-3.1658325,2.9519348,-1.0666809,1.6860046,0.18414307,-0.2625122
1608,A,111563871159777,-3.16951,3.603714,0.5405731,0.93118286,-1.484909,0.17971802
1608,A,111563891301379,-2.9632416,3.9933624,1.2612915,0.6665802,-2.6567383,0.12580872
1608,A,111563911442980,-2.2310944,5.020035,1.1769867,1.5943451,-0.6651001,-0.7581024
1608,A,111563931584582,-1.6908722,6.342819,1.7058411,0.88002014,-0.17330933,-0.9944153
1608,A,111563951726183,-1.0722961,7.990814,4.5390472,0.2932129,-0.008682251,-0.48338318
1608,A,111563971867785,1.3638611,9.797897,7.182724,0.5622101,0.452713,0.12652588
1608,A,111563992009386,3.4412842,11.73645,5.6612244,-0.33432007,0.63760376,1.4163666
1608,A,111564012150988,2.951233,10.7634735,5.1616974,-1.7988434,0.7501526,1.6123962
1608,A,111564032292590,-0.2026062,12.6944275,1.677063,-1.999466,-1.3566284,0.56588745
1608,A,111564052434191,-1.284317,17.908905,2.0304413,-1.8881073,0.11003113,0.42733765
1608,A,111564072575793,-3.860855,19.613052,5.5666504,-1.4390564,2.2134552,0.5639801
1608,A,111564092717394,-7.2942963,10.992737,3.4070892,-0.028366089,2.2824707,-0.06385803
1608,A,111564112858996,-6.6638336,5.6688995,-0.24783325,0.76026917,1.302597,-0.041931152
1608,A,111564133000597,-1.2380676,7.6604614,-0.7106323,-0.17190552,0.138443,0.43789673
1608,A,111564153142199,5.0629883,9.100876,-1.3248138,-0.28070068,0.2534485,0.034469604
1608,A,111564173283800,5.130554,10.365616,-3.1727295,-0.90219116,0.8123474,-0.179245
1608,A,111564193425402,-0.9277649,9.8155365,-0.5227661,-0.20014954,-0.9584198,-0.31880188
1608,A,111564213567004,-4.751816,6.6660156,3.2730408,0.72354126,-0.8137207,-0.65267944
1608,A,111564233708605,-2.6302032,7.281601,1.4629669,1.721756,-0.025421143,-1.3953094
1608,A,111564253850207,-2.6082764,8.799744,0.29278564,1.3954315,-0.49406433,-0.04510498
1608,A,111564273991808,-3.2317657,9.982559,-0.12251282,0.558609,-2.3710175,0.44180298
1608,A,111564294133410,-1.519577,8.876038,0.5602875,1.2339325,-1.4152222,-0.39646912
1608,A,111564314275011,-1.1533966,6.9680786,0.26004028,1.280777,-0.40242004,-0.8078766
1608,A,111564334416613,-0.6572876,5.8987427,-0.00819397,0.6198273,-0.22329712,-0.8538513
1608,A,111564354558215,0.29901123,6.444824,-0.02128601,0.3846588,0.2376709,-0.29206848
1608,A,111564374699816,1.3890228,7.542633,0.34402466,0.5216675,0.796402,0.5728607
1608,A,111564394841418,1.9730682,7.310608,0.7140808,-0.39004517,1.0819397,1.7195587
1608,A,111564414983019,1.4273834,7.5173492,1.2004395,-2.256897,0.10618591,1.3089447
1608,A,111564435124621,0.48146057,9.940079,1.0872498,-2.008606,-1.5159302,0.19892883
1608,A,111564455266222,0.002822876,10.785095,-2.3045654,-1.7716827,0.9995117,0.6157074
1608,A,111564475407824,0.31259155,10.377853,0.6006012,-1.0650177,2.244522,0.33529663
1608,A,111564495549425,1.0184784,10.272583,0.4663849,0.22549438,2.1334991,-0.066726685
1608,A,111564515691027,2.5833282,9.694046,0.43441772,0.92388916,1.10466,0.048217773
1608,A,111564535832629,2.126236,9.117798,0.8329315,-0.33706665,-0.26200867,0.50668335
1608,A,111564555974230,1.2878723,13.68782,-2.7767487,0.0061950684,0.4602661,-0.020217896
1608,A,111564576115832,-1.7238464,12.425827,-2.7906036,-0.80532837,0.54927063,-0.2137909
1608,A,111564596257433,-2.195816,12.274536,-6.356781,0.13734436,-0.71292114,-0.6068115
1608,A,111564616399035,-3.7541046,11.319962,-5.1134033,1.194046,-1.2556915,-0.68429565
1608,A,111564636540636,-4.2682037,12.882156,-4.5948486,1.6896057,-0.1499939,-1.2232208
1608,A,111564656682238,-5.1633453,16.41626,-2.006485,1.0843048,-0.9850464,0.3131256
1608,A,111564676823840,-6.518097,17.701462,0.56477356,0.530365,-3.0046387,0.5409241
1608,A,111564696965441,-3.6625214,14.441711,0.2111206,1.576828,-1.1006317,-0.60672
1608,A,111564717107043,-1.822403,12.512939,-0.70303345,1.064209,-0.45213318,-1.0010223
1608,A,111564737248644,1.1390076,10.353485,3.0366974,0.45083618,-0.35012817,-0.67715454
1608,A,111564757390246,2.2026367,9.225281,2.0162354,0.45962524,0.20472717,-0.2756195
1608,A,111564777531847,3.5809479,9.1948395,-1.5777588,0.113845825,0.40873718,0.8083496
1608,A,111564797673449,1.7133179,5.907715,-0.85224915,-1.0144958,1.3735657,1.9133606
1608,A,111564817815050,-0.78201294,3.983963,2.3012695,-2.1168518,-0.25331116,0.7684021
1608,A,111564837956652,-0.67671204,3.5270538,4.1875916,-2.0342407,-1.1352692,0.01889038
1608,A,111564858098254,-0.803421,4.094101,-0.15263367,-1.882721,2.1829376,0.66641235
1608,A,111564878239855,-1.0065765,2.5128632,-0.36203003,-0.37216187,2.5265808,-0.026382446
1608,A,111564898381457,-1.2681885,2.3407135,0.27650452,0.8014679,1.4916229,-0.039123535
1608,A,111564918523058,-1.2301636,4.0436707,0.71517944,-0.21864319,0.48509216,0.26330566
1608,A,111564938664660,-1.1176147,6.2361145,0.37599182,-0.43486023,0.5126343,0.21124268
1608,A,111564958806261,-1.3223877,9.553329,3.589676,-0.36401367,0.7042084,-0.14227295
1608,A,111564978947863,-0.71728516,12.996902,6.523819,-0.72398376,-0.5480499,-0.45663452
1608,A,111564999089465,0.3973999,14.274399,4.035782,0.88264465,-1.2826385,-0.46315002
1608,A,111565019231066,1.8005066,12.191727,6.0127716,2.0272827,-0.3277588,-1.4314728
1608,A,111565039372668,1.2571716,9.140564,5.0962524,1.4203033,-0.41792297,0.08517456
1608,A,111565059514269,0.40579224,12.691116,3.8631744,0.74057007,-2.0428162,0.4008789
1608,A,111565079655871,0.38694763,18.1391,2.7018738,1.0562592,-1.8848724,-0.024520874
1608,A,111565099797472,-4.34227,18.757294,1.8632355,1.5275879,-0.25239563,-0.61795044
1608,A,111565119939074,-6.969345,10.862274,3.867157,0.59632874,-0.1703186,-0.93377686
1608,A,111565140080675,-4.502121,4.574997,0.9772644,0.2267456,-0.01121521,-0.3566742
1608,A,111565160222277,1.3178864,5.727524,-3.4181519,0.66101074,0.55937195,0.16673279
1608,A,111565180363879,5.763382,7.0250854,-1.9756775,-0.5981903,0.5052643,1.4338379
1608,A,111565200505480,4.4147186,7.3022156,-3.020874,-1.8343964,1.09729,1.522995
1608,A,111565220647082,-1.4955597,9.593582,-1.5558472,-2.0748901,-1.4054108,0.2936554
1608,A,111565240788683,-10.890381,8.873581,2.5784912,-1.966919,0.12428284,0.4976349
1608,A,111565260930285,-6.228119,7.8959656,1.5153503,-1.5024261,2.1470337,0.34327698
1608,A,111565281071886,-1.988739,8.776596,-2.6450958,0.22665405,2.0182343,-0.077178955
1608,A,111565301213488,-0.45802307,8.938065,-0.18951416,0.84313965,1.0881348,-0.01574707
1608,A,111565321355090,0.6495209,7.212723,0.3202362,-0.46350098,0.123291016,0.45310974
1608,A,111565341496691,0.32746887,6.1022034,-0.62205505,-0.14274597,0.40652466,0.068359375
1608,A,111565361638293,-0.07078552,6.3743134,0.375412,-0.98072815,0.6927948,0.08268738
1608,A,111565381779894,1.4855652,7.779892,0.96847534,0.02029419,-0.7772827,-0.6710968
1608,A,111565401921496,2.2230225,9.260223,1.8381042,1.0840302,-0.81095886,-0.8742523
1608,A,111565422063097,0.97584534,8.730621,-0.05958557,2.0233612,0.03756714,-1.1617584
1608,A,111565442204699,-0.19487,9.750366,-1.1279907,1.1827087,-1.1517639,0.26583862
1608,A,111565462346300,0.15698242,10.670593,-1.7087097,0.6939392,-2.3143616,0.38079834
1608,A,111565482487902,1.4759521,10.770569,1.4390564,1.6249847,-1.0363159,-0.5458374
1608,A,111565502629504,3.0398712,9.815598,-0.91656494,1.0093079,-0.6257324,-0.9307251
1608,A,111565522771105,1.6039124,9.2885895,0.95285034,0.3759308,-0.17831421,-0.65385437
1608,A,111565542912707,0.27404785,12.179779,1.1673431,0.593277,0.5057831,-0.37197876
1608,A,111565563054308,-3.6296844,13.900421,-4.859268,0.15768433,0.7978821,0.9831848
1608,A,111565583195910,-0.8610077,11.829834,-5.3952026,-0.87553406,1.6171417,1.8092804
1608,A,111565603337511,-3.6160736,10.480835,-5.9752197,-2.3471527,-0.421875,0.7716217
1608,A,111565623479113,-3.8510284,11.145981,-6.4879,-2.226593,-1.0825348,-0.055603027
1608,A,111565643620715,-5.5226135,14.545151,-4.325348,-1.960434,1.9057007,0.8701935
1608,A,111565663762316,-9.441666,18.943024,0.24417114,-0.31518555,2.0239105,0.13645935
1608,A,111565683903918,-6.751236,16.941467,0.3180542,0.6620331,1.4304352,0.013748169
1608,A,111565704045519,-3.8555756,14.99144,-1.9285278,0.28871155,0.63690186,0.23873901
1608,A,111565724187121,-0.56907654,11.066284,1.0653534,-0.5632782,0.049743652,0.29751587
1608,A,111565744328722,0.78692627,8.555374,3.6927643,-0.32225037,0.99113464,-0.116485596
1608,A,111565764470324,4.526779,9.408096,-1.8969879,-0.61309814,-0.6270752,-0.051467896
1608,A,111565784611925,4.5967407,5.7174377,-0.072265625,0.73864746,-0.82847595,-0.59317017
1608,A,111565804753527,1.0547943,1.8131104,7.6185303,1.7785492,-0.35266113,-1.5778046
1608,A,111565824895129,0.16447449,4.639908,1.6474457,1.6223755,-0.16445923,-0.2992401
1608,A,111565845036730,0.2250061,3.1229095,1.0740509,0.7815857,-2.008728,0.54086304
1608,A,111565865178332,-0.26863098,1.596283,1.8066101,1.0759735,-1.904953,-0.11869812
1608,A,111565885319933,-0.6374359,2.4031677,1.4687958,1.5604401,-0.40245056,-0.80511475
1608,A,111565905461535,-0.4745636,3.646515,1.1903381,0.5720825,-0.2576294,-0.8759308
1608,A,111565925603136,-0.46772766,5.050644,0.64508057,0.2379303,0.19554138,-0.27487183
1608,A,111565945744738,-0.8052063,6.9374237,1.7905121,0.45281982,0.6057434,0.40202332
1608,A,111565965886340,0.1869812,9.852753,5.6054993,-0.63926697,0.88171387,1.7871399
1608,A,111565986027941,0.9227905,14.538254,5.7032013,-2.095749,0.566391,1.1414337
1608,A,111566006169543,-0.34934998,15.405441,6.3295746,-2.001999,-1.6098328,0.1563263
1608,A,111566026311144,-2.6194916,13.200851,4.203644,-1.9739838,1.254715,0.87739563
1608,A,111566046452746,-2.7350006,18.39125,3.2488098,-1.0337219,1.9832611,0.042312622
1608,A,111566066594347,-3.0844727,19.610077,1.8488159,0.43092346,1.644867,-0.1645813
1608,A,111566086735949,-6.625717,10.112198,3.988861,0.7019501,0.4889679,0.092803955
1608,A,111566106877550,-7.3040924,1.2530212,0.8474121,-0.6939392,0.13848877,0.14613342
1608,A,111566127019152,-1.8599548,4.173004,-2.6050568,-0.05996704,0.63708496,-0.17396545
1608,A,111566147160754,7.0568085,6.9211884,-0.7248993,-1.2137756,-0.23425293,-0.093826294
1608,A,111566167302355,8.560013,8.753281,-3.0091705,0.5457916,-0.9969177,-0.46427917
1608,A,111566187443957,1.2537537,11.863251,-2.4471588,1.2420349,-0.35868835,-1.4965363
1608,A,111566207585558,-8.370941,9.771896,2.8138275,2.0391846,0.11500549,-0.48301697
1608,A,111566227727160,-7.4293365,6.349106,3.0637207,1.0060883,-1.5598755,0.42878723
1608,A,111566247868761,-3.48703,6.966629,-0.43321228,0.8765106,-1.8981476,0.02810669
1608,A,111566268010363,-2.5964203,8.95047,-1.32164,1.7380371,-0.1542511,-0.7689972
1608,A,111566288151965,-1.3467865,8.804398,-0.22398376,0.554657,-0.20896912,-0.86790466
1608,A,111566308293566,-0.22537231,7.008606,-0.2707367,0.2386322,-0.0037231445,-0.35054016
1608,A,111566328435168,-0.085998535,5.098572,0.2038269,0.5210724,0.4988556,0.17388916
1608,A,111566348576769,0.53163147,5.412735,0.90802,-0.9689331,0.73651123,1.6915131
1608,A,111566368718371,2.0048676,7.999878,1.2217102,-1.844162,1.4179382,1.5332642
1608,A,111566388859972,2.9561462,8.953796,2.0240936,-2.0964813,-1.3735657,0.27256775
1608,A,111566409001574,2.1384735,8.128098,0.8509979,-1.8681946,1.1125946,0.89738464
1608,A,111566429143175,-0.43177795,9.023895,-1.5654144,-1.2234192,2.4981384,0.19476318
1608,A,111566449284777,-0.71987915,9.826553,-1.8795319,0.6088562,2.0678253,-0.015197754
1608,A,111566469426379,0.5974426,10.098907,0.6000824,0.4092865,0.84968567,0.20275879
1608,A,111566489567980,3.3643036,9.019058,-0.5315857,-0.6274872,0.14019775,0.48114014
1608,A,111566509709582,1.7977142,8.576935,1.1831512,-0.3276062,0.5740814,-0.28285217
1608,A,111566529851183,0.45480347,11.99115,1.7884979,-0.66238403,-0.36349487,-0.1402893
1608,A,111566549992785,-1.7512054,14.963989,-3.9276886,0.520874,-0.84983826,-0.43714905
1608,A,111566570134386,0.23977661,13.296738,-6.3362274,1.3941803,-0.6282196,-1.4028625
1608,A,111566590275988,-2.9354858,11.070084,-5.537369,1.9603271,0.15911865,-0.44837952
1608,A,111566610417590,-3.021515,11.706802,-6.1651306,0.9895935,-1.3851776,0.2614746
1608,A,111566630559191,-4.608795,13.667404,-5.1864014,0.7588196,-2.1371307,0.30366516
1608,A,111566650700793,-8.435135,19.345993,-0.7476196,1.5504761,-0.6311798,-0.41111755
1608,A,111566670842394,-6.4290924,18.046173,1.9310455,0.8827667,-0.23025513,-0.8057556
1608,A,111566690983996,-3.4245453,15.176758,-2.617157,0.3672638,0.05833435,-0.4875641
1608,A,111566711125597,-0.64907837,12.119354,0.29348755,0.5748596,0.30456543,-0.14900208
1608,A,111566731267199,1.8306732,8.709534,2.892273,-0.0034637451,0.60687256,1.251358
1608,A,111566751408800,2.5293884,8.6640625,0.3804016,-1.2259827,1.4015808,1.6506653
1608,A,111566771550402,5.204773,6.9843903,-1.5840759,-2.1696625,-1.2552948,0.5401306
1608,A,111566791692004,2.726883,2.0853271,5.117111,-2.2545166,-0.5235901,-0.15344238
1608,A,111566811833605,-0.81840515,2.745407,1.3194275,-1.5911407,1.621994,0.30804443
1608,A,111566831975207,-1.4970093,3.0908813,-0.2502594,-0.114151,1.6925354,-0.1068573
1608,A,111566852116808,-1.7443085,1.8465576,1.0140533,0.67559814,0.9506836,0.032485962
1608,A,111566872258410,-1.8459625,1.900589,0.84802246,0.043273926,-0.1473999,0.44360352
1608,A,111566892400011,-1.4810028,2.52771,0.78492737,-0.5431824,0.31452942,-0.091415405
1608,A,111566912541613,-1.3565216,4.7230835,-0.03440857,0.18688965,0.67962646,-0.2602539
1608,A,111566932683215,-1.9130859,7.865509,0.13754272,-1.0466766,-0.2554016,-0.19580078
1608,A,111566952824816,0.16285706,12.418747,6.0817413,0.48999023,-0.9958801,-0.5371399
1608,A,111566972966418,1.4179382,18.180222,7.2155914,1.4974518,-0.32087708,-1.0645905
1608,A,111566993108019,0.51724243,14.89093,7.551132,1.5610809,0.1253357,-0.43399048
1608,A,111567013249621,0.3176117,8.062271,5.169754,0.9264374,-1.7398987,0.40544128
1608,A,111567033391222,-1.4772339,12.512451,-0.35787964,0.8000488,-2.268692,0.082977295
1608,A,111567053532824,-0.9299469,18.71556,1.2763367,1.4601746,-0.53967285,-0.7629547
1608,A,111567073674425,-4.763489,16.590942,1.9546204,0.5580902,-0.6208801,-1.0254364
1608,A,111567093816027,-9.986359,8.716553,3.348175,0.2554779,-0.1703949,-0.40974426
1608,A,111567113957629,-3.600418,5.39032,-0.583313,0.5540161,0.9383545,0.3539276
1608,A,111567134099230,4.4395447,7.2824707,-3.4932861,-0.45388794,0.922348,1.6916809
1608,A,111567154240832,6.9812164,7.5260315,-3.9773865,-1.9234619,0.72810364,1.2152863
1608,A,111567174382433,2.8726501,7.4329987,-3.1069794,-2.1523895,-1.648407,0.20048523
1608,A,111567194524035,-5.759659,7.641678,-0.97761536,-2.016983,1.3331604,0.67015076
1608,A,111567214665636,-10.842285,7.034546,0.453125,-0.61026,1.8990784,0.20802307
1608,A,111567234807238,-6.45697,7.3094025,-0.6100464,0.19650269,1.8947296,-0.07789612
1608,A,111567254948840,-2.2330017,9.233948,-1.6125183,0.56729126,0.6802521,0.102996826
1608,A,111567275090441,0.40881348,9.974426,-0.122802734,-0.54733276,-0.51400757,0.3778839
1608,A,111567295232043,1.5320129,8.190521,-0.22769165,-0.007507324,0.36994934,-0.22236633
1608,A,111567315373644,1.5969238,5.7660065,0.32551575,-0.61621094,0.50086975,0.031723022
1608,A,111567335515246,1.5036926,4.972885,0.27938843,-0.343338,-0.9158478,-0.34150696
1608,A,111567355656847,3.0027008,7.484207,1.3820953,0.63830566,-0.90083313,-0.37576294
1608,A,111567375798449,2.2598877,9.229431,2.1328583,1.5222778,0.06452942,-1.2178955
1608,A,111567395940050,1.4466248,9.001831,0.05859375,1.6463165,-0.11512756,-0.24421692
1608,A,111567416081652,2.155777,9.6861725,-0.5656433,0.81269836,-2.0673523,0.5995178
1608,A,111567436223254,1.3023682,10.332977,0.48327637,0.24353027,-1.7662964,-0.41194153
1608,A,111567456364855,1.190155,10.070053,-0.61665344,1.083786,-0.52378845,-0.7767639
1608,A,111567476506457,1.2733765,9.118103,0.72340393,0.65382385,-0.55877686,-0.66586304
1608,A,111567496648058,1.6549225,10.08606,2.411255,0.3783722,-0.61231995,-0.18824768
1608,A,111567516789660,-0.52111816,13.856369,-1.1811676,0.51852417,-0.19395447,0.32118225
1608,A,111567536931261,0.74739075,14.033203,-5.1141663,0.1966095,0.63635254,1.4510345
1608,A,111567557072863,-2.0381165,12.169601,-6.731674,-1.4767914,0.2749939,1.4204254
1608,A,111567577214465,-1.9628601,11.728973,-6.8020477,-1.7306366,-1.605072,0.27915955
1608,A,111567597356066,-3.951645,14.350632,-4.8868713,-1.8155212,-0.37649536,0.25004578
1608,A,111567617497668,-7.5799255,18.621902,-2.8259735,-0.9698944,-0.16633606,0.58436584
1608,A,111567637639269,-6.5274353,16.70111,1.2777557,0.112075806,0.7889099,0.04852295
1608,A,111567657780871,-2.947113,15.334488,-2.8625488,0.6141052,1.171814,-0.19345093
1608,A,111567677922472,-0.43162537,13.093796,0.41539,-0.046157837,0.61901855,0.2938385
1608,A,111567698064074,2.3008423,10.227646,2.5662537,-0.021759033,0.3366394,0.3159027
1608,A,111567718205675,2.806427,9.89502,1.3218384,-0.9915314,1.0937805,0.20957947
1608,A,111567738347277,5.246399,7.929901,-1.5866699,-0.3737793,-0.3592224,-0.4192047
1608,A,111567758488879,2.1851196,1.750946,6.5883636,0.5391388,-0.7832184,-0.90979004
1608,A,111567778630480,-1.1071167,3.8866272,1.3544312,1.6143341,1.0796967,-0.6964264
1608,A,111567798772082,-1.5348358,4.6101837,-0.57380676,1.3646698,-0.81962585,-0.14575195
1608,A,111567818913683,-1.4559326,2.6553955,0.49583435,0.77571106,-2.1961975,0.16426086
1608,A,111567839055285,-1.2979431,2.1078644,0.117996216,1.7923584,-1.7947845,-0.6958618
1608,A,111567859196886,-1.6478577,1.8855591,0.82232666,1.1208191,-0.70007324,-0.8196106
1608,A,111567879338488,-1.0599976,3.4285583,1.6459198,0.8715515,-0.25196838,-1.0716248
1608,A,111567899480090,-0.9344635,5.1552734,0.8236389,0.31143188,-0.3070984,-0.47184753
1608,A,111567919621691,-1.5589905,8.470947,3.0753174,0.3101349,-0.06925964,0.28321838
1608,A,111567939763293,0.24395752,11.386932,6.965149,-0.22787476,1.1691437,1.8025513
1608,A,111567959904894,2.361023,17.260635,3.8324127,-1.7255859,1.3000183,1.1681976
1608,A,111567980046496,1.0012054,13.950836,6.1143036,-2.2611847,-1.1623535,0.39956665
1608,A,111568000188097,0.6007843,11.129883,6.0453644,-2.0895386,1.1208954,0.5059204
1608,A,111568020329699,0.451828,17.307358,2.7801971,-0.71710205,1.9123383,0.45869446
1608,A,111568040471300,-2.961792,19.613052,-0.032852173,-0.12918091,1.4982605,0.41830444
1608,A,111568060612902,-6.970215,15.468094,4.147232,-0.11242676,0.06692505,0.0713501
1608,A,111568080754504,-6.745575,5.951599,3.4973602,0.12658691,0.7976227,0.11987305
1608,A,111568100896105,-2.1839905,5.486328,-1.6802673,0.18928528,0.30386353,0.16609192
1608,A,111568121037707,3.854599,7.0034027,-3.684082,-0.4403839,0.8574066,0.004043579
1608,A,111568141179308,5.3000946,7.1994476,-2.4753418,-0.64624023,-0.6716919,-0.20414734
1608,A,111568161320910,1.483841,7.849457,-2.032257,0.62901306,-1.1995239,-0.3033142
1608,A,111568181462511,-8.494598,7.946106,0.0705719,1.3707123,-0.2632904,-1.4430084
1608,A,111568201604113,-10.632599,7.204788,0.013244629,1.8289642,-0.79000854,-0.2566681
1608,A,111568221745715,-3.3332367,8.6692505,-1.127945,1.3678589,-1.9664307,0.60884094
1608,A,111568241887316,-1.9896088,10.514053,-1.3014679,0.43255615,-2.7166443,-0.03173828
1608,A,111568262028918,0.5361786,10.225739,0.18997192,1.2458954,-1.318573,-1.0533752
1608,A,111568282170519,1.8476868,7.603058,-0.093307495,0.6790924,-0.70080566,-0.7997284
1608,A,111568302312121,2.2321625,5.636322,0.8806305,0.29847717,-0.2464447,-0.37384033
1608,A,111568322453722,2.9540863,5.587738,1.1439667,0.46794128,-0.22389221,0.23080444
1608,A,111568342595324,4.09375,7.6102753,1.475769,-0.5544739,-0.0032043457,1.2911072
1608,A,111568362736925,3.142395,8.531387,1.9728241,-1.6573792,0.95191956,1.474411
1608,A,111568382878527,1.2095795,8.685806,0.49305725,-1.9751282,-2.4420013,0.15922546
1608,A,111568403020129,0.6258545,9.349258,-0.7056427,-1.7573547,-0.4983673,0.68603516
1608,A,111568423161730,0.18058777,9.925598,-0.15368652,-1.2042084,0.67097473,0.83447266
1608,A,111568443303332,-0.802124,10.276764,-0.14634705,-0.05229187,1.5109253,-0.41667175
1608,A,111568463444933,-0.06889343,9.760544,-0.6871033,0.90408325,0.53015137,-0.27592468
1608,A,111568483586535,0.71447754,8.443054,0.77809143,-0.13401794,-0.22732544,0.2602539
1608,A,111568503728136,0.3626709,11.787918,-0.4115448,-0.12792969,0.349823,-0.184021
1608,A,111568523869738,-0.91456604,12.44754,-3.2975006,-0.60975647,0.35136414,-0.10429382
1608,A,111568544011340,-0.8025055,12.466965,-4.5171204,-0.80293274,-1.0939636,-0.87068176
1608,A,111568564152941,-1.8323364,12.260101,-5.841446,0.7335968,-1.1653748,-0.9871979
1608,A,111568584294543,-2.1574554,12.357498,-5.843933,1.6162262,0.17694092,-0.42559814
1608,A,111568604436144,-4.1579742,14.2430725,-4.7234497,1.910965,-0.5082092,-0.4640808
1608,A,111568624577746,-10.442429,16.36998,-0.68844604,0.94226074,-1.706955,0.09046936
1608,A,111568644719347,-5.9624023,15.281906,1.3973236,0.9002991,-2.3117828,-0.07475281
1608,A,111568664860949,-2.6856995,14.674194,-3.1645355,0.8517456,-1.1138611,-0.61776733
1608,A,111568685002550,0.72172546,13.820236,-0.80207825,0.6266022,-0.59239197,-0.744751
1608,A,111568705144152,2.07872,10.908447,2.336609,0.59213257,-0.1946106,-0.2225647
1608,A,111568725285754,2.3547058,9.766312,2.4876251,0.05845642,0.1669159,0.670578
1608,A,111568745427355,4.320999,8.212494,0.31996155,-1.1766815,0.7249298,1.9087524
1608,A,111568765568957,-0.11180115,3.642685,4.252777,-2.3354797,-1.6946716,1.1062927
1608,A,111568785710558,-0.99845886,5.4371643,1.1624451,-1.9029236,-2.1327057,0.37669373
1608,A,111568805852160,-0.848114,5.21463,1.0365753,-1.7133331,1.0249023,0.94821167
1608,A,111568825993761,-0.7728882,3.0639343,0.61634827,-0.4842682,2.029602,-0.14857483
1608,A,111568846135363,-0.9514313,1.6562347,-0.63967896,0.4486847,1.1763306,-0.2855835
1608,A,111568866276965,-1.5765076,1.4285278,-0.90460205,0.5944519,-0.048934937,-0.044433594
1608,A,111568886418566,-1.9431763,3.414215,0.5839691,-0.06791687,-0.16952515,-0.13563538
1608,A,111568906560168,-1.565979,4.9488983,0.31529236,0.42333984,0.1894226,-9.918213E-4
1608,A,111568926701769,-2.1016235,8.535034,1.5071564,-0.3963318,0.49945068,-0.11859131
1608,A,111568946843371,-1.0713501,13.196838,7.3344574,-0.03276062,-1.0751495,-0.6325073
1608,A,111568966984972,0.4441986,16.747025,3.5289307,0.7397156,-1.4387817,-0.46258545
1608,A,111568987126574,-0.06958008,12.073257,5.2850037,1.2320557,-0.04660034,-0.9426727
1608,A,111569007268175,1.3012238,8.128555,5.53006,1.8070068,-0.7311859,-0.42193604
1608,A,111569027409777,0.6935272,12.150879,0.51142883,0.3887024,-2.4315033,0.35350037
1608,A,111569047551379,0.824646,19.025543,4.8483734,0.8556824,-2.0485077,-0.11791992
1608,A,111569067692980,-2.6312256,17.182571,3.0619507,1.2781067,-0.6331787,-0.59394836
1608,A,111569087834582,-9.082626,8.508438,4.460495,0.35643005,-0.10118103,-1.1492462
1608,A,111569107976183,-6.001816,5.1867065,-0.56585693,0.6473694,-0.21136475,-0.407135
1608,A,111569128117785,2.3791046,8.119003,-1.2900543,0.47003174,-0.36941528,-0.04685974
1608,A,111569148259386,6.9114227,9.203476,-2.7765656,-0.2943573,-0.6130676,1.1721954
1608,A,111569168400988,3.6245728,8.170059,-3.1349792,-1.6100922,0.20985413,1.6737823
1608,A,111569188542590,-4.205368,7.0916443,-0.438797,-2.1743927,-1.0109863,0.1893158
1608,A,111569208684191,-8.056107,6.9656677,1.6640625,-1.704071,-0.53549194,0.1902771
1608,A,111569228825793,-4.7151947,8.445541,0.45526123,-1.0684509,0.9277191,0.81581116
1608,A,111569248967394,-3.9013824,10.062073,-1.5444489,-0.08958435,1.5279846,0.10411072
1608,A,111569269108996,-1.980072,10.501968,-0.8809204,0.42573547,0.8139496,-0.16073608
1608,A,111569289250597,0.19638062,8.697174,-0.019180298,0.17358398,0.5270233,0.14883423
1608,A,111569309392199,0.8123932,6.7096252,-0.8143921,-0.28623962,0.062805176,0.046035767
1608,A,111569329533800,0.729126,5.6087036,0.31211853,-0.27049255,0.77549744,-0.005264282
1608,A,111569349675402,1.2271729,5.9748993,0.91174316,-0.6275635,-0.9514618,-0.026016235
1608,A,111569369817004,2.166809,7.420334,1.3771973,0.15737915,-0.87519836,-0.9823456
1608,A,111569389958605,1.7820435,8.563248,1.9646606,1.2694397,-0.3314972,-0.86376953
1608,A,111569410100207,0.7759857,9.082291,0.15211487,1.7963867,-0.84931946,-0.67160034
1608,A,111569430241808,0.5018616,9.846802,-1.5192566,0.7465515,-2.4480438,0.3456726
1608,A,111569450383410,-0.008483887,10.453186,-0.26031494,1.0645142,-1.9023438,-0.1104126
1608,A,111569470525011,-0.12239075,10.336914,0.36976624,1.0158691,-0.58670044,-0.7581024
1608,A,111569490666613,1.4729004,9.439209,0.1776886,0.66004944,-0.5886078,-0.7282562
1608,A,111569510808215,1.8261871,8.988358,1.2755127,0.52223206,-0.10383606,-0.31645203
1608,A,111569530949816,2.1953278,11.795258,0.5370636,0.4705658,0.39335632,0.19763184
1608,A,111569551091418,0.10256958,12.641098,-1.7037659,-0.33361816,0.710907,1.3458557
1608,A,111569571233019,-0.25268555,13.392151,-3.9345398,-2.136963,0.34231567,1.1438904
1608,A,111569591374621,-3.6543427,11.851181,-6.4035797,-2.1999512,-2.145401,0.10580444
1608,A,111569611516222,-2.8964996,11.2721405,-5.7042847,-1.5109711,0.05583191,0.42208862
1608,A,111569631657824,-3.723648,12.966339,-3.5379791,-1.3532867,1.3669586,0.88664246
1608,A,111569651799425,-6.326538,16.921112,-1.8265381,0.21702576,1.4931335,-0.032165527
1608,A,111569671941027,-6.1559906,17.27803,-0.5178833,0.7844391,0.8833618,-0.28993225
1608,A,111569692082629,-3.018402,14.687073,-1.5617828,-0.20954895,0.68408203,-0.084854126
1608,A,111569712224230,0.10978699,13.146927,1.5466919,0.052078247,-0.10505676,0.25437927
1608,A,111569732365832,2.3397675,10.884369,1.4896698,-1.0366821,0.6834259,-0.046081543
1608,A,111569752507433,2.83609,10.110428,-0.3219452,0.12498474,-1.069809,-0.66633606
1608,A,111569772649035,3.9901428,7.9450073,-1.3343964,0.521286,-0.71665955,-0.89530945
1608,A,111569792790636,0.10784912,1.6166687,6.3857117,1.4837189,0.64334106,-0.7212982
1608,A,111569812932238,-1.1347809,4.6646423,1.1356964,1.3222809,-0.85565186,-0.23077393
1608,A,111569833073840,-1.5901337,4.880371,-0.4602356,0.81469727,-1.7725983,0.25331116
1608,A,111569853215441,-1.8411407,3.4780273,0.76831055,1.4621582,-0.63139343,-0.5845947
1608,A,111569873357043,-2.053238,3.0646973,-0.27119446,0.90312195,-0.34440613,-0.8006897
1608,A,111569893498644,-2.0141602,2.8464203,-0.31077576,0.56781006,0.020248413,-0.75382996
1608,A,111569913640246,-1.5971069,3.7021637,0.96299744,0.67141724,0.3169098,-0.19229126
1608,A,111569933781847,-1.3512878,5.159378,-0.02444458,0.2114563,0.30941772,0.80867004
1608,A,111569953923449,-1.9800568,9.20253,1.7638702,-1.0264435,0.91522217,1.9977875
1608,A,111569974065050,-0.8199463,11.144943,8.306717,-1.9962769,-0.118255615,0.90838623
1608,A,111569994206652,0.40844727,17.935562,3.373764,-2.0918274,-1.5244446,0.03944397
1608,A,111570014348254,0.13867188,12.9618225,6.8887177,-1.8932495,1.5475159,0.760376
1608,A,111570034489855,1.7994843,8.509293,7.6024323,-0.51953125,2.1195831,-0.011566162
1608,A,111570054631457,0.6201935,13.897202,-1.1029816,0.79119873,1.4871063,-0.12554932
1608,A,111570074773058,-0.44081116,19.272202,-0.1829834,0.5410309,0.3695984,0.09602356
1608,A,111570094914660,-2.2363586,17.100967,2.684372,-0.68518066,0.12632751,0.052749634
1608,A,111570115056261,-9.663437,6.466202,6.0322876,-0.35656738,0.8619995,-0.04434204
1608,A,111570135197863,-5.0344086,3.00708,-1.2355347,-0.8343811,-0.58036804,0.018432617
1608,A,111570155339465,2.839859,6.503189,-3.657547,0.54803467,-0.68707275,-0.5246582
1608,A,111570175481066,6.6611786,7.12265,-2.8160553,1.4109192,-0.33325195,-1.292984
1608,A,111570195622668,3.1413574,7.583786,-2.5072174,1.8669739,-0.23942566,-0.38720703
1608,A,111570215764269,-5.767624,8.9964905,0.44700623,0.78004456,-2.087616,0.3735199
1608,A,111570235905871,-11.864288,8.99205,1.9236145,1.0852661,-1.802597,-0.15289307
1608,A,111570256047472,-3.4909668,9.355759,-0.27920532,1.5453644,-0.34733582,-0.87905884
1608,A,111570276189074,-2.3345947,9.752472,-1.3131866,0.6026306,-0.22096252,-0.85295105
1608,A,111570296330675,0.34114075,9.414001,0.44366455,0.35403442,0.13925171,-0.3166046
1608,A,111570316472277,1.4293823,7.0735626,-0.37911987,0.4699707,0.28596497,0.42825317
1608,A,111570336613879,1.1778717,5.294632,0.27989197,-0.7264252,0.49545288,1.7425232
1608,A,111570356755480,0.9391022,4.5905914,0.8605499,-1.9778748,0.8881378,1.2380676
1608,A,111570376897082,2.118988,7.295822,0.88105774,-2.1372375,-1.5523071,0.05706787
1608,A,111570397038683,1.8317719,9.426422,1.7226105,-2.022293,1.2242279,0.62605286
1608,A,111570417180285,0.60902405,9.580887,0.15733337,-0.8250885,2.1201477,0.2546997
1608,A,111570437321886,0.56285095,10.352921,-1.4518738,0.42059326,1.8405304,0.057525635
1608,A,111570457463488,0.45410156,9.9734955,0.2007904,0.61517334,0.82421875,0.20404053
1608,A,111570477605090,0.559021,9.6064,0.24809265,-0.70721436,4.5776367E-4,0.4894867
1608,A,111570497746691,1.5934448,9.156754,-0.44030762,-0.09919739,0.37324524,-0.2746277
1608,A,111570517888293,1.6515808,9.172775,1.3489838,-0.83073425,-0.17718506,0.16674805
1608,A,111570538029894,-0.6733093,10.27594,-0.41020203,0.6152954,-0.7401123,-0.6565857
1608,A,111570558171496,0.031677246,12.939072,-1.805542,1.1152954,-0.928833,-0.9914093
1608,A,111570578313097,-0.20137024,12.73674,-4.5598755,2.1563873,-0.8288574,-1.012146
1608,A,111570598454699,-1.8878174,11.199387,-5.5991364,1.2425537,-1.581253,0.15904236
1608,A,111570618596300,-4.4736786,10.451309,-4.7387238,0.58540344,-2.5560608,0.39364624
1608,A,111570638737902,-4.214035,12.252289,-4.0607758,1.394516,-0.6983032,-0.5124512
1608,A,111570658879504,-6.508896,16.65297,-2.384674,0.7735748,-0.39593506,-0.91578674
1608,A,111570679021105,-7.286438,17.754333,1.4051208,0.3600006,0.09375,-0.587265
1608,A,111570699162707,-4.3431396,15.306107,-0.22773743,0.56959534,0.46658325,-0.25553894
1608,A,111570719304308,-0.52441406,13.488419,-0.95054626,-0.27630615,0.25604248,0.9374695
1608,A,111570739445910,2.4927673,10.713898,2.5637054,-1.4217834,1.4684448,1.6842346
1608,A,111570759587511,3.5546417,9.846619,2.4340515,-2.1035004,-0.008712769,0.51657104
1608,A,111570779729113,5.2481995,8.804932,-1.4416656,-2.0940247,-0.06036377,0.28681946
1608,A,111570799870715,1.8510895,5.0888977,0.4907074,-1.5509796,2.3349304,0.42887878
1608,A,111570820012316,-1.5108032,2.295761,5.291092,-0.23034668,2.3818817,0.09182739
1608,A,111570840153918,-1.3649445,4.936142,1.9331055,0.6386261,1.3219604,0.2001648
1608,A,111570860295519,-0.9719696,3.4556732,-0.8048248,0.18571472,0.27111816,0.4970703
1608,A,111570880437121,-0.92793274,1.7529144,-0.09744263,-0.4064331,0.14134216,0.08956909
1608,A,111570900578722,-1.4526367,2.4713287,0.09732056,-0.51065063,0.56088257,-0.11105347
1608,A,111570920720324,-1.3269806,4.2689514,0.56188965,-0.820343,-0.872345,-0.15177917
1608,A,111570940861925,-2.6193848,6.22966,-1.9782562,0.46340942,-0.8222046,-0.4338684
1608,A,111570961003527,-2.4486694,9.8632965,5.894623,1.5963745,-0.506485,-1.288269
1608,A,111570981145129,-0.32112122,11.883209,7.36261,1.5502319,-0.13424683,-0.5035553
1608,A,111571001286730,0.30889893,19.037003,1.8135681,0.7993622,-1.7788849,0.32995605
1608,A,111571021428332,1.7133636,10.249481,7.4909515,0.84532166,-1.6725922,0.0713501
1608,A,111571041569933,1.5034027,7.9655304,5.2336273,1.221283,-0.5372467,-0.62731934
1608,A,111571061711535,1.308197,14.7883,-0.636261,0.7229614,-0.3540802,-0.953949
1608,A,111571081853136,-1.3709106,19.613052,0.41249084,0.4832611,-0.024612427,-0.4108429
1608,A,111571101994738,-5.2131653,17.53807,4.1441803,0.7707977,0.3799286,0.10484314
1608,A,111571122136340,-10.072464,6.050995,4.3055267,-0.31654358,0.48197937,1.4059601
1608,A,111571142277941,-3.6228027,4.961151,-1.6947479,-1.6191711,1.0157318,1.5133057
1608,A,111571162419543,3.474228,8.258423,-4.1494446,-1.8708801,-1.029419,0.41944885
1608,A,111571182561144,5.5683594,8.613571,-2.091095,-1.6885376,-0.06575012,0.27256775
1608,A,111571202702746,1.4638672,7.52005,-2.814743,-1.5106201,2.0388489,0.35676575
1608,A,111571222844347,-5.7547455,6.912506,-0.22441101,0.09718323,1.9088745,0.013916016
1608,A,111571242985949,-10.929504,6.91156,1.3939362,0.7716522,0.797699,0.12251282
1608,A,111571263127550,-2.9430695,9.226959,-0.306839,-0.11784363,0.12817383,0.28175354
1608,A,111571283269152,-2.0455627,10.595963,-2.2233887,-0.29370117,0.2060852,-0.026779175
1608,A,111571303410754,-0.31570435,9.612762,0.1816101,-0.706192,0.6886749,-0.13531494
1608,A,111571323552355,1.5296173,7.7841797,-0.028137207,-0.5701752,-0.7429352,-0.36299133
1608,A,111571343693957,1.4148407,6.3161316,0.14941406,0.66548157,-0.9505615,-0.51408386
1608,A,111571363835558,2.0030212,5.967331,0.91781616,1.5359955,-0.09675598,-1.493515
1608,A,111571383977160,3.3488922,7.5417175,1.1882477,1.3882294,-0.5201416,-0.026412964
1608,A,111571404118761,3.2019348,8.643158,2.5567322,0.6340027,-2.1903687,0.3809967
1608,A,111571424260363,1.9001312,8.651276,0.88508606,1.1216125,-1.3386841,-0.35876465
1608,A,111571444401965,1.701294,9.087173,-0.9109192,1.1950073,-0.39154053,-0.78826904
1608,A,111571464543566,1.1456604,10.071259,-0.29995728,0.54852295,-0.29891968,-0.8532562
1608,A,111571484685168,-0.3691101,10.4561,-0.4046936,0.4163971,0.1338501,-0.289505
1608,A,111571504826769,-0.044204712,10.221252,-0.55584717,0.6711273,0.85461426,0.35209656
1608,A,111571524968371,0.14593506,9.323929,1.2915344,-0.46669006,1.0452423,1.484909
1608,A,111571545109972,-0.9902344,10.184418,0.593338,-1.9437866,0.7474365,1.4619293
1608,A,111571565251574,-0.5101776,13.345963,-1.0665283,-2.0785065,-1.642456,0.47120667
1608,A,111571585393175,-0.8182373,13.553238,-3.2157288,-1.7545776,0.31207275,0.45559692
1608,A,111571605534777,-1.4124451,12.131622,-4.8905945,-1.3044434,1.9958954,0.37019348
1608,A,111571625676379,-2.5448914,10.647324,-5.233383,0.22349548,1.9351044,-0.028244019
1608,A,111571645817980,-2.9623566,10.523865,-3.6611176,1.110321,0.66638184,0.21037292
1608,A,111571665959582,-3.6840515,14.41716,-1.8498688,0.018310547,-0.0715332,0.2605896
1608,A,111571686101183,-5.89122,18.659882,-0.8365631,-0.038986206,0.5155945,-0.15803528
1608,A,111571706242785,-4.7933044,16.618484,0.16468811,-1.0621338,0.7045593,-0.016677856
1608,A,111571726384386,-1.0818024,13.698151,-0.3037567,-0.34570313,-0.8560486,-0.3355255
1608,A,111571746525988,2.0664673,11.2039795,1.9164276,0.70310974,-0.9578705,-0.642395
1608,A,111571766667590,3.8298187,10.781067,1.4836121,1.6607513,-0.050079346,-1.3752136
1608,A,111571786809191,5.522766,8.568695,-1.4039612,1.2870789,-0.9816437,-0.08987427
1608,A,111571806950793,2.3056335,4.775406,-0.6505432,0.61531067,-2.5019684,0.33747864
1608,A,111571827092394,-1.0764008,1.4280548,4.162323,1.3316345,-1.2436981,-0.4602661
1608,A,111571847233996,-1.7123108,3.682129,1.3321533,0.9559021,-0.57821655,-0.8417816
1608,A,111571867375597,-1.8650665,3.3508453,0.294693,0.46174622,-0.26185608,-0.8675995
1608,A,111571887517199,-1.7433167,2.3843842,1.2538147,0.41183472,0.0801239,-0.32054138
1608,A,111571907658800,-1.7710571,2.5443268,0.7456665,0.46749878,0.75187683,0.73031616
1608,A,111571927800402,-1.8856354,3.8900452,0.4611206,-0.63046265,1.2151947,1.7142181
1608,A,111571947942004,-2.6034698,5.8941803,-2.4431763,-2.0278778,-0.052383423,1.1337585
1608,A,111571968083605,-2.6186218,9.573669,5.688492,-2.1193848,-1.7904816,0.1401062
1608,A,111571988225207,0.1023407,9.845001,7.4266205,-1.6963348,1.0614014,0.6404877
1608,A,111572008366808,0.016052246,19.585602,3.5148468,-0.6033478,1.9734955,0.13153076
1608,A,111572028508410,1.9240112,10.610077,7.4683533,0.4116211,1.7035675,-0.16615295
1608,A,111572048650011,2.5253296,6.7312927,7.2741547,0.7427368,0.6789093,0.18771362
1608,A,111572068791613,0.026626587,13.992294,-2.0475922,-0.38864136,-0.022979736,0.22662354
1608,A,111572088933215,-0.8265381,19.011612,0.57385254,-0.10606384,0.74513245,0.027618408
1608,A,111572109074816,-5.7456207,18.733475,3.5397034,-1.1235046,-0.110946655,-0.21182251
1608,A,111572129216418,-10.051697,9.679947,1.6452332,0.3917389,-0.7093506,-0.4250946
1608,A,111572149358019,-2.6403656,5.1828613,0.14038086,1.0691986,-0.30900574,-1.2024078
1608,A,111572169499621,3.4387054,6.8440704,-4.793045,1.6914063,0.19274902,-0.76930237
1608,A,111572189641222,5.636093,6.836563,-1.7061005,0.9792023,-1.2157135,0.116989136
1608,A,111572209782824,1.819107,5.830887,-2.6185455,0.5450134,-1.921814,0.12728882
1608,A,111572229924425,-4.2570953,6.934738,-0.5492096,1.4160614,-0.43572998,-0.63853455
1608,A,111572250066027,-14.161835,8.100449,-0.48968506,0.7945709,-0.38352966,-0.8567047
1608,A,111572270207629,-1.744461,10.377609,-0.63594055,0.4721527,-0.30570984,-0.5167694
1608,A,111572290349230,-1.9181519,10.437454,-1.7195435,0.57603455,0.6484375,0.024002075
1608,A,111572310490832,-0.26638794,8.863983,-0.42218018,-0.11048889,1.2711945,1.5302124
1608,A,111572330632433,1.6156921,6.484436,-0.64167786,-1.7330017,0.9284668,1.5981293
1608,A,111572350774035,1.5818939,4.7962646,0.77804565,-2.0862732,-1.5034485,0.50575256
1608,A,111572370915636,2.265091,5.247711,0.7992859,-1.9517822,0.22749329,0.397995
1608,A,111572391057238,3.7990417,9.044128,1.4383087,-1.4056549,1.6643372,0.21751404
1608,A,111572411198840,2.1045837,9.902603,1.4221954,0.24952698,1.879425,-0.06764221
1608,A,111572431340441,1.5838013,10.176926,-0.70877075,0.9321289,0.8355255,0.12164307
1608,A,111572451482043,0.56411743,10.888153,-0.23060608,-0.20593262,0.078323364,0.3387146
1608,A,111572471623644,0.39678955,10.410522,0.13993835,-0.1317749,0.4341278,0.08100891
1608,A,111572491765246,1.3472748,9.37178,-0.0435791,-0.5742645,0.55685425,0.023406982
1608,A,111572511906847,1.0740051,8.770081,2.049179,-0.31233215,-0.70791626,-0.418396
1608,A,111572532048449,-0.47935486,10.412704,0.5901642,0.68000793,-0.697464,-0.63456726
1608,A,111572552190050,-1.4459381,13.341675,-2.1665802,1.6385651,-0.13502502,-1.2889862
1608,A,111572572331652,-0.61364746,13.255554,-5.168579,1.3804932,-0.4894104,0.049713135
1608,A,111572592473254,-1.6678925,10.777084,-6.615799,0.6286011,-2.3467102,0.48484802
1608,A,111572612614855,-3.2175446,10.283691,-4.5096436,1.4161224,-1.0446777,-0.47961426
1608,A,111572632756457,-2.4378662,13.905869,-2.8412323,1.1910858,-0.41999817,-0.93948364
1608,A,111572652898058,-5.934189,18.300644,-2.015686,0.56407166,-0.3839264,-0.7423706
1608,A,111572673039660,-6.580078,18.140076,0.22914124,0.5041199,0.17733765,-0.31204224
1608,A,111572693186933,-3.5490265,15.168808,0.1343689,0.2399292,0.5373688,0.8405762
1608,A,111572713328535,0.48420715,12.506851,1.2736816,-0.8701172,1.0745392,1.6945648
1608,A,111572733470137,2.7592468,10.682251,2.4517517,-2.0340881,-0.1622467,0.86546326
1608,A,111572753611738,5.0735626,10.091141,-0.24243164,-2.2342834,-1.6040344,0.055007935
1608,A,111572773753340,3.7249756,6.4536896,0.17485046,-1.7631683,1.2822113,0.7379303
1608,A,111572793894941,-0.37313843,2.5872498,4.108322,-0.32214355,1.9524231,0.23774719
1608,A,111572814036543,-1.3865204,4.085022,2.1279907,0.6753845,1.5470734,0.105163574
1608,A,111572834178144,-1.8194427,3.8466034,-0.59832764,0.5512085,0.67375183,0.2500763
1608,A,111572854319746,-1.7887115,1.8074188,0.038101196,-0.51397705,0.28982544,0.18006897
1608,A,111572874461347,-1.4734802,1.3867798,-0.22810364,-0.50535583,0.6500397,0.009460449
1608,A,111572894602949,-1.4414368,2.1357727,0.4262848,-1.0558319,-0.43043518,-0.029251099
1608,A,111572914744551,-1.9891663,3.6518707,-0.77182007,0.59851074,-0.8579712,-0.32781982
1608,A,111572934886152,-2.7180176,7.0919952,1.461731,1.5478363,-0.4185791,-1.60849
1608,A,111572955027754,-1.0980225,9.539627,8.065872,1.6142578,-0.48080444,-0.31822205
1608,A,111572975169355,3.2708435,18.41475,5.1589203,0.84288025,-1.9131012,0.31036377
1608,A,111572995310957,2.5941467,16.923569,5.6960754,0.9849243,-1.68573,-0.04107666
1608,A,111573015452558,0.9307709,8.36351,7.280258,1.3294525,-0.9118347,-0.55651855
1608,A,111573035594160,0.06716919,14.438797,0.8535309,0.6469269,-0.50827026,-0.8418274
1608,A,111573055735762,-1.959549,19.529297,0.21975708,0.3505249,0.14689636,-0.3941803
1608,A,111573075877363,-1.9334412,19.585587,4.7269745,0.48503113,0.45957947,-0.077316284
1608,A,111573096018965,-10.452637,1.6589203,6.7122498,-0.18901062,0.66978455,1.385498
1608,A,111573116160566,-5.278717,3.9115448,0.46655273,-1.4954071,1.1437073,1.3258972
1608,A,111573136302168,2.9098206,6.2583923,-5.3395386,-2.0550842,-1.4514618,0.41041565
1608,A,111573156443769,8.475784,8.680847,-1.5791931,-2.1526337,-0.25852966,0.1968689
1608,A,111573176585371,4.6222534,9.073059,-3.6756744,-1.1882324,1.6339569,0.4644928
1608,A,111573196726972,-3.996048,9.958527,-0.6834717,0.08459473,1.7767944,0.046142578
1608,A,111573216868574,-14.185181,7.0481873,2.4210205,0.710907,0.91322327,-0.036392212
1608,A,111573237010176,-4.898712,7.1536255,1.0634003,0.18943787,0.40716553,0.10322571
1608,A,111573257151777,-3.7290955,8.567123,-2.1386719,-0.4074402,0.394989,0.002166748
1608,A,111573277293379,-0.631546,10.136429,-0.3784027,-0.64811707,0.85302734,-0.09851074
1608,A,111573297434980,2.0638733,9.1772,0.5953064,-0.9002991,-0.74580383,-0.2761078
