Subject-Id,Activity Label,Time stamp,Accel_x,Accel_y,Accel_z,Gyro_x,Gyro_y,Gyro_z
1607,A,288728549376873,0.79726917,11.790845,-0.8230068,-0.01917476,-0.011984225,-0.029294772
1607,A,288728599376873,0.79726917,11.790845,-0.8230068,1.3954965,-1.3137374,-0.912399
1607,A,288728658277291,0.79726917,11.790845,-0.8230068,2.8288097,-0.7307714,-1.1917646
1607,A,288728698665624,1.5490485,13.148357,-1.7088615,3.0905986,-0.9805759,-0.175236
1607,A,288728738941874,1.0642227,13.774441,1.572392,1.9313245,-1.4628744,-0.29481193
1607,A,288728780526404,1.7950528,10.081385,2.6886885,2.3121564,-1.1840415,0.42077947
1607,A,288728818403281,4.799177,9.857527,-1.6885108,1.6373115,-0.86685896,-0.33262882
1607,A,288728858969739,10.94629,10.437522,0.6362591,0.9803096,0.294013,-0.43516052
1607,A,288728899336145,0.9959879,11.215638,-4.9799395,-0.19441076,0.5864281,-0.4990764
1607,A,288728938057291,-0.24061728,9.258977,-2.906561,-1.30415,-0.20772657,0.35739622
1607,A,288728978208749,0.919972,2.5504234,-0.41958386,-2.3920512,-0.14407702,0.95128113
1607,A,288729018042707,0.8888474,3.0131028,-4.569334,-2.0474384,0.1257012,1.1361046
1607,A,288729057986874,0.9091981,2.9831753,-2.5019407,0.2977414,-0.070041135,0.055127434
1607,A,288729097368176,0.9259575,4.381389,-4.891354,0.03914847,0.36218992,-1.1017498
1607,A,288729137574114,3.1705215,13.085509,-6.467936,-1.205613,-0.99948436,0.24421188
1607,A,288729177431093,1.4867992,19.612701,-9.329007,-4.356665,-0.8474179,0.8426242
1607,A,288729217966248,2.5881321,5.1421466,-2.585738,0.09161274,-0.8697884,0.4082626
1607,A,288729257326561,7.3005195,6.7708025,0.39923313,-1.5528892,-0.2905509,0.7946873
1607,A,288729297126978,6.1596823,16.606182,9.712079,-0.15472966,0.56938386,0.25885928
1607,A,288729336956873,3.2740707,6.821679,-1.2677298,-2.2623553,-1.9358518,-0.5355617
1607,A,288729377069634,3.6248214,5.620987,3.4913447,-0.6788398,-0.9685917,-0.25166872
1607,A,288729416758436,-0.30346507,9.347562,4.59986,-0.61172813,-0.257794,-0.035952676
1607,A,288729456995572,-0.90620536,10.556634,-2.224812,-0.57124805,-0.406931,-0.02263687
1607,A,288729498074007,2.0099323,9.099164,0.6907272,-0.9419601,-0.45060685,0.38562572
1607,A,288729536658229,1.0803835,8.996812,0.4261679,-0.73796195,-0.55793226,0.7949536
1607,A,288729576771613,1.875857,7.203554,-0.6356605,-0.50786483,-0.20479709,0.4708469
1607,A,288729616563176,2.3122003,7.311892,-0.97025025,0.25672874,-0.2974751,-0.14247912
1607,A,288729656638124,0.9959879,9.248202,-0.7469909,0.5190501,-0.44101948,-0.66179556
1607,A,288729697531248,0.8511387,12.06139,0.7272388,2.052232,-0.58935755,-1.1933625
1607,A,288729738098958,2.6791117,13.017275,0.1352724,2.8655615,-0.6530071,-0.9193232
1607,A,288729777887239,1.3156139,13.642161,0.56084174,2.898052,0.3121225,-1.5430355
1607,A,288729817209737,1.8854338,11.328165,1.8148049,2.3017702,-1.3113406,-0.4079963
1607,A,288729856287395,4.2916064,10.391434,0.7015011,1.8114822,-0.32676986,-0.8857674
1607,A,288729895861196,14.921862,6.4565635,-0.99658644,1.5784556,1.3797837,-0.66871977
1607,A,288729936636404,-0.19153613,10.705074,-4.2060137,1.1667309,0.8918927,-0.39414784
1607,A,288729976003697,-1.8034325,14.552556,-4.2718544,-0.57098174,0.5877597,0.050866377
1607,A,288730015930780,0.7224504,4.8626237,1.2635399,-1.5760587,0.29454562,0.3022688
1607,A,288730057224843,1.073201,2.7934349,-4.311359,-2.201369,0.69774824,0.6317018
1607,A,288730095665519,1.371279,2.96881,-4.4681787,-1.2104068,0.44714475,1.4303838
1607,A,288730135126873,0.4961983,4.0581717,-3.2190042,0.9651296,1.639442,-0.4463458
1607,A,288730175454269,0.13227965,4.2503066,-4.325724,0.2862898,0.26072347,-0.45726478
1607,A,288730215367342,3.7152026,19.103334,-6.5924344,-2.2016354,-0.23409186,0.54461646
1607,A,288730256787395,-3.1435869,14.04319,-7.589619,-0.08522116,-0.8785769,0.8612663
1607,A,288730297085987,-0.39564183,3.335123,-1.9273324,-0.69694924,0.44741106,0.5581986
1607,A,288730336480155,10.242993,11.533468,2.693477,-1.3438311,1.4801849,0.042077947
1607,A,288730375054686,3.6816838,12.928091,6.6229606,-0.3155846,2.07913,0.006657903
1607,A,288730414685570,2.1218612,4.7518916,0.10354923,-1.679123,-2.5209484,-0.4263721
1607,A,288730454295206,0.5081693,5.457583,5.479729,-0.35313517,0.1419465,0.0396811
1607,A,288730494234686,-0.16639702,9.707291,0.18674773,-0.6873619,0.21198763,0.07536746
1607,A,288730533884581,2.3361423,11.0247,-5.683835,-0.9129316,-0.6332997,-0.14327806
1607,A,288730573821456,1.8483237,8.4234,2.208651,-1.1853731,-0.12809806,0.41758367
1607,A,288730613904998,1.1354501,8.358757,0.31064767,-0.56938386,-1.019458,0.78323567
1607,A,288730654289581,3.256713,8.6496525,0.78290397,-0.13342437,0.65034395,0.38029942
1607,A,288730693727498,3.2477345,8.924985,-1.5412674,-0.07084008,-0.7054714,-0.5470133
1607,A,288730733682706,1.4628572,11.55741,-1.1348516,1.4887071,-0.907339,-1.0644655
1607,A,288730773743331,-1.4059949,12.234969,1.1827357,2.8083034,-0.2876214,-1.2351742
1607,A,288730813672289,1.0079589,12.76349,-1.1899183,2.9925942,0.2743056,-0.30173615
1607,A,288730853391925,2.3295584,12.974777,1.2204443,1.4362428,-1.3177321,-0.8873653
1607,A,288730893277706,3.247136,10.520123,1.8028339,2.325206,-0.32756883,-0.76752305
1607,A,288730932990779,4.519056,10.375273,0.23343466,1.7249295,0.7520767,-0.93796533
1607,A,288730972931873,11.21085,10.039486,1.757344,1.237571,1.9414445,-0.9155948
1607,A,288731013287393,-0.45190558,12.674904,-6.4218473,0.5387575,1.0857708,-0.49801114
1607,A,288731053136560,-0.6326678,9.512163,-1.4431051,-1.149953,0.6708503,0.087085366
1607,A,288731093249581,0.45968673,3.1214404,1.1145009,-2.1326594,0.9464875,0.474309
1607,A,288731134101247,2.2786815,1.9405005,-5.229535,-1.5992283,1.047954,1.3014868
1607,A,288731174471612,1.4706384,3.25372,-2.336741,0.6146576,1.2415657,0.09534117
1607,A,288731214138227,0.635062,4.3646297,-3.390788,0.19920446,0.18216023,-0.8066715
1607,A,288731253252446,2.7036524,10.720038,-6.7983356,-1.5592809,-1.6460999,0.20399815
1607,A,288731292824790,-0.35254622,19.612701,-8.955511,-2.6578348,0.45353633,1.1219898
1607,A,288731332755311,2.0626047,5.2726307,-3.4237084,-0.09827065,0.24687503,0.4543353
1607,A,288731372977602,10.600328,11.015123,1.822586,-1.3550164,0.4543353,0.11558119
1607,A,288731412294008,5.9304376,13.594277,8.129512,-0.07803062,0.14274544,0.16458336
1607,A,288731452293174,0.10414778,6.5349736,-2.124854,-1.9555593,-1.3912354,-0.47990164
1607,A,288731492562393,1.2946646,3.6703112,6.7163343,-0.9321064,-0.6309029,-0.123836994
1607,A,288731531729842,2.5061307,9.147048,0.36631286,-0.78057253,0.013848438,-0.060453758
1607,A,288731573164789,1.7298107,12.045827,-2.6402059,-0.87990844,-0.33502567,0.01571265
1607,A,288731611678591,1.7441759,8.572439,2.333748,-1.1438277,-0.7139935,0.25166872
1607,A,288731651955154,0.39145198,8.77834,0.57281274,-0.9270464,-0.29854035,0.7550062
1607,A,288731692915935,0.97264445,8.709507,0.092775315,-0.5028048,-0.14407702,0.4892227
1607,A,288731732252498,2.231396,8.24204,-0.10534488,-0.15606125,-0.44394895,-0.1818939
1607,A,288731773019736,1.8716671,9.787497,-0.23104046,0.86659265,-0.20985709,-0.85966843
1607,A,288731812950831,0.18136078,11.477204,-0.7302315,2.2517028,-0.24234766,-1.4176006
1607,A,288731852820778,-1.192911,11.496957,-0.110731825,2.884736,-0.08868326,-0.9153285
1607,A,288731891364528,0.7637503,13.691242,2.984971,2.373143,-0.515588,-1.1699266
1607,A,288731930810883,4.0533834,12.567763,3.2148144,2.262888,0.29481193,0.3882889
1607,A,288731970999894,6.367978,12.964004,-2.3277626,2.5430527,0.057257965,-0.33742252
1607,A,288732010803227,6.9581485,9.241618,1.5071499,1.6490294,0.7283746,-0.97764647
1607,A,288732052471873,1.0336965,10.444705,-1.2814964,1.1105382,0.7326356,-0.68176925
1607,A,288732092370778,0.7398083,10.560823,-3.4632127,-0.8527442,0.24101609,0.014647386
1607,A,288732131813175,2.1033063,5.0385976,0.3609259,-2.05383,0.54914385,0.35153726
1607,A,288732172089112,2.8634653,2.956839,-4.6722846,-2.5031052,0.48629323,0.8359663
1607,A,288732211961767,1.6101006,4.0294414,-2.7641058,-1.4146712,0.18136127,0.84661895
1607,A,288732251851561,0.7254431,4.158728,-3.426701,0.48709217,0.6048039,-0.757403
1607,A,288732290464008,0.93134445,7.2490444,-5.391742,-0.3901531,-0.96592855,-0.2548645
1607,A,288732330325779,2.9484594,19.612701,-6.59004,-2.912433,-0.19947077,1.504686
1607,A,288732370213123,-0.37948096,9.905411,-5.1984105,0.8064052,-0.3057309,0.8290421
1607,A,288732409795779,6.736685,9.656414,0.16460137,-1.3398364,1.0335728,-0.101999074
1607,A,288732450321769,9.883265,14.673464,5.407903,-0.4002731,-0.14274544,-0.41891524
1607,A,288732489709269,-0.2717419,9.279327,-5.0014873,-2.6517096,-0.62344605,-0.27457193
1607,A,288732529660936,0.62129533,3.1160536,5.01286,-1.0354371,-1.1877699,0.059921127
1607,A,288732569414633,1.5598224,7.0144124,4.5136685,-0.56751966,0.41705105,-0.05352954
1607,A,288732609087080,4.606444,11.914146,-6.1650696,-0.80747044,-0.22343922,0.0010652645
1607,A,288732649101664,1.9195513,9.3260145,0.6715736,-0.716923,-0.5611281,0.15845808
1607,A,288732690174008,0.770933,8.789713,1.7657237,-0.90254533,-0.15339808,0.5504754
1607,A,288732730455258,1.0887632,9.252991,-0.18076223,-0.31052458,-0.3320962,0.7821704
1607,A,288732769079738,1.7741034,8.660426,0.14425065,-0.03222425,-0.3472762,0.050333746
1607,A,288732810435258,2.071583,8.356362,-0.0017956513,0.23062976,0.101200126,-0.47244477
1607,A,288732849012028,1.2455834,10.845734,-1.3994108,1.7411747,-0.50173956,-1.102815
1607,A,288732888767706,0.008379706,12.227787,-0.6596026,3.0527816,0.35286885,-1.407747
1607,A,288732928418070,-0.17058687,12.753913,-0.25737667,2.63866,0.05672533,-0.20692763
1607,A,288732968512966,0.7565677,12.247539,1.4227544,2.4306672,-0.6535397,-0.8474179
1607,A,288733008185832,3.3476925,11.34253,2.2068555,2.0282636,-1.3699301,-1.3571469
1607,A,288733049770153,10.237606,11.899781,1.858499,1.3997575,1.6282567,-1.0668623
1607,A,288733090215310,2.1021092,10.625467,-3.292626,0.5888249,1.4405038,-0.9669938
1607,A,288733130119164,0.45489833,12.558785,-7.699154,0.221575,0.90946954,-0.07190535
1607,A,288733168258123,0.34955344,5.866991,-1.0462662,-1.4583471,0.71292824,0.59148806
1607,A,288733209906348,-0.2112883,2.071583,-0.76434886,-2.7276096,0.953678,1.1749867
1607,A,288733249910208,1.2443863,3.779846,-3.2836475,-0.8522116,1.0322412,2.425341
1607,A,288733289713384,0.3345897,2.906561,-2.4396915,1.0197244,2.1102889,-1.2524847
1607,A,288733327636455,0.75477207,3.489549,-4.860828,-0.49721217,-1.7395768,-0.29134983
1607,A,288733367611195,2.2301989,17.530344,-6.3739634,-3.7502635,0.16431704,1.6410398
1607,A,288733407294893,-2.8724434,14.750677,-5.901707,0.89828426,-0.23755397,1.0072075
1607,A,288733446958538,9.90601,9.173384,0.56982,-0.7978831,1.1582087,0.37816888
1607,A,288733487320882,11.456255,12.338518,5.8879404,0.053795855,-0.72464615,-0.086020105
1607,A,288733527483228,-1.1803415,10.38066,-5.267244,-3.5894086,0.40613207,-0.42370895
1607,A,288733567023173,0.5201403,1.7723078,6.10282,-1.1049455,-1.6985642,-0.09986854
1607,A,288733606797393,3.383007,7.8422074,5.7574563,-0.36911413,0.8940232,0.07643273
1607,A,288733646650101,3.567959,11.707646,-2.2008698,-0.6194513,0.12037488,0.24154872
1607,A,288733687198642,1.8076223,8.84478,0.24181437,-0.8213189,-0.4825648,0.08175905
1607,A,288733728681924,0.58418524,8.369531,1.8471266,-0.90494215,0.10892329,0.5022722
1607,A,288733768546923,0.6853402,9.279327,-1.821389,-0.24714136,0.0644485,0.4857606
1607,A,288733808459060,1.922544,8.256405,-0.7104794,0.16192019,-0.3368899,-0.13662016
1607,A,288733848396401,1.5310919,9.272144,-1.4664485,0.8514126,0.06391586,-0.7374293
1607,A,288733886870519,-0.021547815,10.179547,-0.25857377,2.773416,0.83996105,-1.5675366
1607,A,288733926473642,0.23523031,10.523713,-1.3018472,3.232545,-0.3683152,-1.6439694
1607,A,288733966082289,0.60812724,11.854291,1.2336124,1.1957593,-0.7821704,-0.99096227
1607,A,288734005786403,1.9195513,11.835137,4.010288,2.0335898,-0.5651228,-0.57790595
1607,A,288734046070101,7.3346367,16.333843,-2.135628,2.6306705,0.22370553,-0.39867523
1607,A,288734087246195,9.0716305,11.544841,-0.30945057,1.7401094,1.4788533,-0.43649212
1607,A,288734125277080,-0.374094,14.1664915,-1.0588357,0.62744075,0.7709851,-0.38083205
1607,A,288734165916768,-0.97264445,9.760562,-3.1064768,-1.1105382,0.41278997,0.1272991
1607,A,288734205306247,1.5568297,3.108871,-1.0995371,-2.3009713,0.71585774,0.7518104
1607,A,288734245799268,2.1984756,1.0444705,-4.811747,-1.8341191,1.3385048,1.3238574
1607,A,288734285226507,1.1540052,1.8285716,-1.8309658,-0.030626353,0.9672601,-0.103863284
1607,A,288734325035830,-0.08559271,3.6116533,-3.8947675,-0.35420042,0.23568976,-0.53476274
1607,A,288734365168799,-0.64703304,12.385205,-5.298967,-1.2468921,-1.2620721,0.6247776
1607,A,288734405148955,0.6787562,17.196953,-7.3831196,0.39388153,-1.0106697,0.8918927
1607,A,288734445139945,8.8328085,15.899894,-2.4247277,-0.80747044,1.3427658,0.14247912
1607,A,288734485021403,9.295488,12.400767,2.3971944,-1.7465011,0.8836369,-0.11105382
1607,A,288734525897549,3.281852,7.587225,-3.180697,-1.4370418,-1.8213359,0.13928333
1607,A,288734565820309,-0.6027403,3.544017,2.879626,-0.44847634,0.39254996,0.31771514
1607,A,288734604897393,-1.3305776,8.540117,6.861782,-0.87298423,-0.4958806,-0.1768339
1607,A,288734644720570,2.480393,11.0935335,-1.1204864,-0.82611257,0.112918034,-0.18455707
1607,A,288734686713901,2.2038627,9.487024,-1.4335283,-0.82158524,-0.17070863,0.13156016
1607,A,288734724568070,0.91937345,7.8853035,0.05865794,-0.6788398,-0.33822146,0.52863747
1607,A,288734766414633,1.0570401,8.39886,-0.46208093,-0.77631146,-0.61172813,0.55793226
1607,A,288734804554788,1.745373,8.328829,-0.6805518,-0.3043993,-0.3153183,0.4577974
1607,A,288734846208745,1.9261353,8.253412,-1.0498575,0.017576864,-0.4146542,-0.33103094
1607,A,288734884165257,1.2629414,9.346964,-0.9840169,0.57763964,-0.6607303,-0.8966864
1607,A,288734923843278,-0.97503865,10.206482,0.11312603,3.0067089,0.7355651,-1.3680658
1607,A,288734964432236,-1.9722236,10.396821,0.18136078,3.665575,1.0687265,-1.4564828
1607,A,288735003583069,0.60453594,12.652159,0.1364695,2.4594293,-0.902279,-0.94116116
1607,A,288735043944424,1.1773487,12.708423,1.8112136,1.8548918,-1.8895128,0.101999074
1607,A,288735086724058,6.041768,15.611991,0.30825347,1.5459651,-0.396811,-0.98750013
1607,A,288735123749162,15.198392,14.837466,-3.8588545,1.4138722,1.3592775,-1.0767161
1607,A,288735164841977,1.8022354,9.350554,-3.9480386,0.42051315,1.7337179,-0.64714813
1607,A,288735204831765,0.36631286,8.187572,-1.6280571,-1.6447684,1.0484866,0.20213392
1607,A,288735244568905,1.1270704,3.5739446,-2.1613655,-3.0344057,1.6072178,0.86020106
1607,A,288735284510828,0.7164649,1.002572,-3.3159695,-1.2365057,2.6636937,0.8135957
1607,A,288735323113538,0.11552023,0.46746787,-2.8078,0.68150294,1.4679344,-0.793622
1607,A,288735362725622,0.054468088,4.384382,-2.1086931,-0.5094627,-0.07190535,-0.48389637
1607,A,288735402375830,1.9470845,17.572243,-1.6406267,-1.1456919,-1.3417006,0.005060006
1607,A,288735442247497,5.701193,16.011822,-13.037625,-2.1294637,-0.3587278,1.1480888
1607,A,288735482359476,4.2904096,4.6160207,-5.4126916,0.06364955,-1.8024274,0.62238073
1607,A,288735522136924,8.186973,9.294889,1.9237411,-1.2106731,-0.18642128,0.5904228
1607,A,288735561810778,7.8930845,14.563331,5.5647235,-0.5456817,0.39760995,-0.37710363
1607,A,288735602127497,-1.9075803,9.483433,-0.5722142,-1.3638048,-1.2815131,-0.41731736
1607,A,288735642158589,0.7565677,6.679224,6.8581905,-1.1419635,-1.608283,-0.3997405
1607,A,288735682663069,0.54168814,7.6800003,-0.016759412,-1.1691277,-0.5121259,0.07643273
1607,A,288735722075413,4.7165775,8.392874,-4.471172,-1.2458268,-0.272974,0.24367924
1607,A,288735761750465,1.2934675,8.6017685,2.3959973,-1.0088054,-0.46498793,0.67324716
1607,A,288735801703694,0.82001406,8.723274,0.7140707,-0.32783514,-0.53076804,0.8522116
1607,A,288735841757028,0.260968,9.34397,0.9403227,-0.086020105,-1.0338391,-0.21065605
1607,A,288735881733746,3.8468835,10.570999,-1.5610195,1.1209245,-1.1448929,-0.85514104
1607,A,288735921176298,-0.46926352,12.409147,-1.3880384,2.7358654,0.7462177,-1.6069515
1607,A,288735961071507,-0.78769237,11.179127,-0.5835867,3.3372073,-0.06098639,-1.3496901
1607,A,288736001109059,0.92535895,12.4630165,1.5280992,2.7816718,-0.20266657,-0.72651035
1607,A,288736041370100,1.1755531,10.858303,3.8971617,2.0871193,-1.3443637,0.3720436
1607,A,288736081191090,5.1996074,14.418481,-0.17896658,2.1430457,-0.42663842,-1.1361046
1607,A,288736121190413,14.63396,13.215993,-0.107140526,2.1763353,1.4671354,-1.2175972
1607,A,288736160969111,1.91596,10.660183,-5.295376,1.3472933,1.0761834,-0.7073356
1607,A,288736200693486,1.9907787,11.920132,-3.0340521,-0.922519,0.24873926,0.1555286
1607,A,288736240620621,3.0801406,2.8820202,2.2888567,-1.9923109,0.9619338,0.5318333
1607,A,288736280709059,2.0901382,2.1649568,-4.5926776,-1.422927,0.6759103,0.5928197
1607,A,288736320605465,1.0815806,2.8538885,-2.6952724,0.015978966,-0.3832289,-0.40426785
1607,A,288736360308225,-0.06943185,4.268862,-4.0958805,-0.31824777,0.49161956,-0.861
1607,A,288736400945986,-0.6326678,11.610682,-7.271789,-1.514806,-0.5994776,-0.07376956
1607,A,288736439912757,-0.60094464,15.324687,-6.92044,-0.72651035,-2.2349248,0.0015978967
1607,A,288736479682132,2.0153193,7.9954367,-3.7086184,-1.5659387,-0.105993815,1.5044197
1607,A,288736519648069,5.7598505,18.784307,0.5805939,-2.6280074,-2.265551,0.79442096
1607,A,288736559367600,8.037933,5.173271,-5.920861,-1.7036241,-1.2508868,0.6194513
1607,A,288736599354580,3.281852,3.881001,2.741361,-0.44927529,0.33262882,0.9153285
1607,A,288736639178746,0.7793127,13.616424,3.2255883,-1.3060142,-0.28975195,0.18535602
1607,A,288736679287392,1.4514848,10.5704,-4.8620253,-1.6197346,-1.0713897,-0.087618
1607,A,288736719167548,2.110489,8.985439,1.9536686,-0.4314321,-0.1355549,0.36618465
1607,A,288736759411507,0.22385786,8.641273,0.777517,-0.80081254,-0.3717773,0.2972088
1607,A,288736799014318,0.0023942017,8.558074,-2.6719291,-1.0652645,-0.5113269,0.42690474
1607,A,288736838801506,1.3988123,8.564059,-0.92176765,-0.6540724,-0.3054646,0.5201154
1607,A,288736878576297,0.997185,8.581417,-0.19033903,-0.3320962,0.1025317,0.4114584
1607,A,288736918999215,1.7016789,8.858546,-1.0402806,-0.33475935,-0.090014845,0.068176925
1607,A,288736958969943,-0.3196259,8.282741,-0.5734113,0.6625945,-1.0032128,-0.66818714
1607,A,288736998779683,-1.371279,8.200141,0.8379706,2.9079056,0.32357407,-1.3688648
1607,A,288737038429943,-1.146224,10.160992,0.48602295,2.7334685,1.6967,-2.539324
1607,A,288737078662288,2.6060886,11.261726,-0.5805939,3.0186932,-2.428803,-0.8277105
1607,A,288737118982705,1.5682021,10.5680065,0.21547815,1.6788567,-1.0383666,-0.09241169
1607,A,288737158375413,5.559935,14.191032,1.0761937,2.018676,-0.3155846,-1.0037454
1607,A,288737198381350,18.677168,19.612701,-2.802413,1.8431739,1.8839202,-1.318531
1607,A,288737238184371,1.9967642,9.96347,-2.2936451,0.79202414,1.3803164,-0.6069344
1607,A,288737277962861,1.1599907,7.6321163,-3.6433764,-1.1672635,0.6013418,0.5430186
1607,A,288737317834475,0.107140526,3.2142158,-2.1529858,-2.2692797,1.0314423,1.0162623
1607,A,288737357534215,1.2252327,-0.63206923,-2.2822728,-1.6684705,0.94968325,0.71532506
1607,A,288737397566142,1.352724,1.2689269,-1.3215994,-0.05885586,0.27457193,-0.9262474
1607,A,288737437507392,-0.006584055,5.7257333,-4.51307,0.6463492,-0.38083205,0.002130529
1607,A,288737477994943,0.40102878,15.416265,-6.365584,-0.16138756,-1.5845809,0.55100805
1607,A,288737517307601,3.5637693,15.097836,-6.6175733,-2.252768,-3.1755533,-0.030626353
1607,A,288737557503382,10.067618,14.474147,-4.975151,-1.6327841,1.0756508,0.922519
1607,A,288737597365673,0.94810385,9.372103,2.3666685,-1.7092168,-1.876197,0.8878979
1607,A,288737637016611,3.9312792,3.684078,2.1739352,-1.3864417,-1.3337111,1.2980248
1607,A,288737676971403,2.0566192,8.272566,1.0456676,-0.5832323,-0.6849651,0.27164245
1607,A,288737716592391,1.3802572,12.522872,1.043872,-2.294047,-0.69029135,-0.63037026
1607,A,288737756670830,4.1252093,10.965444,-1.4413095,-1.5153387,-1.1169298,0.015446335
1607,A,288737796682340,2.0739772,8.843582,2.992752,-0.9400959,-1.2980248,0.51026165
1607,A,288737836865985,-0.53809685,5.929839,0.32621,-1.1728562,-0.63676184,0.5118596
1607,A,288737876177653,1.1450269,8.007407,-2.8874073,-0.84209156,-0.6761766,0.5864281
1607,A,288737916484423,0.7182605,7.627328,0.6422446,-0.4149205,-0.44394895,0.27563718
1607,A,288737956281297,0.49200845,7.472902,-1.5586253,-0.21385184,0.035952676,-0.17390442
1607,A,288737996382965,-1.881244,9.98442,-0.55365914,2.0200076,-0.35926044,-0.76912093
1607,A,288738036463641,-2.4797945,12.613253,1.4101849,3.1073763,-0.06178534,-1.9835224
1607,A,288738077091974,1.8375498,14.2939825,0.5470751,2.6429212,-0.4426174,-0.66525763
1607,A,288738116076923,0.19572599,13.428479,2.291251,3.8927426,-1.1366372,-0.24021713
1607,A,288738156112288,4.775235,12.286445,1.9387048,2.05383,-2.125469,-0.002396845
1607,A,288738197522704,13.666103,11.8099985,-1.608305,1.591505,0.64075655,-1.598163
1607,A,288738236924474,5.159505,12.809578,-2.645593,2.077532,1.6303873,-1.3334448
1607,A,288738277443589,-0.12389994,11.380837,-6.218939,0.79415464,1.3273195,-0.454069
1607,A,288738315670360,-0.7457938,9.353547,0.011372458,-2.2825954,1.679123,0.5635249
1607,A,288738355555880,1.0660183,0.26276365,-1.2910733,-1.944374,1.4495586,0.48016796
1607,A,288738395462702,1.7118542,-0.94092125,-3.810372,0.056991648,0.32810146,-0.29214877
1607,A,288738435430517,-1.8189948,0.26994625,-2.966416,0.30706248,1.1781825,-0.4926848
1607,A,288738476353536,-3.0867245,12.42052,-9.275137,-3.2959282,-2.5782063,0.932639
1607,A,288738516288795,0.919972,19.612701,-7.01142,-1.0820423,2.077532,0.96113485
1607,A,288738555664735,1.1162965,0.46926352,-3.933075,-2.055694,-1.4266554,0.6804377
1607,A,288738596076037,15.499463,16.279972,3.7403417,-0.96299905,2.651177,0.9374327
1607,A,288738634939631,2.517503,12.155362,5.975329,-1.0173275,-1.7611485,-0.08442221
1607,A,288738675871194,4.5154643,6.0489507,-1.1665748,-1.0671287,0.7339672,-0.037284255
1607,A,288738714362391,-0.85054016,7.153276,4.214992,-1.3805827,-0.14674018,-0.6940198
1607,A,288738754136505,-1.1133038,12.54442,1.22224,-1.8016285,0.62557656,0.043675844
1607,A,288738794208224,0.06404489,8.456919,-0.42916065,-0.46685216,-0.24021713,0.6527408
1607,A,288738834369109,2.9604304,5.450999,0.2705448,-0.8330368,-0.53103435,0.64341974
1607,A,288738874389057,2.1003134,8.7370405,-1.0905589,-0.7432883,-0.8016115,0.13981596
1607,A,288738914714058,2.724003,9.452309,-1.5334862,-0.24021713,-0.5613944,-0.2247708
1607,A,288738954947494,1.3377602,9.462483,-0.7260417,0.1307612,-1.164334,-0.59388494
1607,A,288738993994526,-0.40102878,11.229404,0.22146365,2.6056368,-0.5587312,-1.1211908
1607,A,288739034788744,-1.6352397,11.343129,0.64583594,2.8514466,0.5334312,-1.1773835
1607,A,288739073578328,0.61052144,12.704233,0.6787562,2.177667,0.5403554,-0.046072688
1607,A,288739113499265,0.79846627,12.039842,3.0579941,2.55264,-1.7379789,-0.5451491
1607,A,288739153617338,5.245097,12.815563,-1.7124528,2.144111,0.3400857,-0.5448828
1607,A,288739193546297,5.7299232,13.513473,1.1408371,1.751561,1.2926984,-1.722
1607,A,288739235878381,6.847417,10.070012,-4.7560816,1.8122811,1.4205302,-1.0170612
1607,A,288739273819526,-0.15382746,10.588956,-1.5251064,-0.22690132,1.0415623,-0.1488707
1607,A,288739313413589,-0.2825158,4.338892,-0.54288524,-2.5070999,1.3382385,0.39947417
1607,A,288739353341037,1.7076644,0.6919243,-2.7455509,-3.0735543,0.964597,0.7355651
1607,A,288739393297756,1.2689269,1.2491747,-2.2852654,-0.8708537,-7.9894834E-4,0.27989823
1607,A,288739434300151,-0.61171854,1.4257472,-3.1292217,0.34780884,1.3427658,-0.57364494
1607,A,288739473050776,0.02873042,8.598776,-4.225766,-1.0836402,-1.1033477,0.6828345
1607,A,288739514072025,-0.4782418,19.612701,-7.482479,-2.577141,0.05539375,1.1334413
1607,A,288739552656141,1.0390835,7.6410947,-6.2620344,-0.22450449,-0.6777745,0.8333031
1607,A,288739593918483,9.24102,16.522387,1.5328877,-0.71985245,0.9440906,0.6135923
1607,A,288739634015985,8.521563,11.4837885,6.6846113,-0.23489082,0.0127831735,0.6487461
1607,A,288739673681349,3.2615013,8.99741,-2.6198552,-2.912433,-1.1443603,-0.2591256
1607,A,288739712590515,1.2707225,3.354875,4.9943047,-1.3289174,-1.2903016,-0.2974751
1607,A,288739752373017,0.59376204,6.301539,3.7582982,-0.62744075,-0.27830034,-0.020772656
1607,A,288739791947911,1.0283096,12.296021,-3.1735144,-0.5238438,-0.6689861,-0.008788432
1607,A,288739832209057,3.0334535,8.536526,-3.433884,-0.46019423,-0.3635215,0.10626013
1607,A,288739871658484,0.92775315,8.620323,-0.60812724,-0.45167214,-0.6130597,0.058589544
1607,A,288739911354473,0.017357962,7.6680293,-1.4041992,-0.14647387,-0.014913702,0.060720075
1607,A,288739951442806,0.29029694,7.504027,-1.3838485,0.11930962,-0.044208474,-0.09640643
1607,A,288739992010619,-0.2777274,8.118738,-1.3221979,1.7094831,0.27537087,-0.5291701
1607,A,288740031072234,-0.22984336,8.486248,-0.22026655,3.6336172,0.86632633,-2.0873857
1607,A,288740071442234,-0.65062433,11.156382,1.590947,1.7246631,-0.2396845,-0.9965549
1607,A,288740111495515,0.23882163,13.007698,2.2984335,2.5691516,-1.2652678,0.068176925
1607,A,288740151441452,7.252037,16.989853,-2.1978772,2.3526366,-0.33449304,-0.2825614
1607,A,288740192751141,19.612701,12.779052,2.27928,2.001632,1.32439,-0.7819041
1607,A,288740231370566,2.0566192,8.89446,-4.2401314,1.0167949,0.86606,-0.33129725
1607,A,288740271050881,-0.24839842,11.605893,-1.5035586,-1.408546,0.96805906,0.5797702
1607,A,288740311160620,0.43754035,3.627814,-0.7918822,-2.5979137,1.2647352,1.4399712
1607,A,288740351315047,1.0654198,-0.8798691,-5.2169657,-2.5739453,1.8037591,0.52810484
1607,A,288740390914995,0.65421563,-0.65900403,-1.7711107,1.4133396,1.8098843,-0.7779094
1607,A,288740430898901,-1.2563573,1.0283096,-0.8403648,-0.75101143,-3.5928707,-0.045007423
1607,A,288740470821608,2.9071593,13.174693,-2.349909,-0.907339,-1.7781926,0.056459017
1607,A,288740512718067,6.4368114,17.002424,-10.337564,-0.8021441,0.86419576,0.24687503
1607,A,288740552720411,13.728353,19.612701,-2.7048495,-0.05912218,1.5092134,-0.6876282
1607,A,288740592598120,1.1426327,5.325303,5.0116625,-1.8618159,-1.799498,1.2482237
1607,A,288740629847495,-0.741604,8.522161,3.7630866,-0.4628574,-0.23755397,0.500408
1607,A,288740669606089,-3.7223852,10.939108,5.975329,-1.6173377,-1.015996,0.11638014
1607,A,288740710368275,5.66109,10.861895,-10.287885,-0.40772998,-0.43036684,0.41252366
1607,A,288740749480671,3.465607,10.150817,2.3403323,-0.65673554,-0.11558119,0.5025385
1607,A,288740789563276,1.8291701,4.3089647,0.018555064,-0.5382249,0.6215818,0.3339604
1607,A,288740829605827,-1.5280992,6.747459,-3.0496144,-0.3651194,0.7685883,0.29481193
1607,A,288740869829473,-1.1558008,8.324639,-1.6998832,-0.06578008,1.1403656,0.2790993
1607,A,288740909731297,-1.9387048,7.385514,-1.4323312,1.6066852,-0.80587256,-0.13156016
1607,A,288740951122964,-1.6316484,8.807071,-1.0696096,3.255448,0.3355583,-1.2149341
1607,A,288741017600776,-1.6118963,8.764574,0.7404069,2.7020433,0.47137952,-1.4652712
1607,A,288741028962755,1.8022354,8.503007,0.026934769,0.598146,-3.840811,-1.3110743
1607,A,288741069626869,2.7162218,11.9135475,-1.7423803,1.0727214,0.15526229,-1.1859057
1607,A,288741108987442,11.448474,19.612701,-2.3145945,1.1044129,2.4937842,-1.196292
1607,A,288741149122442,2.0859482,10.860099,-5.1726727,0.44421527,2.4732778,-0.2761698
1607,A,288741188293588,-0.6386533,9.98442,-0.43754035,-1.0218549,0.8375642,0.778442
1607,A,288741228667442,0.7445967,6.06571,-2.1571758,-2.3843281,-0.44927529,1.8224012
1607,A,288741268795515,0.66738373,-0.45010993,-2.132635,-1.8471686,2.9515815,0.011451593
1607,A,288741308642338,2.297835,-0.8702923,-2.8095956,1.1424961,0.19467708,-0.7837683
1607,A,288741348094213,2.0111294,2.6767175,-2.6036944,-0.6327671,-1.474326,-0.15526229
1607,A,288741388142234,1.9153614,11.390414,1.5149311,0.24767399,-1.169394,1.1155982
1607,A,288741428909734,0.39683893,14.587273,-14.268245,-1.7864485,-0.30945933,0.18322548
1607,A,288741468295984,4.693234,7.3047094,-0.44951138,-0.33768883,-0.5270396,0.11851067
1607,A,288741508261713,18.906412,18.89923,-1.2312182,-0.29507825,-0.5025385,0.6964166
1607,A,288741548133275,-0.4141969,12.018892,8.02716,-1.6788567,-0.9467538,0.60959756
1607,A,288741588003275,-0.107739076,7.0425444,1.3563153,-1.954494,-1.3025521,0.14114754
1607,A,288741627429994,5.019444,11.410167,-6.657676,-0.55793226,0.11717909,0.5587312
1607,A,288741669378692,1.7363948,12.887988,-0.6823475,-0.44501424,0.8042747,0.68682927
1607,A,288741709210722,0.87927055,8.025963,1.2120646,-0.90307796,-0.43356264,0.48496163
1607,A,288741747156556,0.53809685,6.266823,-2.6030958,-0.46818373,0.21038973,0.50653327
1607,A,288741787819786,-0.7667431,9.024943,-1.4754268,0.13475595,0.5603291,0.23489082
1607,A,288741827045359,-1.3365631,6.341043,-1.5945383,1.7251958,-1.608283,-0.1736381
1607,A,288741866858275,-0.4201824,6.913856,-2.1428106,2.9236183,1.4942998,-2.1973743
1607,A,288741907254525,-1.9740193,7.2484455,1.01574,0.9121327,-2.2077606,-0.78110516
1607,A,288741946605567,2.3127987,9.169194,-0.99898064,1.0069412,-2.5217474,-1.0548781
1607,A,288741986693483,7.7608047,17.671602,0.3196259,1.7137442,0.2972088,-0.87538105
1607,A,288742026507910,15.124172,17.141886,-3.1920695,1.3164005,1.3888385,-1.0868361
1607,A,288742066330671,0.93613285,11.416751,-4.3185415,0.598146,1.2804478,-0.2479403
1607,A,288742106261504,0.45370123,9.772532,-0.60094464,-0.8657937,0.79601884,0.70174295
1607,A,288742146654004,-0.86370826,5.6784477,-4.783615,-1.8647454,0.48522797,1.831456
1607,A,288742185850671,0.65242,0.90381116,-1.9722236,-2.360626,1.8333201,0.7616641
1607,A,288742226625098,1.7896658,0.8643068,-1.489792,-0.12996227,1.6927053,-0.013848438
1607,A,288742265658743,1.3018472,1.2354081,-1.4616601,1.3763217,-4.342284,-0.9400959
1607,A,288742305551764,3.8115692,9.754577,-1.3395559,-4.3388224,-2.3891218,-0.13369069
1607,A,288742345804473,5.5898623,15.450981,-14.170681,-0.107858025,0.043942157,0.24048345
1607,A,288742386058640,3.2746694,7.339425,-2.3654714,-0.075101145,0.09933591,0.25885928
1607,A,288742426490723,15.044565,8.168418,3.775656,0.6990798,1.5017565,0.81039995
1607,A,288742468436034,0.9672575,19.612701,13.403339,-1.4173343,0.32357407,0.31372038
1607,A,288742507221661,-4.257489,4.0719385,2.119467,-2.1925805,-1.4210628,0.2647182
1607,A,288742545466765,3.2824504,10.207081,-5.555745,-0.8657937,0.2775014,0.4926848
1607,A,288742585581244,0.65541273,10.997167,-0.7128736,-0.6372945,0.67484504,0.5616607
1607,A,288742626549524,0.2705448,11.161768,0.22685061,-0.94302535,-0.5360943,0.64794713
1607,A,288742665373691,-0.3441665,7.4166384,-0.75716627,-0.4564658,-0.57151437,0.76938725
1607,A,288742705516087,-0.7062895,8.271368,-1.6502035,0.07403588,-0.5089301,-0.036751624
1607,A,288742747232703,-0.43754035,7.0754647,-1.3670892,1.1994878,-1.2764531,-1.2554141
1607,A,288742785260201,-0.8355764,6.8839283,-0.8367735,1.9955066,0.5685849,-2.2929816
1607,A,288742824693014,-1.0773908,5.8005524,1.0714053,3.1073763,0.06551377,0.24554345
1607,A,288742865169004,3.9205053,8.565256,-1.8596961,1.8540928,-1.7473,-1.1121361
1607,A,288742904783796,8.664616,18.939333,1.5478514,1.6255935,-0.7094661,-1.9230686
1607,A,288742944807650,19.612701,18.898632,-1.1833342,1.8700718,1.0828413,-0.45007423
1607,A,288742984696504,1.6938977,12.712612,-6.5247984,-0.34647727,2.357164,0.42663842
1607,A,288743024591034,-0.50038815,12.047623,0.36511576,-1.5251924,1.8407769,1.412807
1607,A,288743064493170,2.0883424,2.8119898,-4.0162735,-0.0958738,0.12543489,1.4769892
1607,A,288743106432963,-0.46627077,-2.1978772,-3.696049,-0.8410263,-0.9984191,-1.2711269
1607,A,288743146314942,0.09816227,-3.5224693,-0.9636662,-0.1536644,-3.7792919,1.7606158
1607,A,288743186401451,-0.17477672,13.575124,-4.4580035,-2.1054952,-1.9534287,0.8250473
1607,A,288743226636867,2.112883,9.476849,-7.361572,-2.3843281,-1.2072109,1.0484866
1607,A,288743266313120,19.612701,19.612701,-0.7697359,-1.0873687,0.6396913,0.52810484
1607,A,288743303446400,3.3075895,10.401609,4.3023806,-2.4362597,-3.7617152,0.35286885
1607,A,288743343860671,2.397793,5.8532248,0.47225627,-2.3939157,-0.90946954,-0.5832323
1607,A,288743383662701,1.483208,8.58022,7.187992,-1.965413,-1.3171995,-0.6516755
1607,A,288743423661607,0.29568392,10.890625,0.47046062,-0.8825716,-2.0165455,0.119043306
1607,A,288743463202181,1.9219455,7.591415,2.4067712,-1.037035,-1.6378441,0.26977822
1607,A,288743504349472,2.4504654,7.6369047,-1.5346833,-0.897219,-0.06258429,0.25220135
1607,A,288743544785878,-0.7870938,9.945514,0.15801731,0.43649212,-0.8213189,-0.010386328
1607,A,288743585024785,-2.5061307,9.512762,0.17477672,0.9057411,-1.1195929,-0.5699165
1607,A,288743623263067,-0.5093664,11.681909,-0.8523358,2.4298682,-1.2719258,-1.5483619
1607,A,288743663185722,1.6807296,12.972981,-0.7978677,2.2407837,-0.90254533,-1.6796558
1607,A,288743704965721,3.019687,12.75511,1.5233108,1.4966966,0.861,-1.6799221
1607,A,288743744753952,3.0992942,11.009736,0.96665895,4.308995,-1.4202639,0.42424157
1607,A,288743785519941,5.5647235,11.268311,-0.87089086,2.8786108,0.04261058,-0.11451593
1607,A,288743822175774,9.806051,16.692375,3.4560301,1.6591494,1.0298444,-0.75101143
1607,A,288743862601191,-0.9415198,6.6325374,-2.1176715,1.1685951,0.8069378,-0.5866944
1607,A,288743902162597,-0.7308301,10.713454,-4.912902,-1.7760621,0.93849796,0.31292143
1607,A,288743942842337,3.0148985,5.2756233,-0.35673606,-3.0911312,0.41092578,0.53502905
1607,A,288743982367389,2.7126305,0.98820674,-3.928885,-0.9667275,-0.44554687,0.26764768
1607,A,288744022364212,0.14604631,0.8415619,-5.6221843,-0.221575,0.06231797,0.002130529
1607,A,288744062124994,-1.9512744,7.533954,-4.882974,-1.2255868,-1.871137,0.7006777
1607,A,288744103879055,0.31304187,16.95813,-4.3526587,-0.86020106,-1.0649981,1.2221247
1607,A,288744141885983,10.705673,15.196597,0.13826515,-0.360592,2.94013,-0.13608754
1607,A,288744181260149,4.6519337,8.383297,-1.9009962,-1.7361147,-2.6357305,-0.20240025
1607,A,288744221606504,5.2504845,8.804677,2.1158757,-1.6293219,-0.5571333,0.4495416
1607,A,288744261549420,-1.3670892,3.5901055,3.0921116,-1.0096043,0.16564862,0.059388492
1607,A,288744301987492,-0.9600749,9.954493,3.815759,-1.0048107,-0.3752394,0.10226539
1607,A,288744341167857,3.5745432,9.974244,-1.3186066,-0.82078624,-0.7952199,0.29294774
1607,A,288744381308326,2.3157916,8.095993,-0.35913026,-0.9558085,-0.170176,0.39920786
1607,A,288744421223014,2.2798786,9.396643,-0.79008657,-0.5816344,0.1222391,0.6599313
1607,A,288744460512754,0.3298013,9.872491,0.38187516,-0.38029942,-0.44528055,0.22583607
1607,A,288744500303327,0.20051439,7.6255326,-0.37469256,-0.262854,-0.06924219,-0.075101145
1607,A,288744540347701,0.42556936,9.547478,-0.97743285,0.34461305,-0.4063984,-0.3438141
1607,A,288744580310879,0.5105635,11.134235,0.16400282,1.834918,-0.14327806,-0.953678
1607,A,288744620218847,0.7182605,11.298837,-0.36631286,2.7585022,-0.34780884,-1.3677995
1607,A,288744660741139,0.12629414,12.293627,-0.17357962,2.3523703,1.6602147,0.2892193
1607,A,288744700052962,0.46507367,10.900801,2.332551,2.7542412,-1.2660668,-0.30333406
1607,A,288744739904889,4.624999,11.270106,0.23403321,2.28659,0.101999074,-0.25246766
1607,A,288744779828691,11.566987,8.50181,-0.7086837,1.7225326,0.8042747,-1.0053433
1607,A,288744819569108,2.211644,10.69011,-4.0827127,1.3132048,0.78776306,-0.90946954
1607,A,288744859588899,0.9451111,12.442068,-3.2758665,-0.2213087,0.5571333,-0.33955306
1607,A,288744899383535,0.30585927,6.9701195,0.6727707,-2.010953,0.77151775,0.3797668
1607,A,288744939423691,1.8800468,4.3089647,-4.6561236,-3.2671661,0.9507485,1.2921658
1607,A,288744979649889,1.7992426,3.638588,-3.5476084,-1.1366372,0.845021,1.5313177
1607,A,288745020296450,0.2801216,2.7455509,-3.8325183,0.89535475,0.8945558,-0.9709886
1607,A,288745060554941,-0.035913024,3.774459,-4.529231,-1.5326493,-2.1393173,0.38748994
1607,A,288745099611920,3.5296519,19.612701,-5.044583,-1.0889666,-0.24607609,1.3859091
1607,A,288745139665513,4.9404354,9.528923,-4.5860934,-0.0058589545,0.63196814,0.16591494
1607,A,288745181499837,13.803171,10.916363,1.8357542,-1.0908308,0.41065946,-0.4990764
1607,A,288745220559106,4.3568487,9.707291,4.2730513,-1.0751182,-2.501241,-0.5158543
1607,A,288745259095097,-0.88944596,8.497621,-0.56203884,-2.1598237,0.79415464,-0.4000068
1607,A,288745299008845,-1.7250223,3.8899791,6.666056,-0.91373056,-1.1366372,-0.08868326
1607,A,288745338796399,4.353257,10.040684,-1.6819267,-0.721184,-0.10839066,0.11957593
1607,A,288745379112961,1.6005238,9.018958,2.5378537,-1.0980214,-0.5320996,0.41438788
1607,A,288745418487388,1.4359225,8.684967,0.22984336,-0.8543421,0.073236935,0.808802
1607,A,288745459671867,-0.073621705,8.296508,0.2705448,-0.23595607,-0.30146983,0.994158
1607,A,288745502856764,-0.28311434,8.055291,0.15203181,0.013848438,0.39547944,0.002396845
1607,A,288745540532232,2.0488381,9.837775,-0.8170213,0.6716492,-0.30013826,-0.78083885
1607,A,288745579180565,0.5722142,12.556391,-2.1547816,2.7854002,0.19094865,-1.5387745
1607,A,288745620374731,-1.5771804,12.454638,1.3000516,3.13241,-0.24208134,-1.4674017
1607,A,288745660273640,1.1629834,13.182474,1.13964,2.6051042,-0.20266657,-1.4966966
1607,A,288745700210825,2.2439656,11.267712,2.3229742,3.2945967,1.3329122,-0.66152924
1607,A,288745738553743,5.1882353,12.452243,-0.99658644,2.7880633,0.6021407,-1.4319818
1607,A,288745779972543,12.3834095,9.803658,-0.6847417,3.0450585,1.6311862,-0.74675035
1607,A,288745817659472,-0.46208093,10.8152075,-0.7505822,2.3401196,0.9472864,-0.4777711
1607,A,288745857797180,-0.7703344,12.85387,-5.191228,0.050333746,0.8383631,-0.22743396
1607,A,288745897678742,3.3063924,3.7433343,0.29807812,-1.6034893,1.1198592,-0.016511599
1607,A,288745937550983,2.7539306,2.7036524,-5.130774,-1.8072212,0.71319455,0.45060685
1607,A,288745977461190,0.46088383,2.8844144,-2.9706059,-1.3749901,-0.44741106,0.22050974
1607,A,288746022618169,0.10295067,3.0657754,-4.948815,-0.55553544,-0.7555388,-0.29987195
1607,A,288746059200305,0.8984242,7.153276,-7.81228,-1.0239855,-1.5081482,0.5571333
1607,A,288746099619316,1.6621746,14.505271,-6.0848637,-2.551841,-1.8341191,1.3281184
1607,A,288746136639575,8.13849,19.612701,-8.69993,-2.8900626,-0.87138635,0.628506
1607,A,288746176737597,4.31076,5.116409,-3.1878796,-1.8495654,-0.64581656,0.6018744
1607,A,288746216234315,4.373009,5.707178,1.417966,-1.0143981,-0.19574234,1.5347798
1607,A,288746256299211,-0.2669535,12.91193,3.5051112,-0.78057253,0.9217201,0.479369
1607,A,288746296267856,0.24839842,10.184336,-4.0294414,-2.0921793,-0.391751,-0.16724652
1607,A,288746335892649,2.5611973,9.35235,-0.23044191,-0.7368967,0.1073254,0.18269286
1607,A,288746376083013,0.1364695,8.395866,0.9044097,-1.0468886,-0.08282431,0.40213734
1607,A,288746416054316,0.017357962,6.519411,-1.6597804,-1.0767161,0.42184472,0.4463458
1607,A,288746456413378,1.0354922,8.893861,0.12389994,-0.16138756,0.018375812,0.46924898
1607,A,288746495906659,0.30226797,8.577228,0.08259996,-0.4082626,-0.19520971,-0.28549087
1607,A,288746536028637,1.1210849,9.25359,-2.0470424,0.17417073,-0.14327806,-0.62531024
1607,A,288746577708169,-0.23582886,10.310031,0.18854338,1.9542277,0.5917544,-1.3510216
1607,A,288746617621189,0.23343466,10.85531,0.6123171,3.1262848,-0.68336713,-1.7313211
1607,A,288746657557492,1.441908,13.504495,1.7818847,2.4306672,0.7137272,-0.6058692
1607,A,288746697429731,2.5133133,14.100053,2.5761611,2.7092338,-1.0996193,0.29454562
1607,A,288746737354522,6.5457473,12.751518,-1.4670471,3.1313448,0.16564862,-0.17710021
1607,A,288746776614940,14.006679,7.8948803,0.12868834,1.8919097,0.45167214,-0.871919
1607,A,288746816991084,2.0667946,8.230667,-0.6410475,1.4325144,0.91799164,-0.8175905
1607,A,288746855072650,-0.50757074,11.246762,-3.1549592,-0.2231729,1.1925635,-0.3187804
1607,A,288746894807543,1.8124107,6.2123547,-2.296638,-2.1310616,1.186172,0.39627838
1607,A,288746934900617,2.344522,2.3714569,-2.778471,-2.9158952,1.2253205,0.57417756
1607,A,288746974789575,1.5490485,2.9897594,-2.7641058,-0.9291769,0.094009586,0.629305
1607,A,288747014823533,0.47405192,3.7403417,-3.168726,0.16405073,1.4439659,-0.75394094
1607,A,288747056620148,0.20051439,6.4128695,-5.692813,-0.5001417,-2.5220137,0.3043993
1607,A,288747094597961,5.4384294,19.612701,-7.7548194,-1.9813919,-0.27696875,1.4836471
1607,A,288747136471553,2.871845,8.7125,-6.4870896,0.41518682,-0.88656634,0.78323567
1607,A,288747174594575,11.28926,12.157756,0.51714754,-1.8855181,0.91852427,-0.03888215
1607,A,288747214026346,7.589619,10.857106,4.060566,-1.0735203,-1.9662119,-0.43010053
1607,A,288747254122648,-1.2120646,8.971672,-3.1016884,-2.0690098,0.2759035,-0.42743737
1607,A,288747296283324,-0.6751649,4.2850223,6.6325374,-1.0751182,-1.1630025,-0.08894958
1607,A,288747334053951,3.7786489,9.65821,0.3716998,-0.81226414,-0.05273059,0.1123854
1607,A,288747373455409,2.7623103,9.192537,1.4149733,-0.87831056,-0.44661212,0.24767399
1607,A,288747413679783,1.0995371,8.682572,-0.049081136,-0.8583368,-0.13156016,0.44821003
1607,A,288747453637856,-0.49081135,8.304887,0.24660277,-0.17124127,-0.6040049,0.4527374
1607,A,288747494111710,0.12509704,9.235035,0.055066638,-0.1486044,-0.04527374,-0.26391926
1607,A,288747535919732,1.3706805,10.123882,-1.4903905,0.5792375,-0.124902256,-0.6058692
1607,A,288747575332386,-1.0307038,11.064204,-0.58119243,2.320945,0.004527374,-0.9552759
1607,A,288747615192701,-0.6835446,11.6908865,0.3866636,3.062369,0.0974717,-1.4929681
1607,A,288747655109469,0.5931635,12.044032,0.78410107,1.9062908,0.7438209,-0.82078624
1607,A,288747695005148,1.893215,10.90918,2.7383683,1.9648803,-0.60293967,-0.058056913
1607,A,288747734912387,6.2464724,12.958616,-2.9855695,3.0637007,-0.33156356,-0.55580175
1607,A,288747774775981,13.533225,10.13705,1.5005659,2.1182783,2.2053638,-0.57098174
1607,A,288747814716396,1.2964603,9.858724,-1.1384429,1.3451627,1.1225225,-0.8807074
1607,A,288747854675669,-1.5586253,13.270461,-4.3077674,-0.3568636,0.92997587,-0.44235107
1607,A,288747893119367,1.3868413,4.8704047,1.2623428,-2.1843247,0.67244816,0.1323591
1607,A,288747932514940,2.5761611,2.1984756,-4.417302,-3.2250881,1.2170646,0.829841
1607,A,288747972214784,2.345719,2.7922378,-2.907758,-1.2828447,-0.27670243,1.5723304
1607,A,288748012375356,0.55605334,3.164536,-2.6701334,0.97418433,1.2141352,-0.70627034
1607,A,288748052283636,-0.008379706,5.0134583,-4.997896,-0.16911073,-2.380866,0.17257284
1607,A,288748092133064,4.8841715,19.612701,-6.0699,-3.319364,-0.31265512,1.3550164
1607,A,288748134050565,3.3464954,5.251083,-5.6006365,0.4910869,-1.984854,0.26525086
1607,A,288748171710147,9.892841,9.365519,2.1320367,-1.5861788,-0.21385184,0.34408042
1607,A,288748213921189,7.7823524,10.064027,3.41892,0.092944324,-0.34328148,0.39760995
1607,A,288748254354991,-2.741361,10.353725,-8.802881,-2.850914,-0.34940675,-0.13688648
1607,A,288748293563272,0.8834604,2.959832,4.471172,-1.8935076,-0.49481535,-0.50999534
1607,A,288748333502856,1.6005238,7.902063,4.9721584,-0.6892261,-0.83703154,0.23409186
1607,A,288748371572492,1.9249382,10.371083,-3.4009635,-0.6785734,-0.6261092,0.44714475
1607,A,288748411360773,0.8499416,9.345766,0.18495208,-0.8815063,-0.0127831735,0.40080574
1607,A,288748451007284,0.6596026,8.797494,1.0247183,-0.15126756,-0.55287224,0.74648404
1607,A,288748490887388,-0.54049104,8.18398,1.3515269,0.35233623,-0.25992453,-0.3787015
1607,A,288748532473064,1.8531121,9.812037,-1.4443022,1.3382385,0.17124127,-1.0069412
1607,A,288748573197387,0.55964464,13.413515,-4.5244427,3.0842068,0.42424157,-1.4583471
1607,A,288748611357127,-1.42455,12.956821,2.023699,2.8067055,0.871919,-0.6676545
1607,A,288748652643429,-0.12868834,13.341689,2.8137856,2.2900522,-1.0319749,-0.5360943
1607,A,288748692634054,4.3209357,11.154586,1.5316905,2.788596,0.3336941,0.07749799
1607,A,288748732520981,7.4082584,12.553398,-3.0825348,2.2096248,0.45593318,-1.2325109
1607,A,288748772728324,7.062895,11.535264,1.2395979,1.5587482,1.4655375,-1.1350393
1607,A,288748814563638,1.1366472,9.946711,-1.2360066,0.5659217,1.2218584,-0.55606806
1607,A,288748852228688,-0.5177461,10.997167,-4.296395,-1.6317189,1.2474247,0.081226416
1607,A,288748889866033,1.9333179,2.0278888,0.9576807,-2.9076393,1.0681939,0.42903525
1607,A,288748930089575,1.9063832,2.1823149,-3.8654387,-2.2490396,0.16777915,0.9406285
1607,A,288748970454419,0.8523358,1.9500773,-1.83336,0.9020127,1.2389026,-0.48842376
1607,A,288749009995511,0.34715924,5.9843073,-4.7243586,-0.104928546,-1.0684602,-0.4575311
1607,A,288749053567803,4.235343,19.612701,-6.5684924,-3.2088428,-1.3121395,0.6735135
1607,A,288749089814939,0.94930094,9.294291,-6.103419,-0.052464273,0.032756884,0.7709851
1607,A,288749129729209,2.2732944,2.8904,-0.6159084,-1.5028218,-1.1568772,0.61226076
1607,A,288749169357596,14.298771,13.126211,4.361637,-0.48709217,0.31824777,0.27031085
1607,A,288749210398845,2.6527755,13.8163395,6.615179,-0.79255676,0.06578008,0.20746025
1607,A,288749249133429,2.6360161,3.043629,1.5041572,-2.7771444,-0.5470133,-0.535828
1607,A,288749288880356,0.6362591,6.22672,5.707178,-1.6729978,0.03355583,-0.13022858
1607,A,288749329110773,1.4574703,10.621277,-0.6655881,-0.74115777,-0.7600662,0.5142564
1607,A,288749368852647,1.5227122,9.3738985,1.7729063,-0.74009246,-0.46205845,0.20532973
1607,A,288749408865355,2.947861,9.130288,0.2777274,-0.3864247,0.61678815,0.54914385
1607,A,288749448815667,-1.0055647,9.850943,0.86131406,0.31345406,-1.2743226,-0.23355924
1607,A,288749488807075,0.6721721,10.068216,-0.10115502,1.6346483,-0.4575311,-0.6844324
1607,A,288749528573117,1.9494787,14.780005,-4.5016975,3.0804784,0.6623282,-1.4287859
1607,A,288749570632906,1.5454572,12.472593,-0.3321955,2.915629,-0.3584615,-1.0024139
1607,A,288749608644418,-0.017956512,11.672332,2.5617957,2.6943202,-0.72624403,-0.34860778
1607,A,288749648021554,2.3223755,10.108918,3.567959,2.649579,-0.706004,-0.0029294773
1607,A,288749689694001,6.317101,13.200431,0.79726917,1.2341089,-3.3811493,-1.4290522
1607,A,288749728929105,7.441179,11.270106,-3.9211037,2.1598237,2.8700888,-1.056476
1607,A,288749767924521,0.25019407,9.523536,-1.869273,1.015996,1.4436996,-0.63676184
1607,A,288749809271345,-1.939902,11.121067,-6.1967926,-1.5310514,0.76725674,0.18136127
1607,A,288749847574627,2.7210102,2.6426,2.7287915,-2.4224114,1.1624699,0.42743737
1607,A,288749887558012,1.751957,0.41000703,-4.337695,-0.16005598,0.7502125,0.0061252704
1607,A,288749927665668,0.22984336,1.9416976,-4.1581297,0.8929579,1.0476876,-0.24021713
1607,A,288749967514366,-0.51116204,7.9954367,-5.425261,-2.9920616,-1.0506171,0.29348037
1607,A,288750008165044,0.62728083,19.612701,-6.577471,-0.35473305,-2.4722126,1.0317086
1607,A,288750047732491,4.156334,4.7243586,-6.027403,-1.7006947,-1.9779298,0.21518342
1607,A,288750087395565,6.356007,8.555081,1.1899183,-1.2255868,0.3720436,0.928378
1607,A,288750129141240,9.146449,15.489288,-4.103063,-0.96379805,1.1619372,0.5422196
1607,A,288750167503169,2.2918496,8.216302,-1.4826094,-1.7715348,-2.1116204,-0.2050634
1607,A,288750207698010,0.50517654,5.506664,2.7353754,-1.1930962,-0.16405073,-0.24714136
1607,A,288750246715825,-0.99179804,8.592192,3.0053217,-1.3680658,-0.43329632,0.09427591
1607,A,288750288768687,-2.0817583,13.024457,-2.658761,-1.3651364,0.1371528,0.2066613
1607,A,288750327250043,2.5516205,7.7997108,0.3633201,-0.86872315,-0.47484162,0.509729
1607,A,288750366515563,2.2481554,6.284181,-0.54049104,-0.63409865,-0.3206446,0.49721217
1607,A,288750406824209,0.587178,8.457518,-0.91937345,0.17204021,-0.22556975,0.20266657
1607,A,288750446226136,-0.07062895,10.128072,-0.7044938,0.42264366,-0.09134643,-0.38402784
1607,A,288750487589314,-0.4201824,11.44608,-1.1623849,1.7140105,-1.0333065,-0.7965515
1607,A,288750526128896,-0.8331822,12.00333,-0.11432313,3.4429348,0.8159926,-1.6210662
1607,A,288750568082802,-1.3257892,11.158177,-0.33997664,1.8245317,1.1092066,-0.98403805
1607,A,288750608033793,0.688333,10.337564,1.6777369,1.592304,-2.0205405,-1.4450313
1607,A,288750647900146,4.3239284,11.207857,1.6968905,1.6117451,0.6111955,-0.36884782
1607,A,288750687231865,7.888296,18.15643,-0.705691,2.5204158,1.3187973,-0.9968212
1607,A,288750727812803,7.3232646,11.473015,-3.264494,1.8269285,2.6405244,-0.5390238
1607,A,288750768110981,1.6693572,9.229648,2.2960393,-0.09960223,1.5566177,-0.11611383
1607,A,288750807517178,-1.323395,7.367557,-3.549404,-2.721218,0.87990844,0.39867523
1607,A,288750847461707,1.4933833,0.37229836,-0.7577648,-2.6501117,0.87351686,1.4226607
1607,A,288750885386033,2.9682117,1.2779051,-3.7523127,1.3590112,2.1158814,-0.42850262
1607,A,288750925070303,1.5215151,1.8561049,-3.1387985,0.66658926,-0.5339638,-0.8516789
1607,A,288750965038480,0.6715736,11.405977,-2.2870612,-2.4908545,-3.1012511,0.7203851
1607,A,288751005310355,-0.46028528,19.612701,-12.503119,-1.3901701,1.2692626,1.7821875
1607,A,288751045362021,3.8385038,2.6689363,-1.412579,-1.1278487,-0.3749731,0.88017476
1607,A,288751085190458,14.033613,14.818912,2.558803,-0.9648633,0.50786483,-0.2892193
1607,A,288751127487854,7.5788455,12.124237,6.5744777,-1.2777847,-2.0879183,-0.5203817
1607,A,288751165377960,-1.6519991,4.9200845,0.7673417,-3.114567,0.6487461,-0.8546084
1607,A,288751204957021,-1.8794483,3.721188,8.869919,-1.0796455,-1.9473034,0.24181503
1607,A,288751247193166,2.7820623,8.15106,-4.2161894,-0.83223784,-0.74115777,0.5067996
1607,A,288751284322595,3.127426,10.307038,3.8738184,-1.1243867,-0.6106629,0.6069344
1607,A,288751327487230,0.93972415,9.222465,0.45489833,-0.93130744,0.5070659,0.6849651
1607,A,288751366453532,-1.6023195,8.583812,1.3245921,-0.09321064,-0.57790595,0.14221281
1607,A,288751403884626,-0.729633,8.528147,0.6464345,0.391751,-0.65859973,-0.85753787
1607,A,288751444445615,1.7711107,13.932458,-3.4877534,2.6988475,-0.021837922,-1.2381036
1607,A,288751484434730,-2.3906105,12.114062,1.192911,3.4693,0.55606806,-1.3800501
1607,A,288751525317803,1.4030021,12.588114,0.9911995,1.9238676,0.59841233,-0.41705105
1607,A,288751564925980,1.4041992,12.522872,1.7824832,2.5286715,-1.1611383,-1.0634003
1607,A,288751605394314,4.9524064,12.396578,-1.1492168,2.3545008,-0.24580978,-0.7803062
1607,A,288751645184053,8.058285,13.89056,1.6944963,2.0477047,2.432265,-0.97072226
1607,A,288751683414574,0.54049104,11.519701,-3.2620997,1.2769858,2.4493093,-0.6540724
1607,A,288751725144000,-0.7266402,10.760141,-2.2744915,-0.7930894,1.4924355,-0.07962852
1607,A,288751765628792,0.8762778,3.7116113,0.08020575,-3.1909997,0.8199873,0.3784352
1607,A,288751805505093,1.6286557,0.58418524,-1.168969,-2.2423816,0.0974717,1.2924321
1607,A,288751845806397,1.9961656,1.1641805,-3.4404678,0.8586032,2.3643544,-0.4958806
1607,A,288751883293428,0.39743748,2.7581203,-3.6212301,0.25007084,-1.3187973,-0.13289174
1607,A,288751922927697,-0.10534488,14.233529,-3.980959,-3.371562,-1.8208033,1.2897689
1607,A,288751963064261,2.110489,18.324022,-9.832987,1.2293152,-2.2985744,1.2029499
1607,A,288752002423688,8.540716,10.601525,1.0175357,-1.3182647,1.0982877,0.21172132
1607,A,288752042952542,12.043433,11.597513,5.6736593,-1.0681939,-0.3669836,-0.2828277
1607,A,288752084854885,0.19991584,9.298481,-8.002021,-3.4453316,-2.026932,-0.582167
1607,A,288752124674729,-0.7422025,2.1745336,4.754286,-0.7795073,-1.4546186,-0.2724414
1607,A,288752164606292,-0.25318682,6.985682,8.439561,-0.42290998,0.076965354,-0.08442221
1607,A,288752204948271,3.1914709,12.947843,-8.787319,-0.9715212,-0.25300032,-0.13022858
1607,A,288752244396968,1.2294226,9.097966,-1.0660183,-1.1922972,-0.79069257,0.2615224
1607,A,288752284357333,-0.57879823,8.705916,1.0307038,-0.47697216,-0.08016115,1.0506171
1607,A,288752324159261,-0.49799395,7.645883,0.4165911,-0.53076804,-0.7105314,0.10173275
1607,A,288752361815980,2.5558102,8.152855,-0.45010993,-0.09667275,-0.25086978,-0.304133
1607,A,288752401823063,1.1133038,11.337144,-0.9911995,1.2178636,-0.4543353,-0.6178534
1607,A,288752441810719,-1.7495629,12.855666,0.40162733,2.9944584,0.027164243,-1.0543455
1607,A,288752481740719,-1.4263457,12.154165,0.035314474,2.7598338,1.0274476,-1.1456919
1607,A,288752521381969,0.6667852,12.157158,1.5819688,2.3289344,0.019973708,-0.43649212
1607,A,288752562036083,4.034828,9.643845,1.4401124,2.1816616,-0.40719733,0.15579493
1607,A,288752601431135,6.531981,12.127829,-1.6950948,2.2658174,0.6247776,-1.5962988
1607,A,288752641367437,12.913726,12.093113,1.8195933,1.6516925,2.1867216,-1.4098775
1607,A,288752680755875,0.41240123,10.039486,-2.094328,1.0013486,2.2024343,-0.77418095
1607,A,288752721163115,-1.6962919,11.670536,-3.3842041,-1.3259879,1.7049558,-0.14274544
1607,A,288752760662803,1.4383167,1.697489,0.077811554,-3.3566482,1.2058793,0.2695119
1607,A,288752801000563,2.4139538,1.5987282,-2.6797101,-2.249306,-0.32490566,1.397627
1607,A,288752840433896,1.2599486,1.2282255,-1.7860745,1.4013554,1.7350495,-0.5656554
1607,A,288752880858791,-0.055066638,4.540005,-5.265448,-0.04234426,-2.1427794,-0.2412824
1607,A,288752921044781,4.0396166,19.612701,-7.0928226,-3.9500005,-1.7398431,1.1377025
1607,A,288752960570458,0.96426475,8.721478,-5.5126495,1.2905679,-3.1065774,0.050333746
1607,A,288753000511343,4.4915223,7.2209125,1.8602947,-1.6631441,-0.4822985,0.7587346
1607,A,288753039899260,12.822147,12.568362,3.470994,0.27004454,0.59228706,0.78323567
1607,A,288753080308687,-4.1820717,17.00362,-11.484985,-1.7752632,-1.7025589,-0.09534117
1607,A,288753121708321,3.675698,2.4372973,6.1447186,-2.9808762,-0.057790596,-1.2650015
1607,A,288753161118845,1.0570401,7.267599,5.644929,-0.98590225,-1.6000272,0.0958738
1607,A,288753201390146,0.3465607,10.693104,-2.8353333,-0.4511395,-1.408546,0.5028048
1607,A,288753240009209,2.5115175,9.293094,-0.32920274,-0.3518036,-0.8050736,0.5888249
1607,A,288753279861917,2.1655555,8.48984,-1.8435353,-1.4367754,0.33182988,0.46978164
1607,A,288753319741864,-0.9103952,8.380304,1.4772224,0.3616573,-1.1819109,0.013315806
1607,A,288753359169468,0.49679685,9.184157,-0.031124622,0.58962387,-0.3089267,-0.8567389
1607,A,288753399571656,0.49799395,12.155362,-1.0845734,3.0858047,0.40400153,-1.257811
1607,A,288753439311447,-1.3311762,11.971607,-1.5035586,3.3284187,0.77897465,-1.3923006
1607,A,288753479307020,-1.4407109,12.477382,1.5406688,2.4383903,-0.42104578,-0.97445065
1607,A,288753519814105,1.6400281,10.596737,1.7375919,1.4892397,-0.7821704,-0.7755125
1607,A,288753558921707,7.133524,14.364013,-1.5263035,2.4735441,0.7203851,-1.4663365
1607,A,288753600667281,13.168708,13.565547,-0.9379285,2.2487733,2.6549053,-0.71985245
1607,A,288753640835614,0.24361002,10.699089,-1.3605051,0.7869641,1.6104136,-0.47963533
1607,A,288753678722907,-2.15538,9.801862,-0.86251116,-1.3520869,1.1211908,-0.16591494
1607,A,288753720284989,1.8171991,1.5885528,-0.4854244,-2.6474485,1.546764,0.51052797
1607,A,288753760736967,1.9045875,-0.049081136,-4.0240545,-1.9489013,1.1531488,1.4460965
1607,A,288753799789366,2.391209,0.46627077,-1.5795746,1.3235911,2.2793996,-0.021571605
1607,A,288753840566864,0.061650693,3.517681,-3.8001966,-0.75820196,-1.5414376,-0.03222425
1607,A,288753880450456,1.9201498,19.612701,-5.9501896,-2.7925909,-2.221609,0.6066681
1607,A,288753918197386,4.255095,10.714052,-9.696517,0.5134575,-1.0916297,0.112918034
1607,A,288753958046395,6.8773446,11.070788,0.55964464,-1.6764599,-0.36085832,0.6846987
1607,A,288753998660874,11.035474,11.580753,4.2036195,-0.57817227,-0.33289513,0.35633096
1607,A,288754038922749,-1.1025299,9.181165,-2.5755625,-1.9060245,-1.0743192,0.3422162
1607,A,288754078885719,1.0869676,3.007716,3.9354692,-2.218946,-0.28229508,-0.35073832
1607,A,288754118318896,-0.5069722,7.3029137,5.027225,-0.7139935,-0.7568704,-0.19680761
1607,A,288754158663531,3.6828809,11.28926,-5.197213,-0.55074173,-0.8330368,0.070041135
1607,A,288754197346760,0.46806642,10.086173,2.6647465,-1.1014835,-1.2290488,0.29987195
1607,A,288754237447542,1.127669,8.506598,0.1388637,-1.6122777,1.1464908,0.5965481
1607,A,288754277514521,-0.2753332,7.796119,1.4646529,-0.23116238,-1.1081413,0.13156016
1607,A,288754318350301,1.5047557,8.501212,0.14724341,0.49721217,0.105993815,-0.659665
1607,A,288754359042489,0.9451111,13.5930805,-1.0869676,2.6690202,0.8833706,-1.5933694
1607,A,288754397157751,-2.2212207,12.898163,0.15442601,3.1902008,1.4032196,-1.1576761
1607,A,288754436635614,-1.4053963,12.942456,2.8975825,1.9752666,-0.2282329,-0.44208476
1607,A,288754477010041,0.712275,13.785813,2.4636335,3.2083101,-1.5084145,0.22530343
1607,A,288754516574677,6.5565214,13.627796,-2.3930047,2.9691584,0.2692456,-0.69135666
1607,A,288754558258114,19.529503,8.623316,1.8543092,1.871137,1.4567492,-1.2138689
1607,A,288754598461655,0.9900024,7.0784574,-1.174356,0.9869675,1.4285196,-1.000017
1607,A,288754638477644,-1.2814964,10.724228,-2.1757307,-1.197091,1.1773835,-0.4135889
1607,A,288754678486760,0.6961141,3.9875429,-1.6496049,-3.320962,1.4405038,0.30999196
1607,A,288754717811291,1.8417397,2.220622,-3.117849,-2.5110946,0.15526229,1.4652712
1607,A,288754758250353,1.6448165,1.4879963,-3.1836896,1.6868463,2.0804615,-0.5025385
1607,A,288754796060928,-0.26755205,2.35769,-5.2121773,0.3422162,-1.8221349,-0.2727077
1607,A,288754836193843,1.9488802,18.347366,-3.3464954,-3.921771,-1.6450347,1.0839065
1607,A,288754877974883,2.321777,13.020866,-9.293693,1.0492855,-2.508964,0.31664985
1607,A,288754915484469,6.67683,8.161235,0.32680854,-1.7957696,0.24527714,0.7163904
1607,A,288754955871396,11.423335,10.780492,5.081693,-0.13209279,-0.24980451,0.08548747
1607,A,288754995832854,-1.0905589,13.415909,3.3129766,-2.847452,-1.3073457,-0.38136467
1607,A,288755036548531,1.9806033,3.6577415,3.4500446,-1.9816582,-0.3965447,-0.58429754
1607,A,288755077568895,1.1234791,6.827066,6.619968,-0.86659265,-1.0977551,0.16325177
1607,A,288755115396760,3.1130607,9.753379,-4.717176,-0.7600662,-0.6628608,0.3930826
1607,A,288755155190613,0.56323594,9.672575,1.1845313,-0.95208013,-0.721184,0.49987534
1607,A,288755195025300,0.34117374,8.814254,1.0815806,-0.88843054,0.24101609,1.026915
1607,A,288755235837957,-1.3724761,7.867945,1.3748703,-0.0039947415,-0.6013418,-0.03195793
1607,A,288755277049155,1.5592239,9.065046,-0.30825347,0.6740461,-0.40559945,-0.7688546
1607,A,288755316918789,0.9187749,13.236344,-2.9137435,3.037069,0.7603325,-1.1313108
1607,A,288755356827228,-2.4558525,12.153566,1.0803835,3.02109,0.41518682,-1.5403724
1607,A,288755394948739,0.53570265,11.77229,0.3333926,2.3347933,0.86606,-0.6982809
1607,A,288755434921185,0.6452374,11.173739,2.244564,2.3579628,-1.5145397,-0.3206446
1607,A,288755474337958,6.4739213,13.152547,-0.09696517,2.534264,0.2213087,-0.99282646
1607,A,288755514535093,17.518972,13.521255,0.06703765,2.0463731,3.1342742,-1.1126688
1607,A,288755553839259,0.3549404,8.629301,-2.2786815,1.0807108,1.8503643,-0.727043
1607,A,288755593738998,-0.9780314,10.254366,-0.99419224,-1.5022892,1.4088123,-0.17630127
1607,A,288755634173634,0.961272,3.5152867,0.037110128,-3.37316,0.79442096,0.3291667
1607,A,288755675000300,2.5420437,-0.075417355,-2.086547,-1.8881812,-0.016245283,1.7366474
1607,A,288755714102020,1.83336,0.016759412,-3.9360676,1.7182716,2.2429142,-0.54807854
1607,A,288755755358686,-0.6536171,4.074931,-3.5284548,0.017310547,-2.147307,-0.3123888
1607,A,288755794394467,4.4963107,19.612701,-7.9864583,-3.5955338,-1.1723236,1.0980214
1607,A,288755833694416,1.1480197,8.690353,-7.0904284,0.7289072,-2.6724823,0.5765744
1607,A,288755874546655,6.120178,10.227431,1.5280992,-1.5611451,0.35739622,0.8410263
1607,A,288755912884468,12.719196,12.51928,5.7137623,-0.064182185,-0.20799288,0.1222391
1607,A,288755952831291,-2.304419,13.261483,-1.5358804,-3.1419976,-0.47004795,-0.4101268
1607,A,288755992782801,1.5556326,2.2104468,4.9583917,-1.160073,-2.163552,-0.32597092
1607,A,288756032593166,1.9476831,6.3404446,6.666056,-0.6085323,-0.93450326,0.13422333
1607,A,288756072432176,3.5063083,10.682928,-4.000711,-0.85061365,-0.43888897,0.25033715
1607,A,288756112538166,1.1390414,9.816826,-1.9201498,-1.1198592,-0.55979645,0.43542686
1607,A,288756153398114,-0.10055647,7.817667,1.3515269,-0.60507023,-0.09427591,0.90254533
1607,A,288756194248582,-1.2922704,7.9846625,0.6326678,0.32011196,-0.18295917,-0.18402444
1607,A,288756234735873,0.84096336,8.935161,-1.3784616,0.8021441,-0.47244477,-0.74728304
1607,A,288756274656083,0.03172317,12.955624,-3.4674027,3.2919335,0.84022737,-1.5169365
1607,A,288756314470247,-1.9662381,12.559982,0.9139865,3.3899379,1.438107,-1.5550197
1607,A,288756354400093,-0.25258827,12.692262,1.0013748,1.0468886,-0.52597433,-1.0431602
1607,A,288756394298006,1.1318588,10.406398,1.2425907,2.2897859,-0.15472966,-0.38589206
1607,A,288756431770250,6.337452,13.34109,-0.9223662,2.606702,0.55553544,-1.5512913
1607,A,288756471837331,17.52017,13.146562,2.248754,1.8620822,3.263704,-0.8745821
1607,A,288756512552645,0.5805939,11.401787,-1.5747862,0.9504822,1.6325178,-0.42583945
1607,A,288756553387383,-1.673547,11.945869,-2.4115596,-1.4239923,1.2916331,-0.12756541
1607,A,288756593795041,1.9231426,1.5622166,1.062427,-2.8232172,0.8748484,0.35606465
1607,A,288756633105455,2.6384103,1.3976152,-4.281431,-2.3720777,0.15020229,1.6066852
1607,A,288756673626032,2.1936872,1.9189527,-1.9967642,1.6772588,2.0138824,-0.49508166
1607,A,288756711652383,0.6290765,3.4398694,-3.0232782,0.10705908,-1.3896375,-0.51026165
1607,A,288756753453895,3.4524388,18.637064,-4.969166,-3.671434,-2.2751386,0.6740461
1607,A,288756794240820,0.43155485,12.308591,-8.333617,0.6079997,-1.5049523,0.2926814
1607,A,288756833229414,3.702633,4.2161894,-5.985504E-4,-2.0335898,-0.1206412,0.6578008
1607,A,288756873650145,15.461755,14.057555,2.493561,-0.3406183,0.5816344,0.39041942
1607,A,288756911236758,-0.33758244,15.8556,3.5511997,-1.26367,-1.2349079,0.27350664
1607,A,288756950793114,4.1455603,3.1495724,5.590461,-2.4892566,-0.7121293,-0.57364494
1607,A,288756990624728,-0.13347675,5.0637364,6.4469867,-0.8317052,-1.267132,-0.018642128
1607,A,288757030643895,2.9161377,10.146626,-7.4854717,-0.5792375,-0.7779094,0.1272991
1607,A,288757070487176,1.7196354,10.487202,2.088941,-0.9901633,-1.0791129,0.21225394
1607,A,288757110764363,1.5688007,8.923788,0.4177882,-1.2660668,0.51319116,0.5725796
1607,A,288757152467228,-0.7194576,8.070854,1.2725182,-0.023702133,-0.72624403,0.24873926
1607,A,288757191266654,0.6997054,8.726865,-0.1400608,0.40426785,-0.46046057,-0.6106629
1607,A,288757232787695,0.31483752,11.764508,-2.0757728,2.2003038,0.27377295,-1.0005497
1607,A,288757271338480,-1.8507179,12.483966,-0.39324763,3.1984565,0.6309029,-1.6711336
1607,A,288757311597538,-2.1045034,12.29662,1.6765398,2.0295951,0.71133035,-0.8021441
1607,A,288757351996130,1.3102269,12.214619,1.7681179,2.702576,-1.8730012,-0.33316147
1607,A,288757391885046,6.090849,12.058995,-0.5674258,2.8083034,0.19574234,-0.44501424
1607,A,288757429674102,15.499463,12.681488,-1.4598645,2.0682108,2.2034996,-1.0879014
1607,A,288757469749365,2.083554,9.390657,-0.96426475,1.0381002,1.8908445,-0.9155948
1607,A,288757509622018,-1.3383588,10.632649,0.14185645,-0.5832323,1.5779229,-0.37896782
1607,A,288757550661498,-1.1139023,6.0890536,-2.4917655,-2.8956552,1.2186625,0.16751283
1607,A,288757591988530,1.8082209,0.61530983,-1.1911154,-2.7294738,0.43249738,1.2362394
1607,A,288757629262591,2.532467,0.8924387,-3.481768,1.417068,2.1574268,-0.22370553
1607,A,288757669490768,0.22445641,1.2389994,-3.5673606,0.7680557,0.30519825,-0.7286409
1607,A,288757711143113,-0.20590134,11.152191,-2.552219,-2.7688887,-3.309244,1.1837751
1607,A,288757751047904,0.81402856,19.612701,-10.388441,-2.2833943,1.8887138,1.201352
1607,A,288757790969311,3.098097,1.7058687,-2.1918917,-1.9142802,-0.6823019,0.8330368
1607,A,288757830789987,17.299305,15.188217,3.245939,-0.44341633,1.0149307,-0.12836437
1607,A,288757870765352,4.666898,12.966996,15.333665,-1.490305,-1.3925669,-0.23062976
1607,A,288757908187488,1.8674773,4.796783,0.4177882,-2.0785973,-1.7425064,-0.54648066
1607,A,288757948862748,0.25438392,3.0454245,7.6841903,-1.1275824,-1.3060142,0.083090626
1607,A,288757988501498,4.207211,9.351752,-7.8972745,-0.8793758,-0.9257148,0.4511395
1607,A,288758028159206,1.8872294,10.906786,2.5785553,-0.9502159,-1.139034,0.51984906
1607,A,288758069172592,1.2653356,8.692748,0.58418524,-1.1510183,0.871919,0.6423545
1607,A,288758108165040,-1.6364368,8.383896,1.6262615,-0.0061252704,-0.8538095,0.08948222
1607,A,288758148179466,-0.3854665,8.034941,0.22924481,0.09773801,-0.36884782,-0.25539714
1607,A,288758187518218,1.1031284,12.667721,-1.8854338,1.903095,-0.06897587,-0.81066626
1607,A,288758227407435,-1.4293385,11.650186,-0.2088941,3.216566,-0.23409186,-1.9931098
1607,A,288758267319728,-0.7068881,12.222999,0.41120413,2.474343,1.22319,-1.1004182
1607,A,288758308726967,-0.095768064,11.1096945,2.7275944,1.6594157,-2.0410466,-1.0354371
1607,A,288758348828424,4.903325,11.751341,1.965041,2.5454495,1.096956,-0.5584649
1607,A,288758387140666,11.087548,16.320076,-3.3010056,2.5371935,1.8833876,-0.9984191
1607,A,288758427223842,3.2956185,12.153566,1.4975731,1.9750003,2.544118,-0.39121836
1607,A,288758467288165,0.39624038,11.167754,0.6895301,0.28043085,1.8967034,0.087618
1607,A,288758506739988,-1.0761937,8.405443,-2.27928,-2.4349282,0.89162636,0.4631237
1607,A,288758547183060,2.9592333,-0.9648633,0.56443304,-2.3672838,1.1712582,0.6527408
1607,A,288758587959309,2.2559366,1.1480197,-3.6332011,-1.1725899,0.7965515,-0.05912218
1607,A,288758626950821,0.6793547,2.5330653,-2.40318,0.4854943,1.8996328,-1.0588728
1607,A,288758667703790,0.08678981,8.177396,-1.4269443,-1.4767228,-4.0365534,0.23675503
1607,A,288758706860560,1.5831659,19.612701,-5.301361,0.56725335,-0.24714136,1.1922972
1607,A,288758747927278,4.5418005,9.569026,-6.168062,-0.6087986,0.9920275,0.004261058
1607,A,288758787763164,8.953716,16.105795,0.38606504,-1.1845741,1.1171961,-0.012516857
1607,A,288758827690664,6.715137,8.114548,2.1188686,-1.8887138,-1.8967034,-0.51718587
1607,A,288758867627591,-0.97862995,8.570643,4.670489,-0.6660566,-0.6583334,-0.30945933
1607,A,288758907781289,-2.6150668,7.315483,4.6621094,-1.0610034,-0.88017476,-0.07350325
1607,A,288758945906707,3.7391446,9.880272,-2.6378117,-1.1659319,-0.5850965,-0.07483483
1607,A,288758985906968,4.7548847,8.239047,1.4975731,-0.85966843,-0.9422264,0.16431704
1607,A,288759026205613,0.9624691,8.051102,-0.08738836,-0.6314355,-0.23595607,0.35473305
1607,A,288759066867383,-1.2054806,8.681973,-0.18255788,-0.37950045,-0.5305017,0.3155846
1607,A,288759105881394,-0.777517,8.882488,-0.22266077,-0.31025827,-1.1467572,-0.06711166
1607,A,288759146777956,0.31483752,8.970475,-0.52732295,-0.5850965,0.029028457,-0.36645097
1607,A,288759185162278,0.9044097,9.871892,-1.7286136,0.37071204,-0.09614012,-0.43569317
1607,A,288759225187851,-1.2773066,10.016742,0.54049104,2.0540962,-0.262854,-0.9552759
1607,A,288759267035195,-1.8770541,12.893973,0.7553706,2.8176246,-0.69322085,-1.3222595
1607,A,288759306528477,-0.08619126,15.261839,0.25079262,2.8889973,0.91612744,-0.020772656
1607,A,288759346470977,2.0284874,12.442068,2.2176294,1.5869777,-1.3321131,0.047670584
1607,A,288759386842017,4.370615,9.721656,-1.7130513,2.8133633,0.35633096,-0.12170646
1607,A,288759424916862,5.0427876,8.762778,-2.067393,1.3084111,-0.08362326,-1.0128002
1607,A,288759464628685,7.8368206,12.7497225,1.0564415,0.89801794,1.0977551,-0.8583368
1607,A,288759504817851,-0.47644615,11.812392,-5.3342814,-0.2862898,1.5499598,-0.36245623
1607,A,288759545896602,0.0035913025,5.4402246,-2.5839422,-1.7723337,0.6852314,0.376571
1607,A,288759585816499,0.7697359,4.0138793,-3.8301241,-2.722017,0.40852892,0.77604514
1607,A,288759624652121,1.3509283,3.560178,-2.8820202,-1.5696672,-0.22370553,1.4823155
1607,A,288759664689363,0.4878186,3.0400376,-3.9893386,0.9978865,1.6018914,-0.43356264
1607,A,288759704691236,1.5280992,4.372411,-4.9182887,0.43755737,-0.5113269,-0.60933125
1607,A,288759746195925,2.7042508,15.22413,-5.9082913,-2.6969833,-0.91373056,0.74461985
1607,A,288759786386603,-1.7196354,18.166006,-9.923966,0.1898834,-1.5752598,1.1262509
1607,A,288759826319518,1.3245921,4.150947,-0.3309984,-1.8181401,0.6593987,0.8855011
1607,A,288759866183370,13.164518,12.373833,3.1465795,-0.20905815,0.48469532,0.09960223
1607,A,288759906107029,0.31244332,12.268488,-5.4593782,-3.062369,-0.6197176,-0.3334278
1607,A,288759943461753,4.261679,2.3104045,8.502409,-0.86845684,-1.3933659,-0.33529198
1607,A,288759983898948,-0.46746787,6.7241154,4.7255554,-0.57817227,-0.47963533,-0.094009586
1607,A,288760023639309,2.3002293,10.460267,-1.0295067,-0.8700547,-0.93184006,-0.14567491
1607,A,288760063548058,3.4105403,9.0554695,-1.3102269,-1.107076,-0.48948902,0.5515407
1607,A,288760104327540,0.10354923,8.608353,-0.013766659,-0.69322085,-0.8279768,0.9403622
1607,A,288760145504622,0.41299978,7.5572977,-0.4405331,-0.4016047,-0.14274544,0.5456817
1607,A,288760185451393,0.7032967,9.148843,-0.5033809,0.041545313,-0.3438141,-0.18642128
1607,A,288760225317016,-0.050278235,10.152014,-0.0724246,1.3137374,-0.5142564,-1.0836402
1607,A,288760265215041,-0.10594343,12.518084,-0.5009867,3.3031187,0.0628506,-1.7281252
1607,A,288760305255661,-1.6711528,12.431892,0.2208651,3.3148367,0.8759137,-1.2000204
1607,A,288760346547488,0.5770026,13.957598,2.5240872,2.177667,-1.6700684,-1.0138655
1607,A,288760384914674,3.9264908,11.131841,2.9257145,2.23599,0.75607145,-0.82850945
1607,A,288760422423788,6.7103486,13.79539,-3.6774938,2.0338562,2.4604945,-1.4072144
1607,A,288760462804987,5.3725886,11.993155,-2.119467,1.4234596,2.6474485,-0.91452956
1607,A,288760502484831,-1.7328035,11.197681,0.6362591,0.60959756,1.8229338,-0.3901531
1607,A,288760542372018,-0.82719666,8.06427,-3.2148144,-1.7417074,1.133974,0.006657903
1607,A,288760583772799,2.959832,0.46447513,1.2904748,-3.0186932,0.9502159,0.5363607
1607,A,288760623770403,2.533664,1.5029601,-3.66672,-2.0863204,0.907339,1.5789882
1607,A,288760664176758,1.2096704,1.1420342,-1.7118542,1.9686087,2.2213428,-0.6777745
1607,A,288760703974986,-0.1328782,4.767454,-3.108871,0.12783173,-2.0865867,-0.19441076
1607,A,288760743985091,8.127716,19.612701,-5.7520695,-3.187005,-1.0436928,0.8841695
1607,A,288760783871185,0.7170634,9.727043,-10.268731,0.93610114,-2.183792,0.29933932
1607,A,288760824224361,5.8119245,10.368091,3.5230677,-2.0849888,-0.033289514,0.47377637
1607,A,288760863679935,10.865486,11.563994,5.185242,-0.017576864,-0.57284594,0.22210763
1607,A,288760903617694,-2.0320787,11.808203,-8.541913,-3.3135052,0.05965481,-0.3075951
1607,A,288760940997540,2.9783869,3.321955,5.9292407,-1.1832424,-1.918275,-0.45460162
1607,A,288760980763529,1.9512744,8.01878,5.856816,-0.4892227,-0.44900897,-0.13688648
1607,A,288761020977695,2.211644,10.596138,-0.79846627,-0.8633968,-0.8926916,0.038615838
1607,A,288761060901810,1.1994951,8.902839,-0.82899237,-1.1171961,-0.57817227,0.4822985
1607,A,288761101137018,-0.06943185,8.476671,0.6913257,-0.7880294,-0.055926383,0.8346347
1607,A,288761142619153,-0.2657564,7.8691425,0.37708676,-0.40107206,-0.52171326,0.24367924
1607,A,288761181120090,1.3664906,8.422203,-0.12569559,-0.04527374,0.010652645,-0.49002165
1607,A,288761222119881,0.32202014,10.92175,-1.1336545,1.3084111,-0.8479505,-0.7914915
1607,A,288761262959778,-0.6769605,12.352285,-0.05207389,3.2205608,-0.018375812,-1.3267869
1607,A,288761302646133,-1.5370775,12.962807,0.6979098,3.2192292,1.3744575,-1.2399678
1607,A,288761342597903,0.37708676,12.621633,0.6278794,1.5017565,-0.48496163,-1.0290455
1607,A,288761382567018,3.6056678,10.183737,1.79206,2.0165455,-0.7845673,-0.116912775
1607,A,288761420297435,6.3727665,11.920731,-2.172738,2.245844,0.32996565,-1.2040151
1607,A,288761459909882,10.933721,14.501081,2.7910407,1.7102821,2.7904603,-1.0026802
1607,A,288761499835508,1.091756,10.316615,-2.2882583,1.0793792,2.2666163,-0.454069
1607,A,288761540255612,-1.5119383,10.860698,-1.3156139,-1.4274544,1.2929647,0.06737798
1607,A,288761579737227,1.4036007,1.6340426,0.24779987,-3.2061796,0.64714813,0.21731395
1607,A,288761619560091,1.9494787,0.7015011,-3.068768,-2.2248049,-0.083889574,1.1531488
1607,A,288761661316966,1.6184803,1.9321208,-2.6719291,1.1930962,2.034655,-0.7099988
1607,A,288761699446184,0.36391866,4.9655743,-3.757101,-0.025033714,-2.1840584,-0.6037386
1607,A,288761738974205,5.46297,19.612701,-6.479907,-3.3228261,0.104928546,1.0218549
1607,A,288761778809726,-0.65062433,10.787674,-8.1480665,0.9914949,-3.3784862,0.20026971
1607,A,288761819125976,4.973954,7.3071036,0.729633,-1.989115,0.13502227,0.17736652
1607,A,288761859070091,11.555016,14.353239,3.50571,0.2796319,-0.52437645,0.60054284
1607,A,288761899055143,-2.2511482,13.751098,-9.394848,-2.756638,-0.7432883,-0.44235107
1607,A,288761938913216,3.5942953,3.630807,7.559692,-1.4383733,-1.2857742,-0.47617322
1607,A,288761979042799,1.6190789,6.633734,5.2822075,-0.69348717,-1.3017532,0.04447479
1607,A,288762018804309,2.0153193,10.025121,0.17776948,-0.8042747,-1.0104034,0.22956449
1607,A,288762059023840,2.8862102,8.704121,-1.2360066,-1.1720573,-0.6173208,0.45486793
1607,A,288762100423215,-5.985504E-4,8.7538,0.5243302,-0.69135666,-0.40107206,0.9129316
1607,A,288762139470299,-0.84934306,7.9906483,1.027711,-0.39547944,-0.5571333,0.2644519
1607,A,288762178222798,0.97743285,8.397662,-0.8122329,-0.2743056,-0.21252026,-0.41598576
1607,A,288762218475195,0.09876082,10.246585,-2.0769699,1.2389026,-0.5946839,-0.8380968
1607,A,288762258209674,-1.8668787,11.304223,0.6955156,2.7744813,-0.6775082,-1.8354506
1607,A,288762297589257,-0.61650693,12.652159,-0.6853402,2.9816751,0.6165218,-1.1776499
1607,A,288762338035039,0.0700304,13.518261,1.7549498,1.7627463,-0.59388494,-0.91346425
1607,A,288762377938789,4.2425256,11.841722,2.327164,2.821353,-0.22290659,-0.25353295
1607,A,288762417812486,7.4681134,14.205996,-4.577115,2.3936493,1.9201392,-0.8338358
1607,A,288762457375039,5.61141,12.491149,4.494515,2.038916,2.2125542,-0.37736994
1607,A,288762497544205,-0.7727286,11.837532,-3.5745432,0.6775082,1.7672738,-0.022370555
1607,A,288762537480454,-0.59017074,9.654618,-1.9363106,-1.9675435,1.1065434,0.24474451
1607,A,288762578424517,2.7030537,0.18315643,0.37948096,-2.9784794,0.69535136,0.34807515
1607,A,288762617999465,2.7575219,1.0462662,-3.2603042,-1.5587482,0.31478566,1.230913
1607,A,288762659362903,0.50757074,1.4359225,-2.066196,1.1627362,1.2077435,-0.46658584
1607,A,288762697193268,0.095768064,5.8238955,-3.6535518,-0.4788364,-1.7230653,-0.10466223
1607,A,288762736808997,8.365341,19.612701,-9.471462,-3.2109735,0.041012682,0.9105348
1607,A,288762776686757,-0.022146367,8.583812,-6.5481415,0.9917612,-1.4290522,0.54914385
1607,A,288762816938475,5.1050367,9.648034,1.2042835,-1.4072144,0.8514126,-0.026631612
1607,A,288762858282850,9.717466,13.595474,4.032434,-0.5478122,-0.5384912,0.29854035
1607,A,288762896252122,-0.70509243,10.225037,-10.474034,-3.063967,0.45699844,-0.2743056
1607,A,288762935911757,0.3369839,2.7515364,6.123171,-0.9872338,-1.1994878,-0.3669836
1607,A,288762976270403,1.3700819,7.417835,5.881955,-0.93184006,-0.27004454,-0.2593919
1607,A,288763015662017,2.8383262,11.3138,0.17477672,-0.86685896,-0.49321744,0.06018744
1607,A,288763055663996,1.7597382,8.936956,0.18734628,-1.034638,-0.5571333,0.5049353
1607,A,288763096046028,0.59615624,7.7207017,0.30166942,-0.8727179,-0.41518682,0.7768441
1607,A,288763135668423,0.23343466,7.6375036,-0.05686229,-0.4082626,-0.14594123,0.5888249
1607,A,288763176110351,0.3286042,8.59698,-0.1412579,0.2695119,-0.44368264,-0.71292824
1607,A,288763216058997,0.9008184,9.80665,-0.8110358,1.6165388,-0.124902256,-1.4191985
1607,A,288763255611913,-0.7194576,12.145785,-0.7577648,3.3435988,-0.43702474,-1.7678064
1607,A,288763296014674,-1.8016368,12.852674,1.8579005,2.3736756,1.2258531,-1.0492855
1607,A,288763336249205,0.5710171,14.251486,2.4133554,1.7094831,-2.7816718,-0.07669904
1607,A,288763375382434,6.415862,13.265673,0.91578215,2.9933932,0.7254451,-0.748082
1607,A,288763416682329,16.80131,9.523536,-2.1386206,2.751578,2.193113,-0.8082694
1607,A,288763454905350,3.46022,9.57142,0.37229836,1.7587516,1.6194683,-0.5091964
1607,A,288763494784204,-1.198298,13.779828,0.78410107,-0.006657903,1.0740529,-0.19947077
1607,A,288763534929048,-1.3640964,5.5324016,-1.827973,-2.1310616,0.8625979,0.11638014
1607,A,288763574637640,2.5480292,0.12389994,-3.3734303,-3.1891356,1.0338391,0.51052797
1607,A,288763614508996,2.3110032,2.854487,-3.4464533,-1.6847157,-0.012250541,1.4543523
1607,A,288763654487329,0.587178,1.5987282,-1.3311762,1.1603394,1.8362496,-0.67990506
1607,A,288763694852329,-0.99898064,4.9176903,-4.281431,-0.040746365,-2.428803,0.13209279
1607,A,288763734410559,5.7736173,19.612701,-5.591658,-2.9523804,0.56751966,0.9121327
1607,A,288763774449882,-0.33518824,9.464878,-7.3747396,0.35979307,-2.3052323,0.47244477
1607,A,288763814358058,6.7887588,12.49055,1.210269,-1.4168017,0.76485986,0.122771725
1607,A,288763853973057,9.221867,13.046005,4.924873,-0.010918961,-1.1496867,0.13129385
1607,A,288763896046184,-2.2697031,8.59698,-9.126099,-2.2631543,-1.1555456,-0.42770368
1607,A,288763934069516,1.2150574,2.3636756,5.509058,-1.3417006,-1.1478225,-0.3075951
1607,A,288763973605454,4.1138372,8.069656,-1.2958617,-0.8836369,0.0026631611,0.20213392
1607,A,288764013777746,1.496376,10.751761,2.396596,-1.0199907,-0.5044027,0.42717105
1607,A,288764053844673,1.8608932,8.070854,0.9115923,-1.0231866,-0.40053943,0.65194184
1607,A,288764093583891,-0.33159694,8.164826,1.5568297,-0.5659217,-0.7030745,0.74435353
1607,A,288764133603682,-0.033518825,8.516774,0.5303157,-0.13821806,-0.24154872,0.10945592
1607,A,288764173485089,1.7735049,9.103952,-0.84216046,0.25007084,-0.5107943,-0.67937243
1607,A,288764214456080,-0.16879122,11.432912,-1.5921441,2.14491,-0.058056913,-1.0005497
1607,A,288764255123214,-1.5412674,11.992557,0.8194155,3.4232273,-0.20932446,-1.6309199
1607,A,288764294975454,0.6290765,12.759299,0.8936358,2.1007016,0.984837,-0.7736483
1607,A,288764334935610,1.3180081,12.546814,1.7040731,2.0668793,-2.478604,-0.25752768
1607,A,288764374877693,5.831078,12.649166,-1.34195,2.774215,0.6676545,-0.1555286
1607,A,288764415240714,12.874221,9.473856,0.8571242,2.0034962,1.9824572,-0.79069257
1607,A,288764452445923,1.2605472,10.675147,-3.13401,1.3552827,1.717739,-0.6593987
1607,A,288764492293996,-1.192911,11.008539,-0.694917,-0.6101302,1.35475,-0.26871297
1607,A,288764532519569,0.93493575,5.7760115,-1.7537527,-2.7126958,0.808802,0.2609898
1607,A,288764573470193,2.5396495,0.7978677,-1.6274586,-2.186189,0.92651373,0.9254485
1607,A,288764612146340,2.5192988,1.6077064,-3.527856,0.59095544,2.0953753,-0.032490566
1607,A,288764652068578,0.5793968,3.5290532,-3.4632127,0.5496765,0.63010395,-0.6202502
1607,A,288764692058110,0.8870517,12.199655,-3.839701,-1.3257216,-2.3273365,0.37896782
1607,A,288764734100193,1.1737574,19.612701,-9.758167,-2.5566347,0.70493877,1.1968247
1607,A,288764774388266,3.493739,6.413468,-4.1383777,-0.21997711,-0.8652611,0.7273093
1607,A,288764813835870,10.805631,11.45865,1.0151415,-1.0500845,-0.48309743,-0.00958738
1607,A,288764851492381,6.881534,13.202826,6.875549,-0.79921466,-0.12037488,0.072970614
1607,A,288764891401652,0.9947908,7.5207863,-2.8341362,-2.1877868,-0.5475459,-0.37284255
1607,A,288764931500298,0.60214174,3.8073792,5.917868,-0.88203895,-1.1294466,-0.21172132
1607,A,288764971219881,4.0054994,8.562862,-3.5230677,-0.7137272,-0.23702134,0.070307456
1607,A,288765011257068,1.055843,10.597335,2.3050177,-0.85061365,-0.8375642,0.16058862
1607,A,288765051090975,2.066196,8.711303,1.1994951,-0.9403622,-0.5299691,0.4383563
1607,A,288765091412015,0.024540568,8.760384,0.8146271,-0.5834986,-0.3787015,0.71106404
1607,A,288765132692589,-0.046088383,8.428188,-0.22565351,-0.10679276,-0.10892329,0.20479709
1607,A,288765170920140,0.96306765,8.218098,-0.4309563,-0.16458336,-0.03542004,-0.33156356
1607,A,288765210719567,0.6901286,11.326369,-1.1510124,1.7606158,-0.30386668,-0.8375642
1607,A,288765250311286,-1.5131354,11.521497,1.0690111,3.0250847,-0.26871297,-1.551025
1607,A,288765290354047,-1.5316905,12.8209505,0.6679823,2.5310683,1.4426343,-0.850081
1607,A,288765330329724,1.0061632,12.834717,1.5394717,1.9672772,-2.149171,-0.27803403
1607,A,288765370170922,6.6534867,13.168708,-1.122282,2.3971114,0.47963533,-0.0644485
1607,A,288765409969203,8.349778,10.75655,-0.42078096,2.0165455,1.8674086,-1.1646004
1607,A,288765450053734,3.4410665,11.250953,-0.89423436,1.3371732,2.3425164,-1.0652645
1607,A,288765490462067,-0.46507367,12.042236,-0.42437226,0.006657903,1.2801815,-0.77604514
1607,A,288765529733422,0.6242881,8.059482,-3.228581,-1.9584887,0.45566687,-0.20133498
1607,A,288765571028109,2.5995045,0.8403648,0.30346507,-2.5784726,0.7621967,0.3901531
1607,A,288765610794256,2.3906105,2.5785553,-4.3760023,-2.051433,0.48389637,1.1105382
1607,A,288765649643787,1.2156559,2.791639,-1.0600328,1.2431636,1.2607405,-0.36272255
1607,A,288765689823162,-0.29927522,5.503671,-2.8191724,0.1768339,-0.91799164,-0.42557314
1607,A,288765730565975,2.7024553,16.547525,-4.8973393,-2.49698,-1.467668,0.68363345
1607,A,288765771015454,0.4189853,14.744691,-9.299079,-0.793622,-0.74035877,0.49135324
1607,A,288765811522381,3.292626,6.203975,-1.1611878,-1.2868395,-0.0479369,1.1033477
1607,A,288765851769411,14.474147,14.033014,1.9249382,-0.041012682,0.019441076,0.30706248
1607,A,288765890848683,1.6921021,10.891822,7.968502,-1.3960291,-1.6564863,0.1818939
1607,A,288765929218006,4.0497923,5.3995233,3.6349967,-2.675678,0.10892329,-0.7848336
1607,A,288765969095922,0.8846575,5.4061074,7.343615,-0.5861618,-1.5076156,-0.20479709
1607,A,288766008916183,3.2124202,10.216658,-7.451354,-0.572047,-0.70200926,-0.017310547
1607,A,288766048610402,1.4945804,10.804434,3.821146,-0.948618,-0.7965515,0.22397186
1607,A,288766088882120,1.590947,9.121908,0.6991069,-1.030377,-0.029827405,0.63409865
1607,A,288766130728162,-0.6171055,8.10138,0.60094464,-0.3334278,-0.43329632,0.6692524
1607,A,288766168740610,-0.12270284,8.4108305,0.013766659,0.10040118,-0.3304983,-0.18961707
1607,A,288766208819045,0.33159694,9.648034,-1.5035586,0.39494678,-0.20266657,-0.8162589
1607,A,288766250325714,-0.3489549,12.031462,-0.7410054,2.6844664,-0.046339005,-1.4357102
1607,A,288766290260037,-0.7906851,12.435484,1.3257892,2.9236183,0.34088463,-1.3110743
1607,A,288766327880245,0.75357497,13.359047,1.3814543,1.4769892,-0.56006277,-0.96965694
1607,A,288766370083735,3.8732197,12.105083,1.7723078,3.2128377,0.24927188,0.35340148
1607,A,288766409968891,7.327454,12.35049,-5.0212393,2.680738,0.43888897,-0.7499462
1607,A,288766447916599,9.218275,11.567586,4.0174704,1.303351,1.0165286,-0.99069595
1607,A,288766487817276,1.2551602,9.556456,0.415394,0.6181197,1.0487529,-0.62078285
1607,A,288766527742328,-0.9600749,12.211626,-5.4863133,-1.3214606,1.0644655,-0.014647386
1607,A,288766569670192,2.2212207,3.6110547,-0.6679823,-2.7345338,1.2178636,0.3965447
1607,A,288766607311391,2.552219,2.4103625,-3.264494,-2.0823257,0.7238472,1.0415623
1607,A,288766647510818,0.9259575,2.463035,-1.3599066,0.8929579,1.7475663,-0.3832289
1607,A,288766687017536,-0.42676646,3.2800562,-3.8762126,0.68629664,0.18855181,-0.44821003
1607,A,288766727120349,0.5793968,12.954427,-5.3223104,-1.8082864,-1.7086842,0.845021
1607,A,288766766670401,1.8884265,19.612701,-8.050503,-0.92944324,-0.8162589,0.63250077
1607,A,288766806981130,4.5076833,7.8158712,-3.0711622,-1.3046826,0.20879184,0.6402239
1607,A,288766848308474,12.636597,11.002554,1.6124948,-0.7755125,-0.5344964,0.11797804
1607,A,288766887380140,1.4227544,12.883798,8.955511,-0.8447547,-0.9062737,0.27537087
1607,A,288766928637797,1.6142905,5.48751,1.0085574,-2.102832,-0.8607337,-0.4577974
1607,A,288766966536860,-0.14185645,4.4125137,5.677251,-0.58749336,-0.520648,-0.283893
1607,A,288767006418683,5.003283,9.833585,-6.907272,-0.629305,-0.17390442,-0.12916331
1607,A,288767046401912,-0.2681506,10.888829,3.0747535,-1.1084076,-0.44794372,-0.0053263223
1607,A,288767087044931,0.6512229,8.201937,0.41060558,-1.0024139,-0.116912775,0.7254451
1607,A,288767128835036,-0.5327099,8.121132,0.31603462,-0.22530343,-0.77444726,0.9150622
1607,A,288767166285193,1.3018472,9.054273,0.11671733,-0.07882957,-0.5028048,-0.17923075
1607,A,288767206139204,2.6222494,9.425972,-1.0378864,0.37950045,-0.391751,-0.79042625
1607,A,288767248021025,-0.17178397,10.957663,-0.52373165,2.2849922,-0.1454086,-1.2735237
1607,A,288767288412223,-0.5710171,11.647193,-0.13347675,3.7947383,0.10839066,-1.3494238
1607,A,288767327803265,-0.35793316,12.159552,1.1976994,1.8482338,0.4956143,-1.2532836
1607,A,288767367868058,0.8391677,12.0170965,2.3415294,2.4714136,-2.194445,0.17763285
1607,A,288767407881494,6.569091,13.612234,-2.168548,2.056493,-0.3581952,-0.21491711
1607,A,288767445292588,11.407773,10.359112,0.88405895,1.8253306,1.5707325,-0.8383631
1607,A,288767485383682,1.8614918,9.65821,-4.5160627,1.1377025,2.0224047,-0.7736483
1607,A,288767525248109,-0.2112883,11.423933,-0.5674258,-0.67218184,1.2761868,-0.43436158
1607,A,288767564931390,0.16220717,5.3486466,-1.95307,-2.5704832,0.44474792,0.17550232
1607,A,288767604934879,0.3842694,0.9415198,-2.8299465,-2.6434538,0.8498147,0.9222527
1607,A,288767645190453,1.2282255,2.7144263,-4.0857053,-0.5725796,1.0575413,0.41571945
1607,A,288767684857119,0.8451532,3.7349546,-3.1124623,0.8519452,1.6631441,-0.9938917
1607,A,288767726777068,0.4237737,7.379528,-4.1904516,-0.45593318,-2.0940435,0.3552657
1607,A,288767767418628,3.743933,19.612701,-6.895301,-2.8485172,0.13502227,1.2245215
1607,A,288767806543319,2.0242975,7.259818,-6.375759,0.6801714,-2.4567661,0.16218652
1607,A,288767846493213,9.494206,10.538078,1.9147629,-1.6045545,-0.26205507,0.06897587
1607,A,288767886363473,7.9511437,11.786655,5.1798553,0.13528858,-0.350472,0.37710363
1607,A,288767926253421,-2.493561,11.386225,-10.725425,-3.0770164,0.9281117,-0.052464273
1607,A,288767964052015,1.1318588,2.9215245,6.1399302,-0.8966864,-1.4213291,-0.3110572
1607,A,288768004375296,2.939481,8.109161,1.769315,-0.525708,-0.9262474,-0.2793656
1607,A,288768043761442,2.6479871,11.326968,0.13946225,-0.89801794,-0.520648,-0.08282431
1607,A,288768085004098,1.5113398,9.065046,-0.75118077,-1.0759171,-0.32330775,0.55074173
1607,A,288768125741910,0.8834604,7.867945,0.25318682,-0.6199839,-0.44687843,0.9222527
1607,A,288768163756285,1.0061632,8.4108305,-0.04189853,-0.40506682,-0.12010857,0.37470677
1607,A,288768203779047,1.4149733,8.651448,-0.11671733,0.19414444,-0.017576864,-0.33316147
1607,A,288768245492482,0.2208651,10.570999,-1.3509283,1.5169365,-0.23595607,-0.8271778
1607,A,288768285401759,-1.0755951,12.1284275,0.3681085,3.227485,0.39148468,-1.5014902
1607,A,288768325330395,-0.8678981,12.8532715,0.033518825,2.8064392,1.4729944,-0.95261276
1607,A,288768365888742,0.3645172,13.632585,1.6645688,2.5896578,-0.48815745,-0.75127774
1607,A,288768405114826,4.214992,11.070788,2.1859062,2.3363912,-0.70147663,0.015978966
1607,A,288768445043583,6.959346,12.175115,-0.39743748,1.76248,1.056476,-0.9933591
1607,A,288768482782742,5.2965727,12.522872,0.89782566,1.8362496,1.5454324,-0.7928231
1607,A,288768522805871,-0.011372458,10.837354,-4.1581297,0.40719733,1.5582156,-0.29827404
1607,A,288768563023943,-0.57281274,10.114903,-1.3682863,-2.2146847,0.742223,0.12969595
1607,A,288768604046024,2.1158757,0.6895301,-0.23343466,-3.1481228,0.24074976,0.36591834
1607,A,288768644674514,2.3828292,1.0965444,-3.9432502,-1.568602,0.54142064,0.9685917
1607,A,288768682544775,1.2084733,1.8351556,-1.9434932,1.2048141,0.93423694,-0.6066681
1607,A,288768725027848,-0.12569559,7.80809,-3.1729157,-0.21678132,-1.7923075,-0.32810146
1607,A,288768762793577,6.727707,19.612701,-8.791509,-3.720436,-0.45566687,0.7299725
1607,A,288768802412483,-1.2024878,8.813056,-6.4781113,1.8903117,-2.387524,0.2695119
1607,A,288768844678942,3.2237926,7.699753,1.2030864,-1.6820526,-0.6383597,0.6109292
1607,A,288768884215763,12.486361,16.449364,3.0364463,0.18056233,0.53742594,0.12596752
1607,A,288768923896235,-1.8794483,12.060791,-14.010868,-2.1307952,-0.8564726,0.029028457
1607,A,288768961950973,3.645172,3.5362358,7.3669586,-2.3307986,-0.070307456,-0.63223445
1607,A,288769001708317,1.4251486,6.4787097,5.9567738,-0.48016796,-1.0836402,-0.034088463
1607,A,288769041675296,1.9195513,10.714052,-2.544438,-0.7033408,-1.1906993,0.03009372
1607,A,288769081797848,2.2014685,9.245809,1.4191631,-0.86685896,-0.505468,0.37257624
1607,A,288769122140661,1.3443443,8.740632,0.39983168,-0.9787117,-0.3257046,0.54621434
1607,A,288769161466285,0.077811554,8.078036,0.8846575,-0.32517198,-0.71505874,0.65194184
1607,A,288769201272743,0.5093664,8.388085,-0.48841715,0.15446335,-0.44474792,-0.07403588
1607,A,288769243089045,0.8595184,9.413403,-1.311424,0.5789712,-0.2711098,-0.8460863
1607,A,288769283035140,0.5117606,11.104307,-0.557849,2.6501117,0.7459514,-1.823999
1607,A,288769322900453,-1.4640543,11.266515,1.2623428,2.736398,0.22556975,-1.4610102
1607,A,288769362792171,-1.258153,12.613852,1.9722236,1.4114754,-0.59095544,-1.2620721
1607,A,288769402743837,3.2597055,12.8772135,2.4480712,2.432265,-0.06897587,0.36485308
1607,A,288769443118734,8.177396,13.365032,-4.4101195,2.8365328,0.034621093,-0.78723043
1607,A,288769480421025,9.251195,13.165715,4.03004,1.9885824,1.6189357,-0.50813115
1607,A,288769520545608,1.376666,10.692505,-1.8836381,0.7123956,1.0769824,-0.2495382
1607,A,288769560391754,-2.046444,13.790003,-4.4939165,-1.3025521,0.89322424,0.23009712
1607,A,288769601026962,1.4496891,2.1811178,-0.5141548,-2.4908545,1.1840415,0.59228706
1607,A,288769640161598,2.220622,2.1709423,-4.6321816,-1.5193335,1.171791,1.2117383
1607,A,288769680432535,1.2904748,2.1039047,-1.0720038,0.7190535,2.13479,-0.5954828
1607,A,288769720029046,-0.75118077,2.903568,-3.9612067,0.23409186,0.030360037,-0.63250077
1607,A,288769761877014,0.6410475,11.550227,-4.694431,-1.2913668,-1.8748654,0.8492821
1607,A,288769802250972,1.8590976,19.612701,-10.724228,-1.7337179,-0.13608754,1.191232
1607,A,288769839536859,4.7417164,4.3448777,-6.3380504,-0.09933591,-1.3638048,0.15845808
1607,A,288769881589618,10.371083,13.804368,1.5855601,-1.831456,0.34887412,0.026897928
1607,A,288769921461598,6.5589156,10.453085,6.435614,-0.77391464,0.31052458,0.19707392
1607,A,288769959532328,0.15562311,8.397064,-1.7968484,-2.4357271,-1.0487529,-0.36139098
1607,A,288769999129617,0.11192893,3.426701,5.543774,-0.6468818,-0.94568855,-0.03701794
1607,A,288770038964932,0.7823054,10.34774,1.471237,-0.7795073,-0.8098673,-0.22237396
1607,A,288770080078940,2.9334955,11.124659,-0.88525605,-0.9424927,-0.92491585,-0.22583607
1607,A,288770119032328,1.1563994,9.129091,1.0546459,-1.1510183,-0.27989823,0.41864893
1607,A,288770159573369,0.51714754,8.351574,0.47225627,-0.6514092,-1.107875,0.8586032
1607,A,288770198856858,1.0791864,8.3551655,0.5674258,-0.4676511,-0.32650355,0.64714813
1607,A,288770238754306,1.3509283,8.641273,-0.92416185,-0.18455707,-0.22743396,0.11265171
1607,A,288770278420660,0.42437226,10.098145,-0.8996213,0.7102651,-0.14620754,-0.6660566
1607,A,288770318275713,-0.7715315,11.652579,0.3513491,2.606702,0.25965822,-1.3973607
1607,A,288770358511546,-1.917157,12.266692,0.8774749,3.384079,0.9603359,-1.2841763
1607,A,288770400441075,0.6206968,14.832678,1.690905,1.8983012,0.8157263,-0.26658243
1607,A,288770438399149,2.6898856,12.512696,2.042254,3.7313552,-0.33529198,0.13688648
1607,A,288770478147588,5.8119245,10.740988,-2.9388826,2.4418523,0.7139935,-0.7099988
1607,A,288770518333993,12.791022,6.3643866,4.3598413,1.1771172,1.1006845,-1.4410365
1607,A,288770558015556,1.7381904,9.25359,-1.1911154,0.8767126,1.5339808,-0.92092115
1607,A,288770599033628,-1.7705121,13.406931,-4.7524905,-1.0138655,1.4594123,-0.26738137
1607,A,288770637582379,0.7410054,5.4192758,0.91338795,-2.663161,0.9177253,0.32304144
1607,A,288770677458785,2.3403323,2.3870192,-3.3608606,-2.3289344,0.170176,1.1789814
1607,A,288770717541076,1.0953473,1.4083891,-2.2882583,1.0032128,1.9917783,0.007989483
1607,A,288770759717379,0.25378537,2.178125,-3.4662056,0.675644,-0.25193503,-0.4644553
1607,A,288770797423681,2.0721815,13.119627,-4.5046906,-2.1081583,-1.6674052,0.7912252
1607,A,288770837431963,0.56802434,19.612701,-9.481637,-2.0386498,0.22264028,0.59361863
1607,A,288770877827692,3.128623,6.155493,-1.6101006,-0.7289072,-0.23888555,0.58935755
1607,A,288770917119149,13.606248,11.319187,1.804031,-0.26365295,-0.053795855,0.4644553
1607,A,288770957470139,0.736217,13.53562,7.493851,-0.732103,-0.95607483,0.23568976
1607,A,288770997131129,2.8682537,5.977723,1.6142905,-2.8461204,0.27377295,-0.6759103
1607,A,288771037139723,-0.05267244,4.693234,4.857237,-0.7664578,-0.9060074,-0.15659387
1607,A,288771084699514,2.5647886,9.465476,-2.244564,-0.6956177,-0.87165266,0.18935075
1607,A,288771116361702,1.7878702,9.652225,0.90740246,-0.8745821,-0.55739963,0.47643954
1607,A,288771157506805,2.202067,8.689755,-1.5215151,-1.0567423,0.14833808,0.5768407
1607,A,288771198873785,0.29508537,7.9170265,0.47764325,-0.14940333,-0.59867865,0.3387541
1607,A,288771239070451,0.40402153,8.33242,0.3633201,0.44661212,-0.38589206,-0.41731736
1607,A,288771276366492,0.004189853,9.938332,-1.4640543,1.6184031,-0.4924185,-1.2016183
1607,A,288771318397228,0.44651863,12.320562,-3.0011318,3.6602488,0.09081379,-1.9547603
1607,A,288771358255347,-1.4323312,11.8578825,1.87047,1.8455707,1.0530139,-1.1691277
1607,A,288771398167428,-0.6901286,11.424532,2.100912,1.6383767,-2.9340045,-0.20799288
1607,A,288771438203943,6.5188127,13.396157,-0.1945289,2.2181468,0.99548966,0.02396845
1607,A,288771476105294,16.135124,11.11987,-0.9768343,2.813097,0.8061389,-0.98563594
1607,A,288771515461024,2.4612393,11.707646,-2.2499511,1.6828516,2.6072347,-0.53982276
1607,A,288771555473211,0.13706805,12.363059,2.5851393,-0.11558119,1.572863,-0.32756883
1607,A,288771596080034,-1.4706384,7.0012445,-3.9606082,-2.2551649,0.7653925,0.17923075
1607,A,288771635811440,2.4516625,0.31244332,-2.678513,-2.31695,1.7989653,0.7880294
1607,A,288771677626908,1.6166847,1.6603789,-3.4835634,-0.9558085,1.1899004,0.90174633
1607,A,288771715270139,1.2569559,3.3345244,-2.4115596,1.2855079,1.3736585,-0.5629923
1607,A,288771755103420,-0.25318682,6.9743094,-2.8568811,-1.0498182,-2.051433,-0.36298886
1607,A,288771795258003,8.021174,19.612701,-7.2622123,-2.5925875,-0.70467246,1.1984226
1607,A,288771835783994,2.8383262,8.069656,-7.2873516,0.7587346,-0.572047,0.6332997
1607,A,288771878429252,7.9068513,9.069835,1.4185646,-1.2588763,0.36751625,0.024234766
1607,A,288771916765140,8.913014,13.470976,4.2538977,-0.99096227,-0.5291701,-0.4428837
1607,A,288771955252169,-2.8221653,11.230003,-3.1609447,-2.3105586,0.25672874,-0.5121259
1607,A,288771994604878,0.61112,4.027047,6.0262055,-0.9337043,-1.7129452,-0.047670584
1607,A,288772034388524,2.497751,8.106169,1.7351977,-0.76965356,-0.20905815,-0.070041135
1607,A,288772074330450,5.213374,11.253346,-3.6050692,-0.96326536,0.3043993,0.15233281
1607,A,288772114308523,0.2681506,9.157223,1.881244,-1.1158645,-0.43782368,0.28708878
1607,A,288772155060608,0.6171055,7.8709383,0.5734113,-0.5581986,-0.05006743,0.6013418
1607,A,288772195569149,-0.5201403,9.3182335,0.60932434,-0.26551718,0.021837922,0.4631237
1607,A,288772235327118,0.7020996,8.768166,-1.2318168,0.08681905,-0.41199103,-0.2016013
1607,A,288772275311910,1.555034,9.920973,-0.51355624,1.3654027,0.5566007,-1.2548815
1607,A,288772314660347,0.16759412,11.669938,-0.7206547,2.3726103,0.017044231,-1.6676716
1607,A,288772354576752,-0.31064767,12.50731,0.8110358,2.7585022,1.1265172,-0.34328148
1607,A,288772395775503,1.1456255,14.313735,2.9239187,1.6841831,-0.89322424,0.6420882
1607,A,288772435509251,6.281787,13.302783,0.45968673,3.6876793,0.09960223,0.4607269
1607,A,288772473161389,9.726444,9.656414,-2.2242134,2.1190772,0.007456851,-0.47244477
1607,A,288772513037273,4.6579194,7.785944,0.7260417,1.0719223,-0.16591494,-0.65487134
1607,A,288772553198940,1.453879,11.047445,0.095768064,-0.02130529,0.5795039,-0.53929013
1607,A,288772593103993,2.3588872,8.172607,-3.6888664,-1.4855113,1.149953,-0.050866377
1607,A,288772634394201,1.6280571,3.2890346,-1.4401124,-2.2556975,1.2580773,0.36112466
1607,A,288772673515242,1.4975731,3.857059,-3.4093432,-1.6700684,0.59628177,0.5273059
1607,A,288772714983992,0.7990648,3.9252937,-2.308609,0.43782368,1.3813816,-0.4612595
1607,A,288772754110451,-0.032920275,5.4025164,-4.635773,0.22370553,0.29321405,-0.55979645
1607,A,288772794028680,3.2962172,15.946581,-5.279215,-1.0950918,-1.1800467,0.6263755
1607,A,288772833427899,3.0101101,12.6222315,-7.244256,-0.7736483,-0.87325054,0.78723043
1607,A,288772874334670,3.7846344,8.039729,-4.0821137,-0.95128113,0.12436963,0.62983763
1607,A,288772914267637,9.906608,13.08132,1.4903905,-0.32490566,0.94462323,-0.41944787
1607,A,288772954158266,0.45669398,14.116812,3.9576154,-2.1704764,-0.45353633,-0.67990506
1607,A,288772991897429,0.46986207,5.8801594,2.996942,-0.5526059,-0.9829728,0.21544974
1607,A,288773032193158,-1.2976574,5.5910597,5.0104656,-0.79042625,-0.768322,-0.26844665
1607,A,288773071941231,5.8005524,9.705495,-5.9962783,-0.98856544,0.43436158,-0.049534798
1607,A,288773112212169,0.9672575,8.48146,-0.34715924,-1.2522184,-0.30120352,0.18642128
1607,A,288773154551024,1.2336124,7.81647,1.6663644,-0.84848315,-0.23089607,0.7347662
1607,A,288773193630971,0.2813187,8.848371,0.51834464,-0.66365975,-0.29667616,0.7406251
1607,A,288773233688577,1.2228385,9.45171,-0.28790274,-0.4679174,0.079095885,0.40613207
1607,A,288773273485033,1.673547,8.432977,-0.46507367,-0.21145499,-0.35100463,-0.32091093
1607,A,288773313391960,0.8738836,9.680356,-0.5859809,0.94515586,-0.47670585,-0.6945524
1607,A,288773353274409,-0.5422867,11.301829,0.45130703,2.6610305,-0.15472966,-1.3574133
1607,A,288773393707429,0.10354923,12.013506,0.3669114,3.0871365,0.04926848,-1.5217303
1607,A,288773433102899,2.1918917,12.892178,1.7256209,1.6008261,-0.55313855,-0.7214503
1607,A,288773473045710,3.9240966,12.140398,2.2134395,2.8365328,-0.75820196,0.12623383
1607,A,288773510537326,6.7773867,12.21821,-3.3249476,2.5614283,0.3797668,-0.2559298
1607,A,288773550400451,8.081628,12.404359,2.6485856,1.427987,0.9323727,-0.732103
1607,A,288773590450138,-0.84216046,11.701062,-2.617461,0.45007423,1.0705907,-0.6828345
1607,A,288773630381856,-0.07062895,11.639412,-3.067571,-1.6937705,0.71532506,-0.14833808
1607,A,288773670412637,1.7812861,2.4139538,-0.2753332,-2.6740801,0.6940198,0.4048005
1607,A,288773710500398,1.702876,2.297835,-4.2197804,-1.3321131,1.3728596,0.994158
1607,A,288773750638210,0.25438392,2.7252002,-2.0961237,0.21411815,1.6327841,-0.34168357
1607,A,288773791576804,-0.36272156,4.292804,-3.4105403,0.025566347,-0.81918836,0.23409186
1607,A,288773831055242,2.0655975,15.330672,-5.9262476,-1.5334482,-1.2905679,1.2282499
1607,A,288773871955659,2.4223335,16.46253,-8.070854,0.25033715,-0.86898947,0.7912252
1607,A,288773911855710,9.220071,12.650363,-0.86729956,-1.1630025,0.829841,0.27057716
1607,A,288773949796283,6.259042,10.864887,4.200627,-0.77231675,0.39441416,-0.6109292
1607,A,288773989909357,0.15562311,7.9732904,0.032920275,-2.2256038,-1.0080065,-0.10279802
1607,A,288774029290137,-0.37110126,3.152565,1.7154455,-0.7890946,-0.6061355,0.23622239
1607,A,288774069433471,0.8936358,8.327632,5.1876364,-0.67484504,0.103863284,-0.09267801
1607,A,288774109765190,5.527613,11.787253,-6.83365,-0.9515475,0.07803062,-0.120907515
1607,A,288774149451440,0.908001,9.041702,0.7739257,-1.0037454,-0.3358246,0.11664646
1607,A,288774189767169,1.0528502,8.237849,1.1959038,-0.95953697,-0.2873551,0.5289038
1607,A,288774231038105,1.0079589,9.183559,0.5410896,-0.5089301,-0.35286885,0.75633776
1607,A,288774269168627,1.8327614,8.431181,-0.4141969,-0.20453078,-0.13422333,-0.017576864
1607,A,288774310998367,2.3175871,8.346188,0.01616086,0.3571299,-0.5970807,-0.752343
1607,A,288774350807690,0.9223662,11.191097,-0.61171854,1.9166771,-0.19228023,-1.179514
1607,A,288774390698627,-1.3982137,12.351088,0.61530983,3.3332124,-0.26897928,-1.5635419
1607,A,288774430228314,0.15023616,11.88781,0.44651863,1.9302592,1.251952,-0.91426325
1607,A,288774471022065,2.0829554,11.732187,2.8449101,2.3630228,-2.6964507,-0.18562233
1607,A,288774508260868,6.6534867,12.5743475,-0.736217,2.5726137,-0.3784352,-0.4213121
1607,A,288774548434409,14.904504,9.267955,0.9367314,1.9795277,0.8042747,-0.8069378
1607,A,288774588295346,2.2511482,9.003994,-4.0043025,1.3190637,1.186172,-0.83010733
1607,A,288774627957586,-1.1264719,12.152967,-0.9660604,-0.55127436,1.0535465,-0.35553202
1607,A,288774670040450,0.33877954,6.945579,-2.5420437,-2.3957798,0.813862,0.5044027
1607,A,288774709941283,1.0384849,2.332551,-3.1052797,-2.6477149,0.933438,1.1707256
1607,A,288774747722117,1.6777369,1.881244,-3.481768,0.03568636,0.89615375,0.7997473
1607,A,288774789147274,-0.30526072,2.8951883,-4.084508,0.59601545,1.0120013,-0.6213155
1607,A,288774830153678,-0.320823,8.039131,-4.1880574,-1.2085425,-2.0788636,0.19201392
1607,A,288774869669356,4.39336,19.612701,-8.992023,-2.8274782,0.107858025,1.2327772
1607,A,288774907572742,2.5875335,5.2367177,-5.679645,0.5387575,-0.7912252,0.19228023
1607,A,288774949359929,8.364143,9.640253,0.8870517,-1.6921726,0.50786483,-0.009054748
1607,A,288774986999303,7.885902,13.138182,5.032612,-0.08575379,-0.15952335,0.07190535
1607,A,288775027233627,-3.0909145,10.836756,-5.3061495,-2.4924526,0.8764463,-0.38429415
1607,A,288775067074304,0.08020575,2.5007436,5.988497,-1.0618024,-1.5587482,-0.14753912
1607,A,288775106868210,1.1186907,8.3072815,3.958214,-0.9139969,-0.23915187,0.025566347
1607,A,288775148356908,5.0146556,10.539874,-0.98700964,-0.9076053,0.1784318,0.010120012
1607,A,288775187022794,1.6603789,8.549096,0.57161564,-1.0468886,-0.7326356,0.18935075
1607,A,288775226587013,0.85473,8.239645,0.8571242,-0.9805759,-0.39041942,0.7880294
1607,A,288775268167637,-0.12030864,9.015367,0.7350199,-0.51319116,-0.0743022,0.7507451
1607,A,288775308013574,1.4095862,9.115324,-0.30585927,-0.29188246,-0.299073,-0.32277513
1607,A,288775347862065,2.235586,8.908226,-0.39683893,1.0444918,-0.582167,-0.92331797
1607,A,288775386623576,-1.1492168,12.225991,-0.109534726,2.7694213,-0.041545313,-1.4138722
1607,A,288775428252843,-2.1027076,12.966398,0.5847838,3.0823426,0.6825682,-1.1867046
1607,A,288775468089566,2.285864,13.063962,2.094328,2.2024343,-0.71825457,-1.1185277
1607,A,288775506206699,3.5859156,11.100717,2.5677812,2.6879284,-1.0594054,0.16751283
1607,A,288775546123523,6.5265937,12.409147,-2.4235306,2.414688,0.272974,-1.0207896
1607,A,288775586050242,10.015544,13.487736,2.3642743,2.1206753,1.4660702,-0.9259811
1607,A,288775625588210,-1.423353,10.700885,-4.693234,1.3014868,1.4828482,-0.39627838
1607,A,288775665488627,-1.6705543,13.347674,-3.2160115,-1.0588728,0.9574064,0.01304949
1607,A,288775705326335,1.2114661,2.8329391,0.8319851,-2.988067,0.8524779,0.27217507
1607,A,288775747681543,2.0231004,1.1294646,-4.1252093,-2.428004,0.4596616,0.94116116
1607,A,288775787421127,1.1001357,1.1426327,-3.127426,-0.7680557,0.49428272,0.31851408
1607,A,288775825311908,-0.24839842,2.190096,-4.368221,-0.24367924,0.8748484,-0.4002731
1607,A,288775865255866,-1.2312182,10.165182,-4.0827127,-1.9598203,-1.7283915,0.99442434
1607,A,288775906839303,2.7802668,19.612701,-8.423999,0.13821806,-1.2370384,0.7850999
1607,A,288775945381334,5.6987987,12.4312935,-4.331111,-0.8538095,1.0498182,0.55766594
1607,A,288775987209096,12.460623,14.621988,2.846706,-0.994158,1.4444987,-0.3885552
1607,A,288776024783470,1.2814964,10.268132,-0.18375498,-0.8098673,-2.1821942,-0.19148129
1607,A,288776064704200,0.5069722,4.8853683,2.7407625,-0.86206526,-0.7222493,0.114782244
1607,A,288776104888679,-1.2336124,4.836886,6.621165,-1.0583402,-1.206412,-0.15526229
1607,A,288776144806647,5.009867,10.670957,-5.5192337,-1.0793792,0.6010755,0.011451593
1607,A,288776184286803,1.9746178,9.27394,0.7074866,-1.1305119,-0.66579026,0.2213087
1607,A,288776224051647,1.2012907,7.45734,1.0175357,-0.9147959,-0.116912775,0.49401638
1607,A,288776264295553,0.18555063,8.012196,1.1917139,-0.55100805,-0.5683186,0.86499476
1607,A,288776304303157,0.8936358,8.971672,-0.037110128,-0.26764768,-0.61705446,0.008522116
1607,A,288776343517219,2.540248,8.255806,-0.4794389,0.67990506,-0.034088463,-0.93450326
1607,A,288776383388990,1.1510124,11.696873,-1.9219455,2.0849888,0.11797804,-1.8229338
1607,A,288776424841907,-0.93134445,12.209231,1.1725603,3.1276164,0.39867523,-1.5041534
1607,A,288776463346022,-1.3012487,12.856264,3.1232362,2.1792648,-0.26498455,-0.8905611
1607,A,288776503361855,3.8600516,13.753491,2.830545,2.396845,-0.20746025,0.33662358
1607,A,288776543132271,7.1927805,12.881404,-4.7896004,3.213104,-0.19014971,-0.7419567
1607,A,288776582989407,12.240954,7.3202715,2.0518308,1.5630093,1.1672635,-0.71106404
1607,A,288776622782115,2.533664,8.467693,-0.20649989,0.96619487,1.1606057,-0.39760995
1607,A,288776662974146,-1.6346412,12.638392,-4.8817773,-0.39121836,1.0128002,-0.0777643
1607,A,288776702803626,2.9747956,4.2969937,-1.7513585,-1.7475663,1.0309097,0.31638354
1607,A,288776742523782,2.0147207,3.8762126,-2.2852654,-2.3699472,0.89801794,0.37603834
1607,A,288776782729459,1.733402,3.8552632,-3.083732,-1.556884,0.15020229,0.9552759
1607,A,288776822600865,0.75477207,4.8506527,-4.0623617,0.29321405,1.7283915,-0.35286885
1607,A,288776862483990,0.05327099,5.5844755,-5.134964,-0.051931642,-0.649545,-0.3888215
1607,A,288776902424094,3.9833531,14.422072,-4.8614264,-2.2596922,-1.7675401,0.77444726
1607,A,288776942558469,2.11827,13.552379,-7.5004354,-0.24927188,-0.0974717,1.267132
1607,A,288776982359616,3.0753522,7.2765775,-2.4115596,-1.1744541,-0.07403588,0.38722363
1607,A,288777022342010,12.789227,13.550583,2.0494366,-0.6852314,0.02130529,-0.16964336
1607,A,288777063155866,2.670732,11.178528,3.9432502,-1.1345067,-1.1856394,-0.18056233
1607,A,288777105497637,-0.20231004,6.7869635,0.9020155,-0.7145261,-0.89508843,0.16884442
1607,A,288777144189720,-0.6841431,5.5521536,5.771822,-0.7731157,-0.928378,-0.39894155
1607,A,288777182139876,4.8297033,9.451111,-6.8264675,-1.0061423,0.13475595,-0.2412824
1607,A,288777221862898,1.5376761,9.296086,-1.6585833,-0.97018963,-0.40932786,0.11265171
1607,A,288777263899771,1.4700398,7.8547773,1.5711949,-0.81039995,-0.3075951,0.5219796
1607,A,288777303759772,0.9540894,8.552687,-0.035913024,-0.5273059,-0.505468,0.7206514
1607,A,288777343661595,1.2808979,8.860941,-0.46986207,-0.2644519,0.13182648,0.10173275
1607,A,288777383569147,1.401805,8.499416,-0.54049104,-0.120907515,-0.2910835,-0.5041364
1607,A,288777423523990,0.52492875,10.523115,-0.32561144,1.5251924,-0.47324374,-0.8594021
1607,A,288777463375292,-1.0606314,11.91295,0.8822633,2.8394625,-0.504669,-1.5020229
1607,A,288777503323366,1.1288661,12.438477,0.7787141,2.3105586,1.3259879,-0.9510148
1607,A,288777543246127,2.4486697,13.622409,2.208651,1.8237327,-1.2362394,-0.536627
1607,A,288777583096281,5.604826,11.618463,-0.16579847,3.0240195,-0.979777,0.52464277
1607,A,288777623101646,6.007052,10.104729,-1.0528502,1.9100192,0.08548747,-0.59787965
1607,A,288777662895971,7.1383123,12.509106,2.271499,1.5419703,0.5073322,-0.8048073
1607,A,288777702981281,-0.7086837,10.474632,-6.9928646,0.48336375,1.1393003,-0.4577974
1607,A,288777742715189,-0.41838676,9.595961,-1.7340006,-1.6860473,1.026116,0.04926848
1607,A,288777782659355,1.8579005,1.8567034,-0.52133745,-3.0676954,1.1523498,0.3571299
1607,A,288777822519771,1.9057846,2.107496,-3.630807,-1.7134778,-0.043675844,0.72970617
1607,A,288777862463782,-0.3274071,2.3122003,-2.1631613,0.69002503,2.0029635,-0.73769563
1607,A,288777902325241,-1.2174516,4.9506106,-4.0659533,0.42397526,-0.2806972,-0.19467708
1607,A,288777942272272,1.8142064,18.656816,-5.067328,-2.94519,-1.005077,1.1920309
1607,A,288777982130293,2.2870612,14.52622,-8.289325,0.14594123,-2.1124194,0.25965822
1607,A,288778019924824,3.2890346,6.823475,-2.2026656,-1.1925635,0.3581952,0.76459354
1607,A,288778061987897,15.007455,14.367604,3.2465374,-0.5478122,-0.2000034,0.09614012
1607,A,288778101872115,-0.43514615,11.454459,4.619612,-0.81545997,-0.88443583,0.49747851
1607,A,288778141925554,2.9472623,5.48332,2.2397757,-1.8876486,-0.44528055,-0.2609898
1607,A,288778181693729,0.23822308,6.4721255,5.1768627,-0.6527408,-0.28575718,-0.20799288
1607,A,288778219452116,2.473809,10.812215,-5.4049106,-0.8183894,-0.41625208,-0.16724652
1607,A,288778261461542,-0.49200845,10.734404,1.6130934,-1.0567423,-0.44661212,0.1635181
1607,A,288778301167272,1.738789,8.340201,0.8110358,-0.80374205,-0.36005938,0.64768076
1607,A,288778341263885,0.6314707,7.827244,0.10534488,-0.4527374,-0.340352,0.37816888
1607,A,288778381211907,1.4867992,8.258201,-0.878672,-0.060720075,-0.5094627,-0.087618
1607,A,288778421077636,0.41718966,9.467871,-0.20709845,1.31427,-0.53130066,-1.0167949
1607,A,288778461023937,0.09816227,12.02428,-0.022146367,3.1907334,-0.19787288,-1.7955033
1607,A,288778500881647,-1.2401965,12.467207,0.7320272,3.0916638,1.5949672,-1.0271813
1607,A,288778538866751,1.0067618,14.469956,3.1399956,1.0351708,-2.3369238,-0.6487461
1607,A,288778580848886,5.957971,12.737153,1.5693992,2.6437201,0.7286409,0.054062173
1607,A,288778620621228,8.613739,10.927136,-4.0743327,2.2045648,0.002396845,-1.0293118
1607,A,288778660496282,7.0132155,11.480197,2.3906105,1.6935042,1.9331887,-0.8085357
1607,A,288778700443053,0.2837129,10.86369,-0.5602432,0.500408,1.2532836,-0.49747851
1607,A,288778740299824,-1.9057846,9.750985,-3.669114,-2.031193,0.8309063,0.13369069
1607,A,288778780238728,2.3690627,1.3569138,0.84814596,-2.9760826,1.0647318,0.633566
1607,A,288778820112272,1.8579005,1.2330139,-4.7375264,-1.5579493,0.2396845,1.0660634
1607,A,288778860064928,0.6123171,1.5334862,-2.15538,1.2559468,1.9568908,-0.6045376
1607,A,288778899922479,-1.2174516,6.3302693,-2.8981812,0.11052119,-1.5960325,-0.068176925
1607,A,288778939873208,2.4666264,19.612701,-5.1355624,-3.3718283,-1.0349044,1.3965617
1607,A,288778979729250,1.4305356,10.237606,-7.5692687,1.9020296,-1.2724584,0.86020106
1607,A,288779017762219,6.033987,9.853337,1.0289081,-1.5078819,0.30945933,0.5680523
1607,A,288779059534354,12.615647,12.633005,4.6022544,-0.38456047,-1.1843078,0.07403588
1607,A,288779099467271,-2.4863784,10.848128,-10.984597,-3.3973947,1.0386329,-0.40586576
1607,A,288779138795188,0.53450555,2.100912,6.0836663,-0.6250439,-2.1827269,-0.24421188
1607,A,288779177176489,2.9017725,8.392276,7.1460934,-0.5044027,-0.4295679,0.16298546
1607,A,288779217091751,2.4839842,10.338761,-5.884948,-0.9488843,-0.27830034,0.11984225
1607,A,288779259044821,2.142212,8.580819,-4.234744,-1.0170612,-0.22024342,0.46711847
1607,A,288779299005241,-0.050876785,8.093,1.3449428,-0.69668293,0.107858025,0.9286443
1607,A,288779339046647,-0.38845924,8.054693,0.7787141,-0.5384912,-0.22397186,0.4428837
1607,A,288779378813104,1.6035166,8.331821,-0.92057055,0.018908445,-0.66525763,-0.37923414
1607,A,288779418656385,0.64463884,10.183737,-1.8381484,1.4503576,-0.42424157,-0.94515586
1607,A,288779458575344,-0.7266402,11.882423,0.27114335,3.5428033,0.25965822,-1.6429042
1607,A,288779498470396,-0.51235914,12.621035,0.3573346,2.7254791,0.8692558,-1.4841797
1607,A,288779538985292,1.2797008,13.7367325,2.2948422,2.70444,-1.470065,-1.2793826
1607,A,288779578288417,4.143166,11.833342,0.3309984,2.3672838,-0.10146644,-1.0032128
1607,A,288779618275917,6.9928646,13.622409,-0.3345897,1.809618,1.6612799,-1.1707256
1607,A,288779657962688,6.3607955,12.764687,-2.4079683,1.5659387,2.1409152,-0.99735385
1607,A,288779696199199,-1.8285716,12.20145,-2.3403323,0.7779094,1.9206718,-0.23861924
1607,A,288779737880552,-1.8698715,7.5890207,-0.23882163,-1.813879,1.3608754,0.5701828
1607,A,288779777662896,1.875857,0.47105917,-0.32142156,-3.3734262,0.24740767,1.052215
1607,A,288779817631177,2.0757728,0.79008657,-3.3482912,-1.7385116,0.73822826,1.4687333
1607,A,288779857487271,0.7445967,0.19632454,-1.8171991,0.9078716,2.1244037,-0.91612744
1607,A,288779897435084,-1.0426749,4.0922894,-1.4089876,-0.7438209,-2.731338,-0.5800365
1607,A,288779937293885,7.7679873,19.612701,-5.7760115,-2.949451,-0.8026768,1.0942929
1607,A,288779977201959,0.92296475,8.4664955,-7.401076,1.937716,-0.26871297,0.79894835
1607,A,288780015073313,6.6145806,11.775881,1.2174516,-1.6996294,-0.65247446,0.28442562
1607,A,288780054892269,11.136629,17.54531,2.9993362,0.050866377,0.7281082,-0.2910835
1607,A,288780096964616,-2.995745,11.297041,-5.0134583,-2.7049727,0.8157263,-0.31638354
1607,A,288780134993311,-0.22804771,2.4983494,7.1993647,-0.6508766,-0.7187872,-0.0974717
1607,A,288780176750447,2.319383,6.743868,1.905186,-0.75580513,0.39707732,-0.09081379
1607,A,288780215275969,2.5187001,12.388797,0.8798691,-0.70653665,0.14753912,0.084155895
1607,A,288780256525135,1.1330559,9.204509,1.4945804,-0.60267335,0.40293628,0.6037386
1607,A,288780296457217,0.2885013,8.231265,0.12629414,-0.32836777,0.64714813,0.6412892
1607,A,288780336331596,0.557849,8.728661,-1.2264298,0.28442562,0.2479403,-0.022104237
1607,A,288780376286752,0.3393781,8.256405,-1.7016789,0.9155948,0.046339005,-0.49454904
1607,A,288780416152216,-0.50517654,10.600328,-0.61112,2.6607642,0.381631,-0.9108011
1607,A,288780456043889,0.6584055,12.281057,-0.39983168,3.4261568,1.2626047,-1.5041534
1607,A,288780496068986,3.0346506,12.282255,1.2174516,2.1928468,0.58456385,-0.68869346
1607,A,288780535865408,1.5508442,12.291233,1.6825253,3.5654402,-1.6572852,0.19414444
1607,A,288780576152527,5.6461263,11.99495,-0.3549404,2.3507724,1.1315771,-0.27164245
1607,A,288780615020658,13.594875,16.064495,5.104438,2.2168152,2.1800637,-0.5747102
1607,A,288780654941072,-0.47225627,9.619903,-8.715493,1.5001587,1.5353124,-0.26338664
1607,A,288780694449771,1.9189527,10.553641,-2.4420857,-0.6354303,0.91639376,0.040746365
1607,A,288780734081594,-0.51714754,2.755726,2.219425,-2.375806,1.0154634,0.037550572
1607,A,288780774630811,2.3331497,1.3024458,-4.3742065,-2.3600934,1.8104169,0.55313855
1607,A,288780814493676,2.2816741,2.0260932,-3.3740287,-1.5997609,1.9425098,-0.019973708
1607,A,288780854398730,1.8531121,2.779668,-4.938041,-0.36085832,0.47244477,-0.53476274
1607,A,288780894345966,4.200627,7.5387425,-5.2157683,-0.96619487,-1.6013588,-0.43382895
1607,A,288780934206857,7.413047,19.612701,-4.172495,-2.6349316,-2.1835258,0.7661915
1607,A,288780974097684,3.7247794,5.5910597,-7.1903863,0.6926882,-1.9033613,0.42424157
1607,A,288781012826490,8.468291,9.846154,0.20530279,-1.6354473,-0.6098639,-0.531567
1607,A,288781056864926,7.6321163,17.055096,6.067506,-1.2663331,-1.6429042,-0.31851408
1607,A,288781094405759,-2.1170728,9.8994255,-1.3257892,-1.3635385,0.19627498,0.050866377
1607,A,288781132250345,-0.99538934,3.9067385,7.73806,-1.3880396,-2.3233418,-0.36139098
1607,A,288781173678988,2.634819,7.728483,-0.5542577,-1.3097427,-1.2018846,-0.2263687
1607,A,288781214098782,4.876989,11.36767,-2.521693,-1.4016217,-0.58935755,0.1504686
1607,A,288781253436281,0.5267244,8.760384,3.5877113,-1.0892329,-1.1619372,0.36432046
1607,A,288781291790083,0.7344214,8.811859,-0.41359833,-0.7171893,-0.6426208,0.62557656
1607,A,288781331486177,-0.9175778,8.847174,0.44472298,-0.44847634,-1.0183928,0.58056915
1607,A,288781371445135,0.8678981,9.300277,-0.30585927,-0.28788772,-0.39228365,-0.21944448
1607,A,288781411273260,2.0416555,9.813234,-0.43155485,0.50626695,-0.33182988,-0.8996158
1607,A,288781451177167,0.3298013,11.801021,-0.8870517,2.6351979,0.07190535,-1.3712617
1607,A,288781491071437,-2.1362264,11.699266,0.2184709,3.1419976,0.72943985,-1.8538265
1607,A,288781530976385,0.7577648,13.657723,0.7942764,1.8373148,0.042077947,-1.3092101
1607,A,288781570865135,2.3080103,11.967417,3.7840357,3.7955372,-1.6058862,0.14460965
1607,A,288781610977844,6.5858502,12.524668,-2.7192147,2.99579,-0.70440614,-0.5267733
1607,A,288781650755604,17.744028,10.788872,3.1908724,2.031193,1.3675332,-0.943558
1607,A,288781690652010,1.0845734,7.7494326,-3.7684734,1.8535602,1.675661,-0.87697893
1607,A,288781730716333,-3.1914709,11.3964,-3.8480806,-0.7880294,1.7158747,-0.057790596
1607,A,288781770840031,0.6757634,5.7418942,0.049679685,-3.0234869,1.0942929,0.53103435
1607,A,288781810459146,0.8726865,0.9552865,-3.1705215,-1.3337111,-0.34834146,0.31372038
1607,A,288781850691646,0.16280572,-0.8074445,-4.59986,1.7656758,1.3688648,-0.46339005
1607,A,288781890356593,-0.664391,3.4398694,-7.1544733,-1.2620721,-1.6407735,0.64768076
1607,A,288781930537895,1.9488802,19.612701,-5.1104236,-2.5049694,-3.9502668,-0.09187906
1607,A,288781970484771,10.336966,8.1642275,-5.425261,-1.999235,0.03488741,1.371528
1607,A,288782010241645,4.9601874,14.061745,-4.9745526,-0.8852348,1.9108181,0.44181845
1607,A,288782050233988,5.3049526,5.7389016,1.389834,-1.9299929,-3.470898,1.2173309
1607,A,288782090213156,1.5149311,8.450933,2.0895395,-0.5400891,0.74302197,0.8117315
1607,A,288782131958102,-2.7730842,10.718243,4.6100354,-1.7752632,-0.25992453,-0.3787015
1607,A,288782171228884,2.3355439,10.102933,-5.585074,-1.5933694,0.14247912,-0.25539714
1607,A,288782211791072,1.484405,10.0664215,1.2515689,-1.0950918,-0.5603291,0.34567833
1607,A,288782251678729,0.97144735,6.542156,0.8870517,-1.0812434,-0.5816344,0.72251564
1607,A,288782290937374,1.3030443,7.86615,-0.46806642,-0.69801456,-0.65700185,0.8628642
1607,A,288782330859405,1.7818847,8.16363,-1.371279,0.0026631611,-0.27084348,-0.049801115
1607,A,288782370743260,1.2653356,8.398261,0.061052144,0.26072347,-0.70866716,-1.0135992
1607,A,288782410691280,-0.22146365,12.046426,-0.908001,2.2237396,0.40426785,-1.7979001
1607,A,288782450558884,-2.0201077,12.467207,1.2743138,3.226686,0.34088463,-1.8642128
1607,A,288782490278676,0.7721301,12.799402,1.7956513,2.1576931,0.7901599,-0.14008227
1607,A,288782530360187,3.0705638,11.823765,3.056797,1.8881812,-1.7339842,0.10439592
1607,A,288782570323364,6.896498,13.218388,-3.0615854,3.4639738,0.059388492,-0.55739963
1607,A,288782610205707,13.013683,9.677961,-1.0372878,2.1145499,1.1885688,-0.85727155
1607,A,288782650063469,1.7477672,9.794679,-0.20590134,1.1757857,1.5731293,-0.778442
1607,A,288782690013468,-1.3341689,11.523891,-1.1976994,-0.5725796,1.107875,-0.40053943
1607,A,288782728416229,1.4550761,4.823718,-1.6627731,-2.3094933,0.84209156,0.2545982
1607,A,288782769785551,1.5771804,2.2661119,-2.5659857,-2.8413267,1.1880362,0.65194184
1607,A,288782809685864,1.2551602,2.3343468,-3.526659,-0.9243832,0.058056913,0.68869346
1607,A,288782849637998,-0.25438392,2.9724014,-3.1202433,0.5225122,1.2327772,-0.7254451
1607,A,288782889493102,-0.30705637,6.7606273,-4.805163,-1.0492855,-2.3036344,0.8175905
1607,A,288782929439249,4.335301,19.612701,-6.9581485,-2.5651567,-0.27377295,1.3566142
1607,A,288782969311489,5.524022,9.515755,-5.976526,-0.44767737,-1.2676647,1.2130699
1607,A,288783007907999,16.279972,13.767259,2.8473043,-0.6854977,1.1446266,0.2647182
1607,A,288783049116904,4.868609,10.509348,6.9844847,-1.2769858,-1.4442323,-0.3022688
1607,A,288783088887843,-0.338181,7.2753806,-1.7280151,-1.5041534,-1.8282601,-0.16990969
1607,A,288783128932635,-1.3533225,1.1713632,4.6261964,-0.9086706,-0.8524779,-0.20612867
1607,A,288783168805810,3.232771,10.576386,-1.7304093,-0.8266452,0.3653857,-0.13182648
1607,A,288783208397425,1.555034,10.740389,-1.0749966,-1.1510183,-0.44421527,0.16751283
1607,A,288783248830083,1.4610616,7.85358,1.5610195,-0.99256015,-0.40959418,0.67005134
1607,A,288783288524613,0.7086837,7.5046253,0.492607,-0.5299691,-0.44208476,0.8423579
1607,A,288783328481904,1.1318588,8.432379,-0.44771573,-0.12969595,-0.36884782,0.022903185
1607,A,288783368350240,1.9273324,7.8984714,-0.3609259,0.37763625,-0.566987,-0.82105255
1607,A,288783406776905,0.50876784,11.500547,-0.7326257,2.3619576,0.17097494,-1.1342404
1607,A,288783448801069,-0.61770403,12.835316,0.27114335,3.3619747,0.123038046,-1.7102821
1607,A,288783488836229,1.3437457,12.770672,0.99419224,2.5454495,1.7478327,-0.83703154
1607,A,288783527731227,1.2066777,12.067974,2.4331074,2.5310683,-1.7395768,-0.076965354
1607,A,288783568458051,5.351041,11.559206,-0.3657143,2.3939157,-0.33609092,-0.48522797
1607,A,288783608416905,13.63019,9.882068,-0.28491,1.8189391,2.010154,-1.000017
1607,A,288783648256592,1.7136499,9.656414,-3.2184057,1.5709988,1.7795243,-0.83250415
1607,A,288783688218675,-1.1210849,12.263102,-2.8520927,-0.1454086,1.6881778,-0.24580978
1607,A,288783726298416,0.91817635,6.505645,0.1448492,-2.787797,0.81679153,0.25300032
1607,A,288783767425186,2.0632033,0.61171854,-1.9207484,-2.6783412,0.19094865,0.9395633
1607,A,288783807288050,2.2810757,1.7124528,-3.2243912,0.5701828,2.3334618,-0.05352954
1607,A,288783847824822,1.1097125,2.8856115,-3.3183637,0.8607337,-0.25379926,-0.70467246
1607,A,288783887697633,0.92057055,11.414356,-4.0701427,-1.6021577,-2.2399848,0.7387609
1607,A,288783927038675,1.8010383,19.612701,-10.708067,-1.1944277,-0.5387575,1.1073424
1607,A,288783968554822,4.4837413,8.86513,-2.348712,-0.50813115,0.17470337,0.5640575
1607,A,288784005603675,12.331336,10.767922,2.5037365,-1.1395667,0.51478904,-0.040480047
1607,A,288784046745550,2.6844985,13.175891,6.9647326,-0.9150622,-0.6894924,-0.15659387
1607,A,288784086608572,0.7637503,7.5812397,0.66738373,-1.7520937,-0.3406183,-0.4958806
1607,A,288784125349613,0.3597288,3.5410242,6.489484,-0.9539443,-0.96779275,-0.13528858
