Subject-Id,Activity Label,Time stamp,Accel_x,Accel_y,Accel_z,Gyro_x,Gyro_y,Gyro_z
1601,A,265073308304101,4.703409,9.1272955,0.06404489,-0.020240024,-0.004261058,-0.023435818
1601,A,265073348330612,5.354632,15.635334,-0.6290765,-1.2136025,0.05539375,-0.36964676
1601,A,265073388368581,6.399701,12.926893,0.45010993,-2.4173515,1.1243867,-1.644502
1601,A,265073428111445,10.532093,13.207614,-1.0247183,-3.0751522,1.5302523,-1.6729978
1601,A,265073468081082,16.129736,2.6833014,1.1426327,0.011185277,4.5769086,-0.24367924
1601,A,265073508462957,0.39324763,6.5499372,-3.7822402,0.41864893,0.3270362,-2.4240093
1601,A,265073547617695,-0.22984336,11.282676,2.1200657,-2.8884647,-0.8479505,-1.2732574
1601,A,265073587555769,9.929952,5.583877,0.074220255,-2.4780715,-0.7518104,-1.0852382
1601,A,265073627620664,4.7626657,2.4779987,0.41180268,-1.5752598,-0.2695119,-1.2109394
1601,A,265073667650612,2.882619,3.8456864,1.13964,-0.47803742,-0.25513083,-0.6085323
1601,A,265073707723945,3.5811272,4.3544545,0.7374141,0.128897,-0.7507451,-0.19361182
1601,A,265073747363476,2.0260932,3.3919852,2.8622682,0.91186637,-1.0231866,0.26818034
1601,A,265073787041705,1.2755109,7.8332295,5.393538,1.1805793,-1.3994912,0.89588743
1601,A,265073827165716,4.3538556,19.612701,8.473679,-0.36911413,-1.5086808,0.19627498
1601,A,265073867572070,3.9492357,9.182362,11.554418,-1.751561,-0.1304949,-1.3792511
1601,A,265073906980092,5.2582655,5.527613,-5.6299653,-0.081226416,-1.8413097,1.2833774
1601,A,265073946900248,16.14051,13.78701,-1.0163386,0.6649913,-0.16458336,-0.004527374
1601,A,265073986717852,-2.3828292,-2.6731262,5.085883,-0.94595486,-0.283893,-1.1720573
1601,A,265074026405976,1.8231846,4.262876,-5.989694,1.2860405,-0.08735169,0.664725
1601,A,265074066504362,19.612701,12.315774,-1.5251064,2.037052,0.8625979,2.3012376
1601,A,265074106234622,2.119467,8.289325,7.5327573,3.3204293,-4.6426888,0.3123888
1601,A,265074146318372,3.221997,8.919,-2.4510639,0.69721556,1.3195963,0.5536712
1601,A,265074186367487,5.1505265,7.2622123,0.6404489,0.40586576,-1.2511531,0.582167
1601,A,265074226688112,4.313154,6.2219315,-0.90620536,0.29374668,-0.9965549,0.582167
1601,A,265074266191758,4.939238,6.2099605,-0.46567222,0.8724516,-0.74967986,0.2828277
1601,A,265074306025144,6.114791,8.14268,0.046686932,1.3233248,-0.11504856,0.3392867
1601,A,265074345908893,6.3464303,7.6249337,1.3311762,1.7326527,-0.15526229,0.45699844
1601,A,265074385862643,5.482722,9.024344,-1.4257472,1.7062874,0.44315,0.18002969
1601,A,265074425775456,3.846285,9.338584,1.501763,0.119043306,2.356365,0.40772998
1601,A,265074465639310,4.4244847,13.904326,1.1935096,-0.24074976,-0.18295917,-0.113983296
1601,A,265074505369466,5.173271,11.173141,-2.3630772,-0.21278657,1.8437065,-0.99495703
1601,A,265074545165612,7.1754227,12.025476,4.23654,-3.0328078,1.2524847,-1.9648803
1601,A,265074586072695,7.8948803,14.431649,-6.0944405,-2.7771444,1.620001,-0.8588695
1601,A,265074625271445,13.257892,3.739743,8.392276,1.3169332,3.6296222,-1.1579424
1601,A,265074665226862,-1.7806876,8.907627,-3.3147724,-1.6255935,0.3520699,-2.1326594
1601,A,265074704781550,4.2359414,8.180987,-0.46208093,-2.524943,-1.5028218,-1.0016149
1601,A,265074744973112,7.817667,4.984728,0.6859388,-2.1598237,-0.9965549,-1.2285162
1601,A,265074784888060,2.9113493,3.192668,0.22565351,-1.2873721,-0.6676545,-1.1227888
1601,A,265074824783632,4.373608,4.042011,0.57161564,-0.11158645,-0.78536624,-0.59787965
1601,A,265074864695145,3.5954924,4.2778397,1.638831,0.5302354,-0.91639376,-0.21598236
1601,A,265074904553476,0.9044097,3.7642837,3.774459,1.4647386,-0.88843054,0.48629323
1601,A,265074945070716,1.4718355,12.676101,7.0706763,0.7414241,-1.2942963,1.0333065
1601,A,265074984375248,5.1666875,19.612701,6.0483522,-0.49428272,-1.3752564,-0.598146
1601,A,265075024316757,-0.29747957,6.108207,10.803835,-1.2873721,-0.5733786,-1.0444918
1601,A,265075063950976,12.10269,9.788693,-8.429984,-0.37790257,-1.7441043,1.6519588
1601,A,265075103839101,8.412626,9.618107,-0.25139117,0.700944,1.2327772,-0.8540758
1601,A,265075143507539,-0.05626374,-2.2050598,0.022146367,-0.25539714,-2.177667,-0.59841233
1601,A,265075183887591,7.454347,6.2805896,-6.7588315,1.1265172,1.7339842,1.5787219
1601,A,265075223782695,14.126987,10.623073,1.055843,1.9552929,-0.27403927,1.3789848
1601,A,265075263802695,3.1519666,9.106346,-1.2084733,2.7113643,-3.3598442,0.43542686
1601,A,265075304068477,3.2585084,10.286089,1.0432734,1.9259981,2.4477115,0.9821738
1601,A,265075343247070,3.591901,7.7985134,0.10115502,0.25832662,-1.5832493,0.5994776
1601,A,265075383513841,4.4903255,6.9144545,-0.98341835,-0.51798487,-1.3704628,0.5091964
1601,A,265075423070664,4.563947,6.724714,-0.56084174,0.3043993,-0.20479709,0.30599722
1601,A,265075463277748,5.3007627,8.072051,-0.0017956513,1.361408,-0.29960564,0.47351006
1601,A,265075503201758,5.3408656,6.8306575,1.2880806,1.4538196,-0.43196473,0.5904228
1601,A,265075543074935,5.475539,8.127716,-0.6907272,1.7369137,-0.04181163,0.064182185
1601,A,265075582710768,4.759673,10.638037,1.6927006,0.21118867,1.5933694,0.28043085
1601,A,265075622601341,3.3435028,13.511079,0.56982,-0.029028457,-0.57763964,-0.5134575
1601,A,265075663287018,5.1702785,13.926473,2.4839842,-2.051433,2.371545,-1.3584785
1601,A,265075702723424,7.377134,11.512519,1.1641805,-3.251187,0.18109496,-2.2445123
1601,A,265075742630560,12.593501,11.471219,-2.834735,-2.121208,3.456783,0.022104237
1601,A,265075782146757,6.1770406,4.51726,3.9677908,1.6056199,2.0450413,-1.8530275
1601,A,265075822072694,-2.0907366,11.234193,1.1857284,-2.9308088,0.030360037,-1.5102787
1601,A,265075862324467,7.6375036,6.0465565,-0.55605334,-2.798716,-1.2668657,-0.90520847
1601,A,265075902187695,6.0088477,3.8043866,0.7308301,-2.0490363,-0.68176925,-1.155013
1601,A,265075942049206,3.3842041,2.9454668,1.34195,-0.8988169,-0.22450449,-0.6692524
1601,A,265075981996080,4.1156325,3.7421372,1.1067197,0.087618,-0.6564692,-0.1949434
1601,A,265076022314465,2.7820623,3.2261868,1.7064673,0.98590225,-0.8380968,0.14301175
1601,A,265076061735350,0.78529817,3.1292217,5.052963,1.8394454,-0.83277047,0.4711132
1601,A,265076101703944,3.4913447,18.169598,11.482592,0.73796195,-1.0575413,0.81439465
1601,A,265076141586028,7.0826473,17.30948,10.126276,-2.0743363,-0.9187906,-1.128115
1601,A,265076181613060,2.0129251,1.1641805,3.095703,-0.44741106,-1.2969595,0.60906494
1601,A,265076221520351,19.090168,15.987881,-7.769783,0.8673916,0.5526059,1.1273161
1601,A,265076261351185,-2.3588872,-1.8471266,2.4714148,0.08868326,0.20639499,-0.77604514
1601,A,265076301167121,0.40761283,1.8261774,-3.140594,2.0189424,-0.23355924,0.096939065
1601,A,265076341107278,14.43943,13.718177,-4.445434,3.3145704,2.0889835,2.6879284
1601,A,265076381507642,3.359065,8.868123,3.0544028,1.1614046,-1.9273297,0.21518342
1601,A,265076420961496,3.107674,9.242217,-2.9227216,2.5347967,0.5451491,0.8202536
1601,A,265076461158893,4.8003745,8.158242,0.7308301,0.123038046,-0.070041135,0.35420042
1601,A,265076500986600,4.0617633,6.75524,-1.086369,0.03488741,-0.92997587,0.4348942
1601,A,265076540361600,4.8039656,7.52737,0.035913024,0.72491246,-0.9235843,0.30999196
1601,A,265076580527278,5.297171,7.772177,-0.022744916,0.8253136,-0.6985472,0.34807515
1601,A,265076620682330,5.8651958,7.6734166,0.41060558,1.1169298,-0.18455707,0.4428837
1601,A,265076660612173,6.479907,8.27077,-0.02633622,1.4370418,0.08974853,0.37097836
1601,A,265076700538008,4.830302,8.711303,0.110731825,1.1369035,0.9502159,0.3153183
1601,A,265076740415768,4.8901567,10.887632,1.1133038,0.016245283,1.1611383,-0.09454222
1601,A,265076780334570,2.7940333,13.186665,-0.3549404,0.14274544,0.26178873,-0.4575311
1601,A,265076820231497,5.4402246,12.683882,1.1180922,-1.779258,3.0341394,-1.3883059
1601,A,265076860109100,6.347627,11.988366,2.6252422,-3.3246903,0.31451932,-2.1062942
1601,A,265076899970247,8.082227,12.802395,-5.921459,-2.2487733,2.6599653,0.31052458
1601,A,265076939573111,6.6852098,4.1581297,4.481347,1.933455,1.4937671,-1.8554244
1601,A,265076979787121,-0.43754035,10.1226845,1.8656816,-2.834935,-0.07882957,-1.438906
1601,A,265077019409205,7.677606,6.7785835,-0.6051345,-2.5081651,-1.1163971,-1.0399644
1601,A,265077059171028,5.489306,4.5561657,0.17597382,-2.1100225,-0.7350325,-1.0820423
1601,A,265077099525142,3.7014358,4.0342298,0.32800564,-0.948618,-0.37124467,-0.92065483
1601,A,265077138891653,4.2622776,3.6882677,0.8643068,0.043409526,-0.76912093,-0.44874266
1601,A,265077179356705,2.1146786,2.8742392,2.3139958,1.1185277,-0.917459,0.12809806
1601,A,265077219205298,0.7356185,5.798158,5.5485625,1.8743328,-1.154214,1.0309097
1601,A,265077258874205,3.679888,19.612701,11.492766,-0.20746025,-1.4780544,0.5044027
1601,A,265077299059309,4.311359,11.772888,9.489418,-2.0873857,-0.7076019,-1.608283
1601,A,265077338650299,0.29807812,3.180697,0.42078096,-0.24474451,-1.743039,0.61226076
1601,A,265077378819361,19.612701,17.720085,-4.968567,-0.60507023,1.963815,0.8452873
1601,A,265077418783371,0.7224504,-1.0301052,0.8026561,0.072970614,-0.88896316,-0.7704525
1601,A,265077459174830,5.7808,4.5801077,-3.5883098,1.9859192,1.0570086,0.64741445
1601,A,265077498575037,11.62744,8.400057,-1.3012487,2.422944,1.1222562,1.5118766
1601,A,265077538156912,6.7043633,8.511986,-2.3427265,2.3630228,-1.591505,0.8245147
1601,A,265077578226704,1.7812861,10.956466,-0.3609259,3.0887344,0.95953697,0.7946873
1601,A,265077618382016,1.1288661,10.33936,3.8133647,1.4668691,1.3355753,0.9568738
1601,A,265077658241547,3.2333694,8.030751,-0.8002619,0.49375007,-1.0388992,0.74461985
1601,A,265077698129674,4.6255975,7.813477,0.54168814,0.15579493,-0.97711384,0.484429
1601,A,265077737851027,4.4047327,7.835025,-0.4345476,0.3784352,-0.39947417,0.4213121
1601,A,265077778065612,5.7855883,8.637083,0.260968,0.8815063,-0.26045716,0.3901531
1601,A,265077818332382,5.9465985,7.7997108,0.34117374,1.3970944,-0.21491711,0.42530683
1601,A,265077857430923,4.1904516,8.896255,-0.6218939,0.9507485,1.4900386,0.3022688
1601,A,265077897622747,4.892551,11.56579,1.2443863,-0.07882957,0.12144015,-0.03089267
1601,A,265077937456600,2.938284,12.586318,-1.2749124,0.10705908,0.8404937,-0.68656296
1601,A,265077977376080,5.474941,12.814964,2.3187842,-2.5638251,1.5768577,-1.4884408
1601,A,265078017385402,6.1716533,12.008718,1.472434,-3.5161717,0.13369069,-2.3036344
1601,A,265078056677694,11.504139,12.562376,-5.475539,-1.7981664,3.2280176,0.7155914
1601,A,265078096585246,5.8041434,3.8780081,6.294955,2.233327,1.1334413,-2.3102922
1601,A,265078136912225,-0.14903906,10.166379,1.4568717,-3.1380029,-0.19467708,-1.5965651
1601,A,265078176929308,6.799533,7.1227503,-1.1091139,-2.760899,-1.5270566,-1.2492889
1601,A,265078216795819,4.6962266,4.917092,-0.0700304,-2.0777984,-0.93397063,-1.3134711
1601,A,265078256221705,3.7666779,3.241749,0.5093664,-1.0277139,-0.8250473,-0.753142
1601,A,265078296664464,4.258686,3.352481,1.2060791,0.06977482,-1.1203918,-0.29454562
1601,A,265078336579568,1.7501614,2.5432408,2.8604724,1.3432984,-1.1403656,0.34487936
1601,A,265078376506756,1.1348516,6.83784,5.3965306,1.9534287,-1.3225259,1.1337076
1601,A,265078416403319,7.8583684,19.612701,9.813833,-0.43409526,-1.3347764,0.43702474
1601,A,265078455972590,0.5566519,8.655638,9.579201,-2.1038973,-0.5837649,-1.4527544
1601,A,265078496220872,-3.0388405,3.2208,1.7244238,-0.025566347,-1.6927053,0.53316486
1601,A,265078536280297,18.263569,19.612701,-3.946243,0.69508505,1.5600798,0.5134575
1601,A,265078575454673,0.7134721,-5.209783,10.423756,-0.31798145,-2.0237362,-1.1206582
1601,A,265078615602173,4.2598834,4.4927197,-7.5207863,1.2815131,0.22024342,1.0932276
1601,A,265078655497381,15.428236,10.584765,-0.9091981,1.6314526,1.9110844,1.6788567
1601,A,265078695679360,5.9424086,7.863157,-1.2635399,2.452505,-2.8266792,0.48203218
1601,A,265078735544256,1.9560628,10.943896,-0.5859809,2.9771478,0.27803403,1.0495518
1601,A,265078775584517,2.2343888,9.842564,3.6044707,0.7137272,0.60240704,0.79388833
1601,A,265078815438683,4.3035774,6.88752,-0.670975,0.10439592,-1.7731327,0.6575345
1601,A,265078855064256,4.398747,6.663662,-0.8714894,0.24367924,-0.5371596,0.25246766
1601,A,265078895706027,4.8614264,8.142081,-0.038905777,1.2330436,0.06844324,0.3257046
1601,A,265078935138683,5.271434,8.757391,1.2725182,1.3981596,-0.09960223,0.5882923
1601,A,265078975045402,4.6980224,7.875128,1.4323312,1.7587516,-0.6527408,0.38722363
1601,A,265079014963996,3.539827,10.1065235,0.3752911,0.6018744,1.9662119,0.3334278
1601,A,265079054443527,4.642357,12.74254,1.3263878,-0.4428837,-0.8748484,-0.23062976
1601,A,265079094524465,4.7638626,12.56058,-1.1180922,-0.93823165,1.6439694,-0.98776644
1601,A,265079134357433,6.9066734,12.154763,2.2822728,-2.83893,0.6106629,-2.12973
1601,A,265079174246495,6.9024835,14.973936,-3.4314895,-3.1598406,0.8855011,-1.504686
1601,A,265079214438319,15.203779,2.9747956,9.112331,-0.1504686,3.6011264,-0.13848437
1601,A,265079254539203,1.7112557,7.5483193,-3.6242228,-1.5118766,0.5161206,-1.4253238
1601,A,265079294208788,6.1010246,7.1586633,11.017518,-0.8940232,1.9251992,-1.5158713
1601,A,265079334165610,5.697003,7.4226236,-4.405331,-3.0128343,-1.4487597,-0.53263223
1601,A,265079373774360,3.5889084,2.6713305,0.073621705,-1.9454392,-0.3153183,-0.6295713
1601,A,265079413973579,3.970185,1.7908629,0.10414778,-0.17070863,-0.22077605,-0.06924219
1601,A,265079454001652,2.8628666,3.3871968,1.0845734,0.81466097,-0.6346313,0.2548645
1601,A,265079493461911,0.2172738,3.3423057,5.3486466,1.8210696,-0.9531454,0.2743056
1601,A,265079533687434,0.8924387,19.612701,14.5346,0.054594804,-1.1259845,0.6098639
1601,A,265079573266183,7.651869,14.676456,9.714474,-2.3560987,-1.1640677,-1.1081413
1601,A,265079613464777,2.700061,-1.5771804,5.3761797,-0.87777793,-1.0418286,0.0029294773
1601,A,265079652928579,18.781914,19.612701,0.78410107,-0.7819041,1.1483551,1.0391655
1601,A,265079693082902,0.39683893,-0.48243165,-3.9067385,-0.48176584,0.08735169,0.74728304
1601,A,265079733023057,1.1617863,2.8233624,-3.8935704,2.1020331,0.53529537,-0.046072688
1601,A,265079772606496,11.921329,12.425308,-2.9604304,3.0152311,1.6357136,2.1827269
1601,A,265079812813996,6.6630635,11.807604,4.5118732,2.9449236,-3.9031289,0.4673848
1601,A,265079852740662,1.6106992,7.732673,0.58119243,1.417867,1.9877834,-0.012516857
1601,A,265079892567537,3.5739446,7.1083846,0.49200845,0.7584683,-0.49641323,0.63862604
1601,A,265079932523840,3.980959,8.276755,0.6410475,0.6759103,-1.2540826,0.8029431
1601,A,265079972813371,4.0940847,8.166622,0.2825158,0.42290998,-0.81466097,0.40932786
1601,A,265080012256496,4.856638,7.4974427,0.30526072,0.9635317,-0.5699165,0.3568636
1601,A,265080051931808,4.8165355,7.8266454,0.43754035,1.0186591,-0.34754252,0.45912898
1601,A,265080091858840,6.109404,8.2037325,1.9877859,1.6775252,-0.7976168,0.31025827
1601,A,265080131987954,5.3504424,9.332,-0.89064306,1.4913702,1.8943065,0.08655274
1601,A,265080171630349,4.3400893,10.38904,1.7034745,-0.45087317,1.5912387,0.12916331
1601,A,265080211785663,2.7180176,14.428657,-1.4036007,-0.68629664,-0.7395598,-0.133957
1601,A,265080251560453,4.0336313,14.388554,-0.23942018,-1.551824,0.628506,-1.310808
1601,A,265080291636756,8.154053,10.783484,1.9740193,-2.406965,0.83277047,-1.8663434
1601,A,265080331995923,9.931747,9.272743,-1.4329298,-2.4711473,2.1177456,-0.14966966
1601,A,265080371364151,7.4693108,2.7760768,2.5001452,0.18082865,2.1835258,-1.3952302
1601,A,265080411549829,0.7398083,8.388684,-1.7429788,-0.87511474,-0.056459017,-1.0298444
1601,A,265080451241964,4.1174283,11.659762,1.3096284,-2.4013724,-0.9009474,-1.2879047
1601,A,265080491100922,6.7905545,6.169858,0.10295067,-2.2770028,-1.2567457,-1.3813816
1601,A,265080531135611,5.145139,4.018069,0.504578,-1.572064,-0.7091998,-1.1933625
1601,A,265080570709673,3.6349967,4.2221746,1.2054806,-0.34487936,-0.7635283,-0.8109326
1601,A,265080610487590,3.0759506,3.5847185,1.5089456,0.52171326,-0.66152924,-0.3651194
1601,A,265080650776079,1.762731,3.6248214,3.7654808,1.2916331,-0.58056915,0.40959418
1601,A,265080691153317,2.4109612,11.907562,7.7410526,0.62051654,-1.4045511,0.9254485
1601,A,265080730541911,3.168726,19.612701,8.431181,-0.8412926,-0.94941694,-0.777643
1601,A,265080770566390,0.6266823,5.357625,8.7125,-0.9078716,-0.8082694,-0.76485986
1601,A,265080810407017,8.792108,10.642226,-5.831677,-0.06231797,-0.92651373,1.330249
1601,A,265080850307069,8.913014,10.637438,6.1596823,-0.5478122,2.2027006,-0.9669938
1601,A,265080889911807,1.1994951,0.36750996,-4.9105077,0.2828277,-2.0013657,-0.10546118
1601,A,265080930096442,7.9954367,7.2149267,-4.7901993,1.6357136,1.5158713,1.3358417
1601,A,265080970016130,10.739192,9.196129,-0.5410896,2.3497071,-0.51984906,1.227451
1601,A,265081009969671,4.1335893,10.220847,-1.6334441,2.4559672,-1.850897,0.56272596
1601,A,265081050307381,2.6282349,10.456676,0.4237737,2.389388,2.1174793,0.8873653
1601,A,265081089450089,3.0573955,7.545925,1.1306617,0.3821636,-1.1720573,0.6375608
1601,A,265081129235662,4.234744,7.4830775,-0.8822633,-0.3400857,-1.4359765,0.593086
1601,A,265081169244985,4.4448357,7.519589,0.19692309,0.42184472,-0.64102286,0.32490566
1601,A,265081209401547,5.140351,8.380903,-0.061650693,0.9733854,-0.56725335,0.32730252
1601,A,265081249329256,5.445013,7.620744,1.1330559,1.2602079,-0.78723043,0.45380265
1601,A,265081288914882,6.0764837,8.897452,-1.0606314,1.8018948,0.21624869,0.12330436
1601,A,265081329219100,3.4823663,10.291476,1.6352397,0.12623383,2.637861,0.20719394
1601,A,265081369210141,3.9031472,12.48217,0.2885013,-0.44687843,-0.8229168,-0.22237396
1601,A,265081409491392,5.133168,11.145607,-1.292869,0.16112125,0.41172472,-0.7768441
1601,A,265081448852277,6.1704564,13.383588,4.1305966,-2.0932446,1.7459685,-1.7600832
1601,A,265081488633163,5.897517,9.674969,0.18375498,-3.2288165,0.65007764,-1.5901735
1601,A,265081528673475,11.412561,8.128315,-2.35769,-2.0722058,3.4562504,0.6098639
1601,A,265081568500767,4.493318,6.0567317,1.5544355,0.92651373,0.10652645,-1.5230619
1601,A,265081608026340,2.0787656,12.061988,0.83138657,-2.320146,0.2016013,-1.1451592
1601,A,265081648496184,7.3466077,6.361394,0.053869538,-1.943575,-0.2692456,-1.293231
1601,A,265081688185402,4.4262805,4.4442368,0.18854338,-1.71188,-0.22929817,-1.1251856
1601,A,265081728289881,3.7553053,3.9683893,0.7930793,-0.572047,-0.22956449,-0.57577544
1601,A,265081768711600,3.4464533,3.472191,1.0061632,0.21252026,-0.4644553,-0.122771725
1601,A,265081808004985,1.751957,3.0065188,2.556409,1.1456919,-0.46365637,0.47857004
1601,A,265081847869099,0.78170687,7.920019,5.693412,1.6263925,-1.1004182,0.9329054
1601,A,265081887702639,4.9601874,19.612701,9.545084,-0.2548645,-1.0367687,0.12144015
1601,A,265081927677276,3.743933,9.256582,9.742006,-1.8618159,-0.5925534,-1.3837786
1601,A,265081967593578,-2.8221653,-0.018555064,1.9847932,-0.25726137,-1.4397049,0.42797
1601,A,265082007486495,15.978902,13.148357,-4.8141413,0.5360943,-0.0058589545,1.5060176
1601,A,265082047397536,3.551798,7.7637978,-5.089474,0.21917816,1.0889666,-0.690824
1601,A,265082087234202,1.5616181,1.8788497,-1.3389573,-0.3930826,0.07456851,0.26684874
1601,A,265082127710297,8.010999,7.8086886,-3.596091,1.7568874,-0.8452873,1.2471584
1601,A,265082167059880,8.525154,9.421184,-3.9731777,2.237588,-0.6125271,0.41918156
1601,A,265082207126859,4.285621,8.064868,-0.7068881,1.4205302,0.24554345,0.41918156
1601,A,265082246904672,4.6232033,8.130709,-2.392406,2.9265478,1.9070897,0.9307748
1601,A,265082286885244,2.8419175,9.20391,1.4173675,0.56485647,-0.96752644,0.88230526
1601,A,265082326732640,3.6218286,8.497022,0.14185645,0.26871297,-1.2255868,0.51052797
1601,A,265082366682223,4.722563,7.7943234,0.0077811554,0.51665324,-0.4149205,0.27031085
1601,A,265082406211181,5.2923827,8.262989,0.19692309,0.65220815,-0.40053943,0.32091093
1601,A,265082446556443,5.5587378,7.5968018,0.8912416,1.073254,-0.4013384,0.36645097
1601,A,265082486851025,5.519832,9.245809,-0.40462008,1.5531555,0.34461305,0.19627498
1601,A,265082526256911,3.7086184,9.275137,0.8619126,0.39920786,1.9347866,0.19920446
1601,A,265082566062693,3.98874,12.435484,0.9367314,-0.27084348,-0.6673882,-0.43036684
1601,A,265082605625818,5.2558713,12.302007,-1.7735049,-0.73157036,2.3920512,-1.0719223
1601,A,265082645944931,6.6720414,12.038046,4.011485,-2.503904,1.2982911,-2.1273332
1601,A,265082685942692,6.302736,12.992734,-4.7620673,-3.3428,0.80747044,-1.2471584
1601,A,265082725768578,14.083293,3.2375593,6.7510505,-0.08282431,3.9808934,0.049801115
1601,A,265082765613682,-1.316811,10.439318,8.663419,-1.282312,1.6721989,-2.3148196
1601,A,265082805301495,4.8069587,9.456498,0.032920275,-2.639459,-0.8543421,-1.020257
1601,A,265082845966495,6.7809777,4.4603977,-0.017357962,-2.1995049,-0.7952199,-1.0857708
1601,A,265082885355243,2.8395233,3.3608606,0.4201824,-1.0125339,-0.32597092,-1.0024139
1601,A,265082925290922,4.268862,3.7247794,0.74519527,0.13768543,-0.5411543,-0.42290998
1601,A,265082965225036,3.2375593,3.4614172,1.578976,0.81918836,-0.8005462,0.0628506
1601,A,265083005040088,0.99060094,3.0376434,4.173094,1.8695391,-0.67298084,0.8514126
1601,A,265083045004410,1.4664485,15.12118,10.148422,0.79628515,-1.1845741,1.1568772
1601,A,265083084577744,7.104195,19.612701,9.153631,-1.7819211,-0.9731191,-1.4362428
1601,A,265083124740452,-3.2549171,0.34476504,4.3837833,-0.7155914,-0.6609966,-0.24900557
1601,A,265083164708733,15.99626,11.990162,-5.614403,-0.17763285,0.26684874,1.7619474
1601,A,265083204784723,2.8048072,6.180033,-0.011372458,0.56485647,1.1909657,-0.93903065
1601,A,265083244484359,3.0585926,3.232771,-3.8426938,0.598146,-0.07989483,0.44501424
1601,A,265083284476911,9.496601,9.141661,-3.015497,1.4088123,0.6194513,1.5185345
1601,A,265083324279775,7.7488337,9.250597,-1.5496471,1.9534287,-1.1837751,0.7507451
1601,A,265083364206703,1.4742297,10.4249525,3.1352072,2.8985846,-0.8426242,0.8692558
1601,A,265083404115297,1.620276,8.909423,2.9418752,1.320928,1.2442288,0.67191553
1601,A,265083443999983,4.1383777,7.839215,-0.8643068,0.17816548,-1.7310548,0.7366304
1601,A,265083483907639,4.5034933,7.3322425,-0.23642741,0.36458677,-0.6788398,0.24261399
1601,A,265083523842431,4.9266686,7.459734,-0.10474633,1.443167,0.08495484,0.30652985
1601,A,265083564223525,5.981314,9.132683,1.347337,1.3140037,-0.116912775,0.5717807
1601,A,265083603631598,5.357625,7.8948803,1.4317327,1.5068166,-1.0383666,0.39734364
1601,A,265083643601286,3.5182793,9.815628,-1.7543513,-0.039947417,2.9515815,0.43702474
1601,A,265083683153265,3.3387144,13.522451,0.7613561,-0.62584287,-1.047954,0.062051654
1601,A,265083723363473,4.808754,10.523115,-2.1811178,-0.32091093,0.5637912,-1.0223875
1601,A,265083763271390,6.919243,12.138004,3.7403417,-2.721218,0.9467538,-2.2815301
1601,A,265083803188005,7.2424603,13.9755535,-3.0238767,-3.2439966,0.8857674,-1.5635419
1601,A,265083843047744,16.710331,3.9612067,7.4866686,0.017576864,4.0080576,-0.12942964
1601,A,265083883019150,1.1653777,6.408081,-3.093907,-0.30333406,0.62584287,-1.8876486
1601,A,265083923343785,2.4019828,10.956466,1.1755531,-2.7627633,-0.7930894,-0.9257148
1601,A,265083962795243,9.058462,5.641338,0.25019407,-2.3060312,-0.51691955,-1.0554107
1601,A,265084002682795,3.8019924,3.0933087,0.39145198,-1.5054849,-0.17337179,-1.0149307
1601,A,265084042551598,3.1238346,3.05141,0.717662,-0.0561927,-0.1520665,-0.26738137
1601,A,265084082317379,3.0825348,3.4045548,1.2258313,0.7190535,-0.675644,0.14061491
1601,A,265084122383942,-0.21308395,2.2948422,3.7535098,1.7811222,-1.0583402,0.5185175
1601,A,265084162194515,1.0049661,15.479113,9.633669,1.3281184,-1.1968247,0.94595486
1601,A,265084202214984,8.977059,19.612701,10.608109,-2.31695,-1.3970944,-1.1997541
1601,A,265084242142536,0.7212533,-3.4650085,4.905121,-1.3691311,-0.77444726,-0.2724414
1601,A,265084282552015,17.85895,15.099631,-0.60693014,0.7107977,-0.060720075,1.4415691
1601,A,265084321883109,0.57879823,3.639785,-4.794389,0.21864553,1.1057445,0.17070863
1601,A,265084361879514,3.3620577,4.8745947,-2.1015105,1.4527544,0.14487597,0.540888
1601,A,265084401724515,10.699089,12.170326,-3.4171243,1.4343786,-0.4247742,1.8359833
1601,A,265084441642222,3.0879216,9.624691,7.9289975,1.5419703,-2.321744,0.46818373
1601,A,265084481577691,2.8419175,7.44896,-2.2104468,2.1241374,1.1142666,0.10439592
1601,A,265084521140608,4.180875,8.389881,1.6891093,0.582167,0.25752768,0.45034054
1601,A,265084561416442,3.7535098,7.8386164,-0.62368953,0.6306366,-1.1638014,0.5137238
1601,A,265084601181754,4.5394063,7.914034,0.49200845,0.8061389,-0.8330368,0.40373522
1601,A,265084641585973,4.981735,7.727286,-0.31244332,1.2759205,-0.36964676,0.27883297
1601,A,265084680787119,5.381567,8.422802,0.6739678,1.3393037,0.3518036,0.51505536
1601,A,265084720763004,5.916671,8.206126,1.6891093,1.5486282,-0.68389976,0.37470677
1601,A,265084761065609,3.928885,9.266159,-1.7202339,0.93823165,2.0610204,0.38695732
1601,A,265084800829516,4.11264,9.198523,1.501763,-0.15100123,0.9803096,0.49055427
1601,A,265084840388263,2.7329812,12.640188,1.062427,-0.019707393,-0.80400836,-0.34914044
1601,A,265084880612380,5.341464,12.697649,-0.3866636,-1.5286545,3.534814,-1.1816446
1601,A,265084920456910,6.4086795,12.253524,2.9640217,-3.118029,0.9041432,-2.3004386
1601,A,265084960438838,7.244256,18.868105,-7.20954,-4.0501356,0.0053263223,-0.81039995
1601,A,265085000795973,12.565369,3.4763808,4.643554,2.3446472,2.441586,-1.0756508
1601,A,265085040117848,-1.8614918,8.954913,1.5993267,-3.2623725,0.6135923,-2.2314627
1601,A,265085079916182,5.781997,6.91625,-1.8992004,-2.6173549,-1.6245283,-1.1864383
1601,A,265085119938942,5.73112,5.506664,-0.9068039,-2.2104237,-1.0167949,-1.2314457
1601,A,265085159944307,3.1914709,1.6053122,-0.3764882,-1.0186591,-0.66152924,-0.97764647
1601,A,265085199847900,4.185663,2.6001031,0.51235914,0.44714475,-0.9440906,-0.38429415
1601,A,265085239390139,1.5065514,2.706645,4.292804,1.8817897,-1.3211943,0.48469532
1601,A,265085279310868,1.3581109,10.556035,5.699397,1.8295918,-1.3499564,1.1960256
1601,A,265085319654670,5.687426,19.612701,6.75943,-0.52810484,-0.9350359,-0.97924435
1601,A,265085359895244,0.4177882,3.3961751,7.8757267,-1.4716629,-0.79202414,-0.71319455
1601,A,265085399310816,8.67539,7.4854717,-9.399636,-0.12410331,-0.124902256,1.5917714
1601,A,265085439004202,8.173206,9.89763,1.8417397,0.9736517,1.9236013,-1.0495518
1601,A,265085479127588,0.6099229,2.2709002,-4.0683475,0.4396879,-1.7925738,0.051665325
1601,A,265085519035661,11.319187,10.857705,-5.3899465,1.419465,0.778442,1.5057513
1601,A,265085558976650,7.019201,9.795278,-0.9223662,1.6884441,-0.6785734,0.4346279
1601,A,265085598599827,2.2810757,7.7584105,1.2910733,3.3097768,-0.8657937,0.9539443
1601,A,265085638480296,1.8171991,9.150041,1.7699136,1.2018846,1.2769858,0.4958806
1601,A,265085678673890,3.9851487,8.076839,-0.39923313,0.56672066,-1.8202707,0.8788432
1601,A,265085718773942,4.0839095,7.36636,-0.088585466,0.5581986,-0.63383234,0.32144356
1601,A,265085758550869,4.581305,8.031349,0.4985925,1.257811,0.09827065,0.5185175
1601,A,265085798425869,4.899135,7.991845,1.8608932,1.1720573,-0.73290193,0.7307714
1601,A,265085838412848,4.7123876,9.86471,-0.27712885,1.2857742,0.031158986,0.43356264
1601,A,265085878199151,3.0148985,10.819398,2.747945,-0.6860303,1.1243867,0.3683152
1601,A,265085918136858,2.9161377,12.926893,0.2645593,0.16911073,-1.0940266,-0.90041476
1601,A,265085958254515,6.3601966,10.226234,2.0296845,-1.500425,3.3182988,-1.2764531
1601,A,265085997837379,6.9665284,11.6908865,3.2603042,-3.257046,1.3638048,-2.4817998
1601,A,265086038127744,6.215946,18.333,-7.147889,-4.1225734,0.11371698,-0.5744439
1601,A,265086078114619,13.515867,4.028843,7.4908586,2.6112294,2.9188247,-1.1709919
1601,A,265086117536545,-0.7338228,9.018359,0.3465607,-2.9819415,0.3254383,-1.6511599
1601,A,265086157509566,4.8578353,5.7706246,-1.9812019,-2.9113677,-1.1899004,-0.72651035
1601,A,265086197387066,6.3470287,4.4681787,0.10115502,-2.063151,-0.5520733,-0.81679153
1601,A,265086236995660,2.5288756,1.8740613,0.62249243,-0.9965549,-0.041279,-0.71825457
1601,A,265086276944202,3.3476925,1.7788919,0.12210429,0.7033408,-0.3752394,0.020506341
1601,A,265086317095608,2.203264,2.5462334,4.033033,1.8421086,-0.89535475,0.2926814
1601,A,265086356979410,-1.0450691,14.334684,11.741165,1.912416,-1.2357068,0.753142
1601,A,265086396932327,7.169437,19.612701,8.537125,-1.6615462,-1.3787185,-0.65700185
1601,A,265086437320973,3.1723173,-0.1436521,4.396353,-1.1166635,-0.8498147,-0.19947077
1601,A,265086476373733,17.080235,15.559319,1.6496049,0.5113269,0.69109035,1.1653993
1601,A,265086516184306,2.9095535,4.4478283,-6.2500634,-0.94595486,0.7339672,0.2559298
1601,A,265086556058108,1.8800468,2.633622,-2.9191303,1.0761834,-0.5765744,0.23861924
1601,A,265086596297535,9.052477,9.243414,-4.1653123,3.052249,1.3680658,1.3728596
1601,A,265086635833368,10.449493,11.046846,-1.1869255,2.697516,0.7387609,0.83543366
1601,A,265086675925348,2.0817583,8.4904375,2.135628,3.6637108,-0.9504822,1.1622036
1601,A,265086715870868,0.51954174,8.393473,0.59256494,1.4562165,1.4261228,0.81705785
1601,A,265086755766181,2.3529017,9.649231,0.17717093,1.0373013,-1.0351708,1.0503508
1601,A,265086795967223,3.4596214,8.0684595,1.3730747,0.40240365,-0.9462212,0.64847976
1601,A,265086835510973,4.396951,7.351995,0.25318682,0.74275565,-0.6689861,0.47617322
1601,A,265086875535921,5.671864,7.9990277,1.3120226,0.42184472,-0.5067996,0.5070659
1601,A,265086915337952,5.758055,9.412206,-0.47285482,0.87831056,0.5411543,0.10439592
1601,A,265086955514098,3.7163997,9.944317,0.4213795,0.5121259,2.0240026,0.21491711
1601,A,265086995476649,3.5661635,14.636952,1.3976152,-0.15686019,-0.8135957,-0.3187804
1601,A,265087035344616,4.192846,9.943718,0.7422025,-0.47617322,2.4881914,-0.7352988
1601,A,265087075135034,5.5324016,10.562619,5.8867435,-3.1278827,1.6543556,-2.3241408
1601,A,265087115283212,5.20679,16.324863,-4.927267,-4.244014,-1.1787151,-2.2272017
1601,A,265087155254462,17.398664,8.046313,7.7051396,0.12117383,3.904727,0.009321064
1601,A,265087194678159,0.22744916,7.3729444,-4.0557775,-0.43888897,-0.044208474,-2.7561054
1601,A,265087234559097,1.785476,6.4404025,0.11252748,-2.7076359,-1.4125407,-1.212271
1601,A,265087274486337,5.819107,5.056554,-0.99179804,-2.6160233,-1.8389127,-0.9653959
1601,A,265087314423993,2.9777884,3.293823,-0.4890157,-1.4354439,-1.2660668,-1.0551444
1601,A,265087354356753,5.0080714,2.1027076,-0.6063316,0.03781689,-1.2034825,-0.4791027
1601,A,265087394473784,3.6403837,2.1984756,2.1631613,1.2964269,-1.2993563,-0.0127831735
1601,A,265087434367481,2.0907366,6.9725137,4.8859673,2.583,-1.3978933,0.8607337
1601,A,265087474330504,1.9752164,19.612701,13.22976,-0.47244477,-0.8082694,-0.10173275
1601,A,265087514341285,-0.44831428,8.04751,7.153276,-1.7417074,-0.7797736,-1.1997541
1601,A,265087553680660,-2.0458453,1.3024458,1.1905168,-0.28575718,-1.6716663,0.50120693
1601,A,265087593839514,14.709975,14.721947,-11.232397,1.0855045,-0.6490124,1.7853832
1601,A,265087633768837,6.6965823,6.3589997,1.3443443,1.6223978,2.2471755,-1.685781
1601,A,265087673805244,2.541445,0.84335756,-5.649119,-1.2551478,-1.2045478,0.47297743
1601,A,265087713788472,8.810063,6.973711,-2.0949266,2.4311998,1.5654061,1.2604742
1601,A,265087753478575,8.53892,9.17099,-4.7381253,4.090349,0.8428905,0.6218481
1601,A,265087793585139,3.5613751,8.670602,-2.7790697,1.76248,1.8090854,0.8591358
1601,A,265087833519357,-0.84814596,11.401787,12.753913,0.7273093,-0.30812773,1.3166668
1601,A,265087873832795,-0.5141548,11.015123,-4.433463,2.458364,-0.19600865,1.0338391
1601,A,265087913263680,2.5881321,8.717887,2.5600002,1.2905679,-0.13688648,0.2695119
1601,A,265087953246596,3.5984852,8.575432,0.33997664,0.5249091,-0.6125271,0.47031426
1601,A,265087993049357,4.262876,8.230667,0.7158663,-0.038083203,-1.0974888,0.7305051
1601,A,265088032938680,5.144541,9.470863,-0.85532856,-0.040746365,-0.20026971,0.28442562
1601,A,265088072632222,4.462792,11.007342,-0.56323594,-0.18855181,0.98403805,0.03781689
1601,A,265088112608941,4.841076,12.005126,1.608305,0.113983296,-0.58909124,-0.47137952
1601,A,265088152346962,5.7305217,8.461109,-0.23463176,0.16165388,1.7899106,-0.9502159
1601,A,265088192599565,4.150947,12.142194,5.2905874,-3.0399985,1.7963022,-1.5744609
1601,A,265088232970398,4.675277,10.994174,-1.4161704,-3.5747612,0.13342437,-2.329467
1601,A,265088272074513,12.331336,15.357607,-3.7804444,-2.6122947,1.5962988,0.38935417
1601,A,265088312488419,6.0040593,9.166202,2.5719712,1.5238608,1.4825819,-1.8295918
1601,A,265088352163368,1.0450691,10.624868,0.9355343,-2.3896544,0.092145376,-1.6098809
1601,A,265088392096596,5.153519,4.2078094,-1.5316905,-2.5190842,-1.4708639,-1.0535465
1601,A,265088431891544,3.6254199,1.6891093,-0.599149,-1.8221349,-1.0333065,-0.9683254
1601,A,265088471572013,3.4075475,0.75716627,-1.2515689,-0.6103965,-1.0506171,-0.4034689
1601,A,265088511511492,1.9183542,0.23223756,1.5813702,0.68816084,-1.046356,0.13821806
1601,A,265088551539409,1.2282255,7.3909006,6.91625,2.2287996,-2.149171,0.87058735
1601,A,265088592229565,6.377555,19.612701,14.867394,-0.87138635,0.13475595,-0.25726137
1601,A,265088631716857,-0.5069722,6.3422403,6.4188547,-1.7718011,-1.259409,-0.9108011
1601,A,265088671404147,-0.2765303,1.9710265,3.454833,0.26391926,-1.0005497,0.49428272
1601,A,265088711578472,19.612701,19.612701,-3.6104562,1.2572783,1.6282567,0.8085357
1601,A,265088751455554,3.3800142,2.5803509,-0.9187749,-1.1366372,-0.6420882,-0.52437645
1601,A,265088790903991,2.224812,2.2936451,-3.5003228,0.50813115,-0.62238073,0.29161614
1601,A,265088831325033,9.054273,7.888296,-2.7485435,2.4578314,1.3406353,1.361408
1601,A,265088870895398,8.877101,9.185953,-1.8788497,2.9177594,0.2644519,0.9472864
1601,A,265088911148941,4.3622355,8.51019,-1.5717934,1.6050872,-0.10839066,0.91612744
1601,A,265088951477429,2.005144,9.020155,-1.9237411,2.9092371,0.6151902,1.624262
1601,A,265088990865971,-0.25438392,10.658986,1.6418238,1.3837786,-0.43303,0.943558
1601,A,265089030818835,3.4973302,8.038532,1.4574703,0.61439127,-0.67990506,0.3832289
1601,A,265089070395710,4.2221746,7.8589673,-0.019153614,0.76565886,-0.58243334,0.38615838
1601,A,265089110465658,4.7058034,7.873931,0.6266823,0.17976338,-0.9219864,0.7193198
1601,A,265089150517377,4.6339774,9.263765,-1.2533646,0.29507825,-0.17550232,0.1403486
1601,A,265089189903002,4.654927,10.606912,0.9044097,-0.1834918,1.3691311,0.1355549
1601,A,265089230359981,2.5845408,13.759478,0.74758947,0.2809635,-1.2969595,-0.6101302
1601,A,265089270242377,5.667674,10.841544,3.4596214,-0.7432883,3.756389,-1.4668691
1601,A,265089310697118,7.00723,11.066599,3.5871127,-3.1348069,1.320928,-2.2793996
1601,A,265089350019409,5.7389016,13.019669,-2.2403743,-3.8474689,0.2213087,-1.5347798
1601,A,265089389572325,17.06647,11.998542,5.2852,0.30200246,2.7182887,-0.1355549
1601,A,265089429586543,3.181894,11.362882,-0.7380127,-1.1614046,0.6492787,-1.778459
1601,A,265089469761075,3.900753,5.7029886,-1.276708,-3.1025827,-0.89828426,-1.0231866
1601,A,265089509706545,4.4436383,1.7082629,-1.2599486,-2.4098945,-1.0295781,-0.90281165
1601,A,265089549538211,2.6258407,1.3215994,-0.6655881,-1.6250609,-0.8157263,-0.76592517
1601,A,265089588942273,3.3889925,1.0869676,-0.8098387,-0.2231729,-0.8357,-0.45566687
1601,A,265089629028575,1.8195933,1.1073183,2.895787,1.2349079,-1.2247878,0.09454222
1601,A,265089669777898,0.38367084,8.99322,9.000402,2.9901974,-2.2011027,0.79601884
1601,A,265089709194460,9.032125,19.612701,13.332112,-1.1957593,0.13102753,-0.82211787
1601,A,265089749083263,-0.56443304,1.1947067,4.69084,-2.3129554,-1.9707392,-0.68869346
1601,A,265089788563783,2.9460652,6.469133,2.724003,0.5968144,-0.9190569,1.1733888
1601,A,265089828874512,11.9853735,14.25388,-0.5823896,-0.9749833,3.5388086,-0.69002503
1601,A,265089868832220,2.243367,-0.4213795,-6.6026096,0.56245965,-3.166765,-0.515588
1601,A,265089908724565,7.615956,5.643732,-3.5087025,1.7710022,2.2937808,1.4183996
1601,A,265089948572533,11.872248,9.8042555,1.4024036,3.1808796,-0.21571605,1.7888453
1601,A,265089988196700,6.341043,10.206482,-4.5280337,3.699397,-1.9350529,0.73769563
1601,A,265090028892638,0.044891283,12.067974,0.43754035,2.7760792,3.4139063,1.3121395
1601,A,265090068292533,0.130484,7.289746,2.3594859,1.3680658,-1.5792545,1.1438277
1601,A,265090107758419,3.9755719,7.257424,0.16160862,0.18082865,-1.3371732,0.41571945
1601,A,265090147823678,4.723161,8.812458,1.2384008,0.49295112,-0.59601545,0.15233281
1601,A,265090187384512,3.9354692,7.960122,-0.3441665,0.90467584,0.2759035,0.6780408
1601,A,265090227366335,4.8458643,8.508394,0.86251116,0.71798825,-0.48469532,0.56006277
1601,A,265090267797064,4.4687777,8.648455,-2.0332758,0.6372945,0.18056233,0.13022858
1601,A,265090307691648,4.6178164,11.61547,2.6761189,-0.009853696,0.63250077,0.09986854
1601,A,265090347617949,1.846528,12.896367,1.38325,0.71825457,-1.2229236,-0.39760995
1601,A,265090387785657,4.283227,10.371083,1.6921021,-0.7928231,2.378203,-1.2548815
1601,A,265090427392117,6.0238113,9.548077,1.7513585,-2.1451764,1.0290455,-1.4921691
1601,A,265090467388783,6.9407907,9.816227,0.92416185,-2.607501,1.4458302,-2.0064256
1601,A,265090506978261,13.451822,17.527351,-2.5252843,-1.6586168,1.7646105,-0.75633776
1601,A,265090546869044,6.18961,8.024167,3.0490158,0.11771172,2.2807312,-0.9528791
1601,A,265090586877793,0.3345897,9.163208,-3.9246953,-2.0375845,-1.9438413,-1.459945
1601,A,265090626778835,3.899556,6.6708446,2.7688942,-2.16515,-0.50786483,-1.360609
1601,A,265090666619773,5.620987,3.0855274,-1.134253,-2.2772691,-1.6152072,-1.4365091
1601,A,265090706373992,2.8413188,1.6867151,-0.42317516,-1.2138689,-1.2759205,-0.784301
1601,A,265090746947428,3.3770216,1.804031,0.24540567,0.33103094,-0.9270464,-0.21358553
1601,A,265090786159512,1.3204023,2.7180176,4.335301,1.6080167,-1.1736552,0.31691617
1601,A,265090825772428,-0.32680854,15.547347,10.7194395,1.4644723,-1.4753913,1.0130665
1601,A,265090865633210,4.920683,19.612701,9.375694,-1.8881812,-1.1928298,-0.8996158
1601,A,265090905542116,1.6681601,-0.480636,5.5671177,-1.4575481,-1.0740529,-0.26631612
1601,A,265090945719824,9.668385,9.082404,-5.0332108,0.9472864,0.04261058,1.1906993
1601,A,265090985374512,6.5020533,10.811018,-0.94092125,-0.6668556,2.4184167,-0.47803742
1601,A,265091025253105,2.5067291,1.6220716,-7.747637,0.16058862,-2.1659489,0.4628574
1601,A,265091065331647,8.96449,7.4375877,-2.8107927,2.0333235,1.989115,1.5595472
1601,A,265091105928991,9.5798,9.178771,0.3357868,3.8775625,0.2644519,1.1851068
1601,A,265091145204668,3.855862,10.061034,-3.6643257,3.6788907,0.17204021,0.90148
1601,A,265091185323001,-0.6440403,12.0805435,3.2908301,1.4215955,1.8490328,1.4567492
1601,A,265091225227949,1.4574703,7.5171947,0.10175357,0.753142,-1.5678029,1.0628676
1601,A,265091265200084,4.134786,7.94037,-0.13826515,0.03195793,-1.5480956,0.6761766
1601,A,265091304934355,3.518878,7.15986,0.5650316,0.32037827,-0.9965549,0.67670923
1601,A,265091346296959,4.5633483,8.719084,0.1448492,0.87138635,-0.4181163,0.8364989
1601,A,265091384352011,4.658518,9.674371,0.4878186,0.70014507,-0.5581986,0.46924898
1601,A,265091424287740,3.6750996,9.284714,-1.0486604,0.49454904,0.67244816,0.15606125
1601,A,265091464677636,4.122815,12.565369,0.7954735,0.540888,-0.41971418,-0.6601977
1601,A,265091504066542,3.8283286,9.492412,0.79966336,-0.3270362,2.7116306,-0.99229383
1601,A,265091544129303,5.4521956,12.410943,2.8892028,-2.271144,2.1539648,-1.7124126
1601,A,265091583883209,5.531803,11.152191,-0.3357868,-3.2229576,0.6775082,-2.1030984
1601,A,265091624027063,12.429498,16.188993,-2.9813797,-2.3465114,0.845021,-0.023435818
1601,A,265091664111490,6.5379663,11.812392,3.1723173,1.3283848,2.0655477,-1.7901769
1601,A,265091703879719,1.5646108,10.773908,-0.7062895,-2.7033749,-0.690824,-1.7251958
1601,A,265091743744876,6.506243,3.3357215,-0.5638345,-2.7702203,-1.5235945,-1.1877699
1601,A,265091783601855,4.550779,0.3286042,-1.525705,-1.9318571,-1.2660668,-1.0908308
1601,A,265091823827688,2.8604724,0.5895722,-1.1923125,-0.67324716,-0.9440906,-0.6543387
1601,A,265091863144251,2.2816741,1.2060791,-0.0688333,0.39121836,-1.2381036,-0.05273059
1601,A,265091903332792,1.4652514,4.1659107,5.7365074,1.7411747,-1.9750003,0.70174295
1601,A,265091943017167,5.319318,19.612701,13.408128,0.61891866,0.11451593,0.6508766
1601,A,265091983316178,1.6968905,13.942634,9.419987,-1.788579,-1.4697987,-1.5616777
1601,A,265092022936646,-0.8882488,2.9939492,6.0567317,-1.0972224,-0.53103435,0.1488707
1601,A,265092062795501,19.612701,19.612701,-6.52001,-0.14567491,3.037069,0.21624869
1601,A,265092102797948,1.7118542,-6.2985463,11.216835,0.603206,-3.3507893,-0.9321064
1601,A,265092142719719,5.026028,4.6232033,-7.1820064,1.6077504,1.3685985,1.2271847
1601,A,265092182945917,13.388376,10.281301,1.0313023,2.9854035,1.6327841,1.8639464
1601,A,265092222690188,6.4906807,9.3733,-3.3985693,3.80619,-1.5219966,1.0863035
1601,A,265092262498209,-1.9812019,14.821904,-0.84216046,2.0306604,1.5006913,1.0562097
1601,A,265092302459928,0.84216046,8.429984,4.4077253,1.8807244,-0.76086515,1.4535533
1601,A,265092342257323,3.7750576,7.378331,0.3645172,-0.22423817,-1.2514194,0.63862604
1601,A,265092382242948,3.8869865,7.675811,-0.011971008,-0.21438447,-1.3238574,0.4348942
1601,A,265092422055188,4.184466,8.147469,-0.34835634,1.0500845,-0.17257284,0.5118596
1601,A,265092462026907,4.4633904,8.456919,1.7986441,1.2756542,-0.5336975,0.58749336
1601,A,265092502242792,3.3608606,9.002797,-1.7483658,1.2705942,0.8788432,0.06498113
1601,A,265092542599877,3.5529952,11.871649,2.8742392,-0.5289038,0.4245079,0.033023197
1601,A,265092581728314,2.1080947,13.273455,-1.6250644,0.13688648,-0.69055766,-0.8977516
1601,A,265092621716283,5.6658783,13.602657,4.092888,-1.176052,2.0618193,-1.7819211
1601,A,265092661749980,7.6452847,9.940127,3.3877954,-2.9103024,2.0026972,-1.9880497
1601,A,265092701351751,9.524135,13.037026,-3.1124623,-2.6471822,1.2407668,-0.85753787
1601,A,265092741697948,10.461464,8.92738,3.0609868,-0.47324374,1.871137,-0.82584625
1601,A,265092781512271,3.9827545,9.510367,-0.12090719,-1.2695289,0.6812366,-0.7731157
1601,A,265092821213835,3.1974564,7.0664864,0.62488663,-2.2178805,0.21704763,-1.3696637
1601,A,265092861480033,5.547365,0.55725044,-1.1575965,-2.12973,-0.35579833,-1.2828447
1601,A,265092901715085,2.2391772,2.7760768,0.22026655,-0.9472864,-0.695884,-0.77604514
1601,A,265092940975136,2.9903579,1.3425486,-0.5781997,0.0479369,-0.70014507,-0.18082865
1601,A,265092981106178,1.5191209,1.4532804,2.0392613,1.0482203,-0.9438243,0.44581318
1601,A,265093021059458,0.01316811,8.817844,9.022549,2.1704764,-2.3955135,0.80374205
1601,A,265093060859408,6.242881,19.612701,10.854114,-0.84076,-0.24527714,-1.0900319
1601,A,265093100576283,0.84575176,3.3686419,7.667431,-1.7185379,-1.598962,-0.6708503
1601,A,265093140308679,6.5068417,5.4767365,0.21547815,-0.165116,-0.12010857,1.3318468
1601,A,265093180541387,9.622296,13.280038,-3.7223852,0.08362326,1.7433053,-0.11664646
1601,A,265093220209929,1.9351135,1.7351977,-3.2345665,0.6942861,-1.3638048,-0.07962852
1601,A,265093260648678,6.6959834,6.5786676,-2.859874,1.9576898,1.019458,1.3467606
1601,A,265093299996595,10.391434,10.336368,-1.027711,2.8977857,-0.039414786,1.7718011
1601,A,265093339943158,2.6629508,11.42932,-0.84934306,2.7113643,-1.0990866,0.44767737
1601,A,265093380067688,1.4532804,9.555259,0.6895301,2.3012376,2.0756679,0.953678
1601,A,265093419971230,2.6461914,6.8444242,1.1923125,1.1230551,-1.3323795,0.83223784
1601,A,265093459913158,3.442862,7.6494746,-0.030526072,0.045540057,-1.1880362,0.6556703
1601,A,265093499506074,3.8714242,7.8236527,1.2114661,0.8157263,-0.53289855,0.4013384
1601,A,265093539450397,4.36044,8.209718,-0.3513491,1.1424961,-0.18855181,0.6111955
1601,A,265093579656074,5.0960584,8.90643,0.10115502,1.1379688,-0.18375812,0.34408042
1601,A,265093620086387,3.9827545,9.338584,-2.022502,0.6993461,0.73609775,0.165116
1601,A,265093659237741,4.3460746,12.644378,0.3369839,0.1355549,-0.7616641,-0.021837922
1601,A,265093699289512,1.5185224,11.873445,-1.2934675,0.44474792,0.41918156,-0.48522797
1601,A,265093738966595,4.7860093,12.328941,1.1258733,-1.4950987,1.9318571,-1.4130733
1601,A,265093779124719,7.119757,8.992023,2.4438813,-2.6088326,1.5638082,-1.768339
1601,A,265093819028105,9.02614,12.941258,-2.1829133,-2.112952,0.989897,-1.3899038
1601,A,265093859209042,11.662156,11.774684,3.357868,-0.7033408,2.9079056,-0.6511429
1601,A,265093899055605,4.9081135,9.478644,0.5626374,-1.4072144,0.19068234,-0.7707188
1601,A,265093938703366,1.5682021,8.641871,-2.8431146,-2.0418456,-0.01438107,-1.6426378
1601,A,265093979085396,5.265448,3.3848026,-0.6985083,-2.3446472,-1.1845741,-1.109473
1601,A,265094018814875,3.7535098,2.1637597,-1.1432313,-1.9558256,-0.8836369,-0.92065483
1601,A,265094058469251,3.1950622,1.7316064,-0.97144735,-0.61865234,-0.628506,-0.406931
1601,A,265094098112636,2.0452468,1.965041,0.5746084,0.45992792,-0.7597999,0.0743022
1601,A,265094137986386,-0.015562311,6.069301,8.711902,1.8437065,-1.5235945,0.25726137
1601,A,265094178320917,1.9620483,19.612701,13.542802,-0.3291667,-0.29241508,0.0055926386
1601,A,265094218330032,2.5851393,6.621165,9.710283,-2.265551,-2.1102889,-1.113734
1601,A,265094258222011,-1.560421,-2.5941176,5.421071,-0.6926882,-0.7954862,0.3518036
1601,A,265094297727271,16.868347,19.612701,-2.5582044,1.3179984,0.34967306,0.89162636
1601,A,265094337865552,5.4049106,4.2945995,-5.04578,-2.0429108,1.160872,-0.22264028
1601,A,265094377384094,2.4181437,1.2898762,-5.185242,0.92944324,-0.48469532,-0.042876896
1601,A,265094417614823,9.146449,6.797737,-1.0271125,3.323625,2.145709,1.4072144
1601,A,265094457736438,8.772954,9.479243,-0.19572599,4.1622543,0.16751283,1.7813885
1601,A,265094497373469,6.0884547,10.032902,-5.1984105,2.6471822,-0.22423817,1.1084076
1601,A,265094537300552,-0.40821138,11.767501,3.0873232,2.04877,0.6016081,2.0098877
1601,A,265094577437636,-0.801459,8.096592,1.2264298,1.408546,-0.9502159,0.78323567
1601,A,265094617130240,3.9857473,8.438962,0.8702923,0.85966843,-0.5944176,0.06924219
1601,A,265094656798417,4.1012673,8.358757,0.31064767,0.716923,-0.41412157,0.31451932
1601,A,265094697616698,4.484938,7.563283,0.4381389,0.27324033,-0.4822985,0.6660566
1601,A,265094737887896,4.9266686,8.5622635,-0.78170687,0.3320962,-0.10865697,0.43542686
1601,A,265094776225084,4.2185836,9.299678,-2.0871453,0.5219796,1.0072075,0.035952676
1601,A,265094816878781,4.271256,11.573571,0.5398925,0.5075985,-0.34194988,-0.21784659
1601,A,265094856510448,3.2668881,11.306618,-0.27353755,1.5057513,-0.76592517,-0.7307714
1601,A,265094896677063,4.0743327,12.869432,2.6288335,-1.504686,2.803776,-1.402687
1601,A,265094936260343,7.0036387,9.188946,1.2611457,-2.4354608,0.9574064,-1.8439728
1601,A,265094976027844,8.740632,13.590087,-1.8381484,-2.1438446,0.7036072,-1.490305
1601,A,265095015858156,11.699266,12.841899,1.4359225,-1.0191917,2.047971,-0.62104917
1601,A,265095056560083,5.3486466,8.834604,1.4161704,-1.3755227,0.58722705,-0.91426325
1601,A,265095096145344,0.9696517,8.593389,-2.7329812,-2.141714,-0.23329292,-1.6418388
1601,A,265095135879979,4.9386396,3.2393548,-0.039504327,-2.4138892,-1.2306467,-1.1992215
1601,A,265095175986854,4.300585,2.381632,-1.4676456,-2.1792648,-1.0327739,-0.94595486
1601,A,265095215632948,3.4195185,1.8938135,-0.9391256,-0.71346086,-0.6130597,-0.62770706
1601,A,265095255353990,2.1811178,2.35769,0.8559271,0.50333744,-0.5073322,-0.13289174
1601,A,265095295007636,-0.08200141,4.602853,7.2430587,1.6801884,-1.1978899,0.3075951
1601,A,265095334890188,-2.1350293,19.612701,13.722965,-0.40213734,-0.74648404,0.029028457
1601,A,265095374824823,3.7906199,11.542446,11.452663,-2.2623553,-1.7385116,-1.0378339
1601,A,265095415212844,1.1444284,0.7320272,6.525397,-0.7909589,-0.86685896,-0.1222391
1601,A,265095454628052,12.898163,18.09837,-0.8714894,-0.5368933,0.20266657,0.8905611
1601,A,265095494770292,6.754043,4.4759603,-5.969942,-1.3214606,0.68150294,0.06258429
1601,A,265095534608313,2.690484,2.5031378,-6.135142,1.9140139,-0.12197278,0.055127434
1601,A,265095574473989,11.892,8.628104,-0.18614918,3.3052492,2.3347933,1.7947043
1601,A,265095614403416,9.494206,9.040505,-0.13108255,4.211523,-0.61865234,1.7377126
1601,A,265095654114822,1.7298107,11.312603,-2.8161798,2.2815301,0.6956177,0.7091998
1601,A,265095694432374,-0.16998832,9.671378,2.0446482,1.3078785,0.6194513,1.1147993
1601,A,265095734543051,0.93852705,7.7428484,0.89662856,1.3235911,-0.8697884,0.96939063
1601,A,265095774613728,3.1705215,8.978256,0.50038815,0.7350325,-0.8996158,0.5225122
1601,A,265095814189874,3.894169,8.321048,1.1725603,0.8383631,-0.6716492,0.48336375
1601,A,265095853997166,4.1144357,7.5644803,0.3345897,0.6351639,-0.6266418,0.55580175
1601,A,265095893802010,4.8261123,8.909423,-1.163582,0.34860778,0.0,0.3640541
1601,A,265095933852895,4.189853,8.722675,-0.98940384,0.34860778,1.29909,0.024234766
1601,A,265095973586072,4.237737,11.344326,0.74998367,0.4396879,-0.36804888,-0.26711506
1601,A,265096013223051,3.3381157,11.112088,0.6901286,1.6788567,-0.7917578,-0.59601545
1601,A,265096053481176,5.9448028,12.6300125,2.308609,-0.78989357,2.9664953,-1.1638014
1601,A,265096093101333,6.126762,9.270349,2.3666685,-2.4514399,1.0804445,-1.2801815
1601,A,265096133462218,6.3380504,9.739014,-1.1055226,-2.310026,0.8743158,-1.5827167
1601,A,265096172839666,10.845135,16.593613,-0.5279215,-1.5539545,1.8841865,-0.7888283
1601,A,265096212905916,6.591237,8.817246,1.87047,-1.0647318,1.3092101,-0.8546084
1601,A,265096252636281,2.9939492,8.10557,-2.6156654,-1.5456988,-0.7121293,-1.2639363
1601,A,265096292547635,5.6347537,4.156933,0.79128367,-2.1766016,0.049801115,-1.4218618
1601,A,265096332552687,3.0885203,3.9378633,-0.53689975,-2.397644,-1.179514,-1.2713932
1601,A,265096372387843,3.108871,1.8393455,-0.5662287,-0.9305085,-0.94089484,-0.75820196
1601,A,265096412663103,2.2284033,1.6531962,0.504578,0.44181845,-1.0452907,0.0061252704
1601,A,265096452461333,-0.022146367,2.6497827,6.76781,1.8572886,-1.4165354,0.51691955
1601,A,265096493149249,-0.6907272,19.612701,15.555727,-0.13022858,-0.6780408,0.74248934
1601,A,265096532332374,5.9268465,13.819931,11.15279,-2.288188,-1.9726034,-1.4729944
1601,A,265096572138520,0.4985925,0.45130703,6.031593,-1.160872,-0.46658584,0.23675503
1601,A,265096612005552,17.609354,19.612701,-1.2437878,-0.7470167,2.0668793,0.70147663
1601,A,265096652424249,2.3636756,-1.0606314,-1.7753005,0.5837649,-1.3137374,-0.061252706
1601,A,265096691774510,4.1599255,4.777031,-3.9348705,2.1166804,1.1568772,0.91319793
1601,A,265096731598572,11.829751,11.116279,-0.13467385,3.0519826,1.2314457,2.2082932
1601,A,265096771402427,6.1584854,12.135012,1.3964181,2.821353,-1.8634138,0.87165266
1601,A,265096811489666,0.6853402,10.243592,-1.5179238,2.1720743,1.2873721,0.4612595
1601,A,265096852053468,1.578976,7.3388267,2.023699,1.3230585,-0.13608754,0.99282646
1601,A,265096891471749,3.6673183,7.863157,0.53689975,1.0234529,-1.1848404,0.7366304
1601,A,265096931493781,3.5691562,7.9966335,0.76315176,0.36591834,-1.0484866,0.6527408
1601,A,265096971178989,3.57993,7.6015906,-0.010175358,0.5113269,-0.71985245,0.56272596
1601,A,265097010785187,4.9637785,8.455722,1.4287399,0.65673554,-0.3472762,0.5403554
1601,A,265097050975291,5.0787005,8.733449,-0.01436521,1.3430321,-0.0013315806,0.06950851
1601,A,265097092302635,3.4272997,9.469068,-1.5298948,0.2724414,1.7339842,0.03888215
1601,A,265097130696385,2.429516,13.882778,-0.45010993,-0.13608754,-0.9155948,-0.077231675
1601,A,265097170970760,4.5016975,10.158598,-1.1552023,0.46552056,0.13129385,-1.2215921
1601,A,265097211438520,6.5666966,11.206061,3.590704,-1.7840517,2.2058964,-1.7694043
1601,A,265097250680083,6.553529,8.805275,1.2557588,-2.4367924,1.7124126,-1.7081516
1601,A,265097290596644,12.133216,15.5515375,-3.0250738,-2.2303975,0.94595486,-1.128115
1601,A,265097330239093,7.856573,9.479243,1.9895816,-0.9598033,1.3028184,-0.7006777
1601,A,265097369977583,4.9344497,5.506664,-12.537237,-1.8000306,0.27563718,-0.6002765
1601,A,265097410010395,3.1160536,8.170812,3.405752,-0.3502057,0.74941355,-1.4671354
1601,A,265097449803833,2.3127987,6.027403,-1.8513165,-2.6383936,-1.8847191,-1.1747204
1601,A,265097490042479,2.7886465,1.8596961,-1.5885528,-2.0762005,-1.5369103,-0.8633968
1601,A,265097529761072,2.9682117,0.25079262,-0.55844754,-0.09880328,-0.732103,-0.24021713
1601,A,265097570217479,1.9608512,2.432509,2.9239187,1.2775184,-0.87618,0.30493194
1601,A,265097609939614,-1.4903905,11.634624,10.809222,2.0708742,-2.0735373,0.4530037
1601,A,265097649642270,5.518635,19.612701,9.063251,-1.551824,-0.8130631,-0.6831008
1601,A,265097689473572,2.1829133,2.2158337,8.422802,-1.8101506,-1.9667445,-0.8183894
1601,A,265097729944458,4.1796775,10.90499,4.572925,0.046072688,-0.824781,0.57763964
1601,A,265097769505500,10.482413,14.523826,-5.418677,-1.2791163,1.7880464,0.2495382
1601,A,265097809603104,0.7332243,-1.7411832,-3.309984,0.38722363,-1.5294534,-0.5070659
1601,A,265097849042479,5.6880245,5.539584,-4.4298716,2.3912523,1.8833876,1.190433
1601,A,265097889209458,14.493898,12.493543,3.8905778,3.2967272,-0.01304949,2.3132217
1601,A,265097929820395,3.378817,10.746374,-1.1701661,2.9694247,-2.193113,0.5717807
1601,A,265097968802322,-0.31004912,10.809821,1.4215573,1.0711234,1.5233282,0.525708
1601,A,265098008523937,2.0721815,6.849811,0.6991069,0.83223784,-1.4090786,0.9653959
1601,A,265098048361385,3.537433,8.061277,0.57041854,0.711863,-1.160872,0.44821003
1601,A,265098088265708,3.9228995,7.852383,0.059855044,0.73796195,-0.58243334,0.29161614
1601,A,265098128213677,3.863643,7.7709804,0.34356794,1.149953,-0.33156356,0.3549994
1601,A,265098168205656,4.6561236,8.306683,1.2378023,1.0953581,-0.3749731,0.51478904
1601,A,265098208331489,5.5084596,9.223662,0.80564886,1.4005564,-0.21864553,0.25086978
1601,A,265098248144093,3.7325604,9.287707,-2.641403,0.7193198,1.3038837,0.26738137
1601,A,265098288905864,1.6603789,14.477139,-0.40940848,0.09321064,-0.4013384,0.18642128
1601,A,265098328361906,1.7914615,9.868899,-2.333748,0.21331921,-0.33502567,-0.76752305
1601,A,265098368283572,5.909488,13.246519,2.669535,-1.3126721,1.1552793,-1.555286
1601,A,265098408275447,7.4244194,8.932168,2.7515364,-2.7635622,1.7478327,-1.7105484
1601,A,265098447773780,10.942101,13.829508,-4.313154,-2.10949,0.95953697,-1.1422298
1601,A,265098487394144,9.596559,9.630676,10.545261,-2.245045,2.1920478,-0.8519452
1601,A,265098527637269,2.8443117,9.385869,0.66618663,-1.1496867,1.2567457,-0.7006777
1601,A,265098567580967,4.818331,7.707534,-0.17238252,-1.9550266,-0.14247912,-1.7923075
1601,A,265098607395863,5.113416,2.5863364,-0.7433996,-2.0104203,-0.9110674,-1.4386396
1601,A,265098647957634,3.0933087,3.074155,-0.4758476,-1.5712651,-0.82611257,-0.7850999
1601,A,265098686826488,2.9532478,2.146402,-0.46028528,-0.46924898,-0.59601545,-0.1984055
1601,A,265098726728155,2.6880898,3.0017304,1.9434932,0.67697555,-0.7432883,0.23329292
1601,A,265098767199300,0.985214,6.443994,8.082825,1.1203918,-1.3720607,0.2647182
1601,A,265098807091488,-2.926313,19.612701,13.835493,-1.200553,0.26738137,-0.5297027
1601,A,265098846727269,2.747945,7.065289,9.225458,-0.6631271,-1.4865766,-0.87032104
1601,A,265098886513884,6.8288617,9.081805,9.341577,-0.44528055,-0.26418558,0.262854
1601,A,265098926810342,6.4344172,15.948376,-0.3645172,-1.2040151,0.22104238,0.5584649
1601,A,265098966297009,5.774216,1.5682021,-5.033809,1.267931,-0.33289513,-0.4013384
1601,A,265099007085707,8.038532,10.360908,-0.4818331,2.6730149,1.3116069,0.92278534
1601,A,265099045920707,4.7459064,8.957307,-0.3286042,1.0748519,-1.1174624,1.8000306
1601,A,265099086165550,3.5619736,8.451532,0.5363012,1.2045478,-1.8647454,0.79735047
1601,A,265099125938675,4.1335893,7.553706,0.641646,2.4783378,-0.028229509,0.0974717
1601,A,265099166026384,3.1268275,7.0820484,1.1737574,1.8634138,0.22024342,0.5539375
1601,A,265099206114144,2.0883424,8.8328085,0.002992752,1.823999,0.006657903,0.6034723
1601,A,265099245989977,2.677316,9.656414,1.0271125,1.947836,0.47191215,0.33795515
1601,A,265099285387738,4.43466,7.4908586,0.8098387,1.2644689,-0.69748193,0.19228023
1601,A,265099325664613,5.727529,7.32506,0.3800795,0.6940198,-1.1467572,0.18562233
1601,A,265099366188936,5.7538652,9.297284,-1.3670892,1.0900319,1.2535499,0.29161614
1601,A,265099405100550,4.947618,8.722675,-0.85891986,0.6532734,2.0754015,0.4250405
1601,A,265099445557894,4.3221326,11.295844,-0.4938041,0.41199103,1.7078853,-0.1438107
1601,A,265099485368676,1.0115502,12.776657,0.16460137,0.32037827,0.2000034,-0.14274544
1601,A,265099525307061,3.2231941,13.48175,0.5554548,-0.32091093,1.990713,-1.0189254
1601,A,265099565253050,5.463568,9.892841,3.176507,-3.2200282,1.1638014,-2.3369238
1601,A,265099605101748,9.0237465,14.945804,-4.494515,-2.9374666,0.030626353,-0.87032104
1601,A,265099645011644,10.796653,12.022484,4.1641154,0.10839066,3.977431,-0.691623
1601,A,265099684953780,3.0891187,11.825561,-2.4492683,-0.716923,-0.639425,-2.0423782
1601,A,265099725329247,3.5344403,7.0712748,-0.3184288,-3.1715586,-1.2455604,-1.5020229
1601,A,265099764734874,4.6525326,1.6190789,-1.0313023,-2.4165523,-1.2724584,-1.1305119
1601,A,265099804649300,2.6132712,0.7356185,-0.96546185,-1.4335797,-0.928378,-0.8048073
1601,A,265099844068207,2.6725276,1.1390414,-0.5931635,-0.30679616,-0.80081254,-0.27537087
1601,A,265099884462582,2.2517467,2.1757307,1.3072342,0.9504822,-0.90254533,0.2647182
1601,A,265099924397113,1.0588357,8.150461,8.055291,2.1142836,-1.8341191,0.84182525
1601,A,265099964120289,1.8752584,19.612701,14.153323,-0.531567,0.087618,-0.43516052
1601,A,265100004014664,-0.7978677,5.967548,7.687782,-1.9715382,-2.0325246,-0.97951066
1601,A,265100044286592,-0.6979098,4.471172,3.9474401,-0.18961707,-1.2394352,0.49747851
1601,A,265100084668466,19.46067,19.612701,-1.2886791,-0.5504754,2.5406556,0.16138756
1601,A,265100124203987,2.9334955,-3.1615434,3.0585926,-0.6540724,-1.8825886,-1.0314423
1601,A,265100164041905,3.4075475,3.0538042,-6.003461,1.242631,0.7089335,0.7185209
1601,A,265100203573831,11.918336,8.707113,0.7685388,2.6333337,2.5446506,2.2146847
1601,A,265100243817217,8.24563,9.880272,0.59136784,3.7510624,-1.8117485,1.5696672
1601,A,265100283744821,1.5472529,11.392809,-4.1180267,2.3595607,-1.6357136,1.045557
1601,A,265100323343050,-0.5021838,10.40939,1.9835961,1.2855079,2.5457158,0.51292485
1601,A,265100363525498,2.1493945,8.06427,0.29508537,1.2953615,-2.0176108,0.90973586
1601,A,265100403189977,3.6762967,7.2789717,0.31364042,0.12436963,-1.1677961,0.4066647
1601,A,265100443932998,3.669114,7.4603324,-0.6434417,0.5965481,-0.5856291,0.15339808
1601,A,265100482677790,4.7135844,8.977658,0.15861586,0.47244477,0.14407702,0.33422673
1601,A,265100523006800,5.180454,8.9040365,-0.17417817,1.1270498,-0.30360037,0.29001826
1601,A,265100563045655,3.9624038,8.164826,-1.5693992,1.3374395,-0.12623383,0.06897587
1601,A,265100602634300,4.0462008,12.834717,3.4979286,0.014647386,0.23462449,0.20772657
1601,A,265100642895758,-0.24540567,12.197859,-0.9343372,-0.25699505,0.027696876,-0.36618465
1601,A,265100682712997,4.905121,12.500127,2.0165164,-1.5009576,1.1691277,-1.4556838
1601,A,265100722380342,6.5858502,9.308058,2.8772318,-3.0538468,1.4207965,-1.7129452
1601,A,265100762663780,9.036914,13.948619,-3.7433343,-2.3068302,1.1009508,-1.3960291
1601,A,265100802651018,12.212823,11.650186,3.3506854,-0.7978831,1.9784625,-0.79069257
1601,A,265100842146331,4.9045224,9.423578,0.8038532,-1.3821807,-0.007989483,-0.81519365
1601,A,265100882450081,0.5542577,10.030508,-2.3756466,-1.7222663,-0.28682247,-1.8104169
1601,A,265100922097059,6.2823853,2.895787,0.24181437,-2.0703416,-0.8111989,-1.4146712
1601,A,265100961775811,3.5511997,1.6657659,-0.5434838,-1.5377092,-0.76086515,-1.1270498
1601,A,265101001524144,2.8939912,1.7669208,-0.7320272,-0.7747136,-0.82185155,-0.37257624
1601,A,265101041345603,2.295441,1.6160861,0.45848963,0.38908786,-0.5853628,0.23648871
1601,A,265101081237321,1.13964,4.161721,5.7161565,1.5150723,-0.91160005,0.61572284
1601,A,265101121340550,-1.9099745,19.612701,16.708534,0.013582122,-0.8090684,0.4079963
1601,A,265101162033362,4.2305546,11.116279,8.983644,-2.241849,-1.8213359,-1.0527476
1601,A,265101201442842,1.7262194,-1.7842789,6.6666546,-1.0796455,-1.071656,-0.45087317
1601,A,265101241449768,13.385384,15.103223,0.99778354,-0.85087997,-0.45859635,1.3717943
1601,A,265101281310445,5.805939,6.657078,-8.173206,-0.5992113,0.42557314,0.5629923
1601,A,265101320682530,2.1428106,3.151368,-3.3512838,1.9371834,0.7616641,-0.17656758
1601,A,265101361226592,8.021174,7.6524673,-1.951873,3.5023232,1.3049489,1.5403724
1601,A,265101401068258,10.530896,11.401189,-1.7166426,3.055711,-0.24261399,1.4809839
1601,A,265101440929300,1.287482,10.660183,2.5779567,2.6586337,0.51505536,0.4111921
1601,A,265101480748884,0.41479546,8.844181,0.700304,1.2077435,0.67005134,0.77631146
1601,A,265101520868623,1.5825673,7.6213427,0.7577648,1.267132,-0.37736994,0.70866716
1601,A,265101560589248,3.4398694,9.46009,1.3305776,1.2053467,-0.58483016,0.4250405
1601,A,265101600610341,3.774459,8.690353,0.6452374,0.9374327,-0.41172472,0.44075316
1601,A,265101640463727,3.6116533,6.8282633,0.62009823,0.4745753,-0.6825682,0.42370895
1601,A,265101680321123,5.0763063,8.557475,-1.3545196,0.4359595,-0.4045342,0.27803403
1601,A,265101719747738,5.531803,8.558074,0.91578215,0.8290421,0.63010395,-0.19787288
1601,A,265101760158363,4.650737,10.290877,0.7326257,0.92651373,1.1400993,0.019973708
1601,A,265101800064820,0.64703304,14.892533,1.520318,0.83250415,-0.13448964,-0.059388492
1601,A,265101839935080,2.4169466,13.581109,5.106832,-1.2793826,2.499643,-1.0857708
1601,A,265101880391799,7.3448124,10.126276,1.9309237,-3.355583,0.64341974,-1.7571537
1601,A,265101919469195,7.826047,13.335105,-4.426879,-3.5811527,0.66365975,-1.1017498
1601,A,265101959731851,13.092093,10.878654,6.147113,-1.0833739,2.4857945,-0.16431704
1601,A,265101999331018,5.506664,10.407595,-1.2449849,-0.86898947,0.62371236,-1.1142666
1601,A,265102039224872,3.34051,7.5106106,0.2160767,-2.2152174,0.060453758,-1.2050804
1601,A,265102079114351,4.9045224,1.5747862,-0.26515785,-1.504686,-0.040480047,-1.1997541
1601,A,265102118855028,1.3204023,1.5161282,0.075417355,-1.0849719,-0.41039312,-0.62264705
1601,A,265102159160861,2.0488381,0.7637503,-0.4429273,-0.28868666,-0.49721217,-0.023169503
1601,A,265102199072997,1.9985598,1.8650831,0.7637503,0.582167,-0.5139901,0.50813115
1601,A,265102239473466,0.78410107,8.09719,8.668207,1.4945661,-1.6527578,0.4293016
1601,A,265102278923726,2.5306711,19.612701,15.136143,-0.59628177,-0.2908172,-0.49428272
1601,A,265102318382059,2.4540567,8.500613,7.2179193,-1.7030915,-1.8751317,-0.7882957
1601,A,265102358747945,2.908955,7.2065473,4.779425,-0.45007423,-0.6175871,0.3536678
1601,A,265102398117997,14.25388,13.165715,1.8435353,-1.257811,1.35475,0.2231729
1601,A,265102438566071,0.89303726,-1.4748282,-4.895544,1.0575413,-1.2471584,0.12516858
1601,A,265102478094561,5.3636103,6.284181,-5.0541596,2.8043087,1.8426412,1.237571
1601,A,265102517823883,12.205042,12.784438,-1.5466543,3.601659,0.1520665,2.0551615
1601,A,265102557740862,2.1990743,12.579136,-0.94211835,3.282346,-0.3043993,0.79202414
1601,A,265102598555134,-0.24839842,9.953894,2.1320367,0.70147663,-0.010386328,0.71772194
1601,A,265102637507580,3.1250317,6.4392056,0.22266077,0.116912775,-2.1960428,0.93184006
1601,A,265102677740600,3.876811,7.4507556,-0.05805939,-0.13102753,-1.5821841,0.5094627
1601,A,265102717683257,4.1066546,7.9529395,0.3477578,0.48869008,-0.6945524,-0.011717909
1601,A,265102757516435,4.6860514,8.239047,-0.7691373,0.94941694,-0.3422162,0.10679276
1601,A,265102797483206,4.64535,8.009203,2.2038627,1.1334413,-0.13981596,0.33129725
1601,A,265102837133987,6.1405287,9.138668,0.65541273,1.9853866,-0.59787965,0.20213392
1601,A,265102877284768,3.8989575,9.1668,-2.815581,1.1579424,1.769138,0.14674018
1601,A,265102917375548,3.0005333,13.280637,2.5312698,-0.6535397,-0.4673848,0.36938044
1601,A,265102957440080,0.59495914,12.279262,-2.3600843,-0.3568636,0.13688648,-0.5067996
1601,A,265102997412476,5.9747305,12.051813,2.207454,-1.711081,0.80560625,-1.4410365
1601,A,265103036662268,7.4687123,10.290877,0.801459,-2.6876621,1.2370384,-1.5960325
1601,A,265103076694246,11.872248,12.971187,-3.0041246,-1.8506306,2.1502364,-1.0538129
1601,A,265103116671278,9.239224,9.452907,2.1523874,-0.77924097,1.779258,-0.8386294
1601,A,265103156554976,4.4125137,8.922591,0.32621,-1.8064222,-0.29348037,-0.47617322
1601,A,265103196512424,0.1376666,9.163208,-1.3245921,-1.8482338,0.19680761,-1.7808559
1601,A,265103236335445,5.771223,2.4361002,-0.8882488,-2.273008,-1.1385014,-1.2652678
1601,A,265103276318257,3.3201592,2.5803509,-1.0241197,-1.8998991,-1.0325075,-1.0388992
1601,A,265103316699768,3.108871,2.4492683,-0.6901286,-0.525708,-0.60507023,-0.56006277
1601,A,265103356093050,2.7419596,2.4271219,1.7274165,0.6010755,-0.5949502,-0.1257012
1601,A,265103396087685,0.89603,8.855554,8.829816,1.7390442,-1.4767228,0.3502057
1601,A,265103435864454,-0.6422446,19.612701,12.965799,-1.1163971,-0.24820662,-0.62557656
1601,A,265103475572789,3.7588966,5.527613,8.767567,-2.037052,-2.1664815,-0.94808537
1601,A,265103515475497,0.9151836,2.6761189,5.54138,-0.1933455,-0.9528791,0.29960564
1601,A,265103555481278,13.6170225,19.612701,-7.973889,0.1635181,0.8474179,0.9158611
1601,A,265103595227008,4.0378213,0.12449849,2.9131448,-0.6785734,0.3270362,-0.54195327
1601,A,265103635472893,2.7850552,2.3654714,-6.4547677,1.768339,0.2657835,0.69002503
1601,A,265103675497684,9.463082,8.48984,-0.99299514,3.1531827,2.368882,1.8168086
1601,A,265103715268465,8.623316,11.245565,0.2681506,3.7404099,-0.86845684,1.5033544
1601,A,265103755214142,-0.12270284,12.729372,-1.5664065,2.2152174,1.4578145,0.38748994
1601,A,265103795000653,0.23582886,8.344392,3.153762,0.35792887,-0.7914915,1.1582087
1601,A,265103834670080,2.5145104,7.538144,0.16519992,0.24900557,-1.6913736,0.46552056
1601,A,265103874629246,3.5212722,8.55149,-0.29029694,0.12037488,-1.7411747,0.39121836
1601,A,265103914552319,3.532046,7.3047094,0.96546185,0.7289072,-0.83063996,0.18455707
1601,A,265103954575862,4.405331,8.257003,0.16220717,1.2532836,-0.27137613,0.3153183
1601,A,265103994292893,5.903503,9.437943,0.034117375,1.65622,0.034621093,0.063116916
1601,A,265104034598518,3.7870286,9.287707,-2.6994624,1.318531,1.3419669,-0.19361182
1601,A,265104074127371,2.4642322,13.58889,2.6503813,-0.48522797,-0.15792546,0.3853594
1601,A,265104114272631,-0.2825158,11.526884,-0.40761283,-0.73636407,0.9821738,-0.43382895
1601,A,265104153851695,5.503671,13.392566,3.0711622,-2.3113575,0.96779275,-1.5848472
1601,A,265104194022945,6.669647,11.917139,-0.24660277,-3.0666301,0.39361522,-1.7283915
1601,A,265104233748310,14.128184,14.595653,-1.6956934,-1.8801918,2.086054,-0.4612595
1601,A,265104273837944,6.582259,8.376713,3.244742,-0.20240025,1.7294569,-1.1515509
1601,A,265104313597528,2.4390929,8.695741,-1.021127,-1.6245283,-1.034638,-0.89162636
1601,A,265104353753570,3.7900212,5.57849,1.3365631,-1.974734,-0.25885928,-1.3116069
1601,A,265104394044039,5.445013,2.0751743,-0.62847793,-1.8722023,-1.0551444,-1.0077401
1601,A,265104433495080,3.3686419,1.9901801,-0.5255273,-1.0133328,-0.7800399,-0.5683186
1601,A,265104473209872,2.8844144,2.3690627,-0.3705027,0.14247912,-0.47217846,-0.09081379
1601,A,265104512789612,2.5839422,3.3075895,1.6460136,0.989897,-0.7283746,0.4082626
1601,A,265104552670028,0.97503865,10.491392,10.334572,1.7243968,-1.469266,0.4426174
1601,A,265104592920445,2.597709,19.612701,9.953894,-1.7188042,-0.7917578,-1.1006845
1601,A,265104632737268,0.8882488,0.093373865,8.802282,-1.3944311,-1.433846,-0.8556737
1601,A,265104672387789,5.6305637,6.4739213,0.32202014,0.114782244,-0.5744439,1.2341089
1601,A,265104712354976,11.299435,19.60133,2.3517046,-0.007190535,1.3800501,0.111852765
1601,A,265104752713830,1.4287399,0.4866215,-4.337096,-0.13768543,-0.45380265,-0.19707392
1601,A,265104792091643,6.242881,6.872556,-3.0178912,2.5670211,1.7739316,1.0902982
1601,A,265104832531851,11.85489,10.180744,-1.0247183,3.5281558,0.14301175,1.813879
1601,A,265104871987737,4.6495395,11.312004,-1.6466122,2.9542446,-1.5073493,0.45087317
1601,A,265104912072841,0.3645172,9.834782,-1.5580268,2.8541098,2.1494374,0.9981528
1601,A,265104952530862,1.1031284,6.7869635,3.441665,1.0657971,-0.14141385,0.9467538
1601,A,265104991888518,2.9317,8.480861,-0.11372458,0.6641924,-1.0338391,0.41039312
1601,A,265105031975810,3.7804444,8.575432,0.94451255,0.61412495,-0.3518036,0.2231729
1601,A,265105071961278,3.3476925,8.588001,-0.061650693,0.59787965,-0.33262882,0.536627
1601,A,265105112324403,4.346673,9.31943,0.5943606,1.2665994,-0.41864893,0.4708469
1601,A,265105151950080,4.533421,9.680356,-0.24361002,1.2618058,0.7888283,0.025300032
1601,A,265105191845080,4.577115,9.812635,2.1284454,0.3086604,0.6593987,-0.039414786
1601,A,265105231610548,0.99898064,13.511079,-0.4794389,-0.1882855,0.9787117,-0.64049023
1601,A,265105271204610,3.2980127,11.383232,2.7760768,-1.8671423,2.1257353,-1.3219932
1601,A,265105311425914,5.153519,12.7497225,1.0061632,-3.507383,0.85327685,-2.2218754
1601,A,265105351134768,8.592192,16.437391,-1.6891093,-3.2567797,-0.28016454,-0.62264705
1601,A,265105391190237,10.957064,8.525752,1.929128,0.61226076,3.0288131,-0.87165266
1601,A,265105431096956,3.0017304,9.817424,-0.40162733,-1.3174658,-0.37710363,-1.0796455
1601,A,265105471227215,4.696825,5.9723363,0.27353755,-2.4311998,-0.2031992,-1.2647352
1601,A,265105510619976,5.1744685,2.1338322,-1.4077905,-2.155829,-1.1888351,-1.1201255
1601,A,265105550864455,3.2040405,0.58538234,-0.9888053,-1.1305119,-0.8692558,-0.82211787
1601,A,265105590475600,2.379238,1.1438298,-0.61052144,0.2130529,-0.82398206,-0.19254655
1601,A,265105630579454,1.3820529,2.8981812,3.5452142,1.2564794,-1.3536848,0.47377637
1601,A,265105670511017,2.6647465,14.84405,10.186729,1.5952336,-1.8519622,1.0668623
1601,A,265105710390079,5.3139305,19.612701,8.890269,-1.5659387,-1.0695255,-1.3595438
1601,A,265105750314246,-0.04369418,-4.313154,5.999271,-1.3318468,-1.2343752,-0.24607609
1601,A,265105789982944,9.67018,14.656106,-7.1047935,1.2210594,-0.7289072,1.4876418
1601,A,265105830613829,6.531981,8.239645,-3.4261026,-1.3558153,2.0343888,-0.4498079
1601,A,265105869776589,0.6901286,0.5141548,-4.3598413,0.30360037,-1.3944311,-0.22903186
1601,A,265105910056746,7.3885064,7.101202,-2.9843724,2.5337315,2.208027,1.5875103
1601,A,265105949856642,11.78845,10.476428,-0.50517654,3.4626422,0.0063915867,1.3291837
1601,A,265105989715496,4.0934863,9.9928,-3.8061821,2.5142903,-1.7816548,0.5294364
1601,A,265106029522787,0.040102877,10.474632,-0.1388637,3.73535,2.3129554,1.5310514
1601,A,265106069280184,0.46627077,7.6973586,3.554791,1.5249261,-0.545948,0.8700547
1601,A,265106109678413,3.5344403,7.7332716,0.83258367,0.35606465,-1.351288,0.4245079
1601,A,265106149565079,2.7473464,8.902241,-0.84814596,0.6785734,0.18588865,0.043675844
1601,A,265106189516486,4.6339774,8.962095,1.6747441,0.26072347,0.26658243,0.2066613
1601,A,265106229201851,4.530428,9.074024,-0.84096336,0.91319793,-0.24154872,0.19307919
1601,A,265106268812944,3.6445735,9.145252,-1.7130513,0.7816378,1.2634037,0.0314253
1601,A,265106309208569,3.3159695,12.875419,2.167351,0.104928546,-1.0266486,-0.120907515
1601,A,265106349138621,1.0893618,10.231621,0.9720459,-0.7954862,1.5297197,-0.4564658
1601,A,265106389060600,5.007473,12.601881,1.3108255,-2.4098945,1.7707359,-1.5012239
1601,A,265106428922891,6.2129536,12.281057,-0.15562311,-3.1353395,0.26844665,-2.142513
1601,A,265106468825132,12.6354,18.388666,-1.9422961,-2.2210765,1.0647318,-0.6213155
1601,A,265106508283360,6.9767036,8.959103,3.46022,-0.40080574,2.2503712,-1.1590078
1601,A,265106548742839,3.0053217,7.97748,-0.985214,-1.5630093,-0.9510148,-0.7837683
1601,A,265106588299714,3.472191,4.9853263,0.9498995,-2.3691483,0.40373522,-1.1661983
1601,A,265106628512267,3.6828809,1.941099,-1.1025299,-2.1821942,-1.1776499,-0.85061365
1601,A,265106668171069,3.6888664,1.7950528,-0.98222125,-1.2873721,-0.81732416,-0.53929013
1601,A,265106708212319,2.8455088,1.9195513,-0.5410896,0.36884782,-0.67191553,-0.09454222
1601,A,265106748476954,0.545878,1.8046296,4.2945995,1.855957,-0.9603359,0.35766253
1601,A,265106787793152,-0.11432313,19.612701,12.167932,2.2104237,-1.5289208,0.6828345
1601,A,265106828064923,5.705383,18.15583,9.812635,-1.9393139,-1.6492957,-1.2729911
1601,A,265106867975027,3.2704794,-2.3247697,4.709395,-1.1968247,-1.2583437,-0.44341633
1601,A,265106908299924,14.918869,17.23526,1.697489,-0.60507023,0.5291701,1.6964337
1601,A,265106947701694,3.3435028,3.5535939,-4.64535,-0.1882855,0.60427123,0.48469532
1601,A,265106987338621,2.9340942,4.8374844,-3.1800983,2.2698123,0.41252366,0.4463458
1601,A,265107027014663,8.1756,9.425373,-3.549404,3.4714305,1.2343752,1.5678029
1601,A,265107067487475,7.144298,11.544242,-2.9933507,2.385926,0.35979307,0.88124
1601,A,265107107304975,1.6184803,10.242993,1.0887632,3.8852859,1.5124092,1.1446266
1601,A,265107147192579,-0.3645172,8.217499,2.743755,0.94941694,0.49401638,0.7038735
1601,A,265107186754557,2.4600422,8.459313,0.17417817,0.619185,-1.5267903,0.73609775
1601,A,265107226989714,3.1884782,9.059659,1.654992,0.6109292,-0.70627034,0.48070058
1601,A,265107267347267,3.1423898,7.7733746,-0.037708677,0.79894835,-0.37950045,0.4048005
1601,A,265107306759819,4.5040917,8.5299425,1.8543092,0.3187804,-0.57124805,0.4644553
1601,A,265107346698673,5.230732,9.452309,-0.5722142,0.94488955,-0.38242993,0.14620754
1601,A,265107386305808,3.383007,8.676587,-2.5623944,0.55100805,1.6375778,-0.055127434
1601,A,265107426449765,3.0747535,13.740922,2.055422,-0.23542345,-0.5616607,-0.04234426
1601,A,265107466463099,2.2888567,11.01632,-0.08738836,0.11558119,-0.27350664,-0.9238506
1601,A,265107505848047,5.7323174,12.421119,3.6565444,-2.2786007,2.4000409,-1.5606124
1601,A,265107546039610,6.14412,10.598533,1.3198037,-2.8274782,0.7779094,-1.5739282
1601,A,265107586097422,11.09114,15.433622,-1.572392,-2.2397184,1.3797837,-0.6873619
1601,A,265107626540704,4.288614,9.879075,2.332551,-0.21624869,1.6460999,-0.8681905
1601,A,265107666073568,1.0013748,9.484032,-2.3169887,-1.9246665,-1.1374362,-1.1827098
1601,A,265107706065703,5.7424927,4.0683475,0.6697779,-2.4319987,-0.5075985,-1.1707256
1601,A,265107745854974,4.9164934,2.542642,-0.96187055,-2.0785973,-1.3283848,-1.2479573
1601,A,265107785621901,3.1028855,3.0699651,-0.45310268,-1.1864383,-0.8996158,-0.8594021
1601,A,265107825571120,3.5895069,3.107674,0.011971008,0.14674018,-0.89988214,-0.34487936
1601,A,265107865263568,1.9093759,2.1158757,3.4237084,1.5491608,-0.7888283,0.32810146
1601,A,265107904925131,0.6931214,10.024523,10.028712,2.641856,-1.8181401,1.0018812
1601,A,265107945372422,5.581483,19.612701,10.845734,-1.2253205,-1.0442255,-1.0524813
1601,A,265107985684922,-1.0594343,-0.97144735,7.902063,-1.8543591,-1.6365125,-1.0069412
1601,A,265108025126589,2.630629,2.0278888,-4.735132,0.38136467,-1.3076121,1.717739
1601,A,265108064945131,19.612701,19.612701,12.645575,2.988067,1.9718045,0.114782244
1601,A,265108104832057,3.4769795,2.9334955,-2.5683799,-1.0396981,-0.64075655,-0.41518682
1601,A,265108144810964,3.755904,4.518457,-2.0620062,1.2258531,0.1917476,0.7709851
1601,A,265108184714349,9.69113,8.981848,-2.2511482,3.0152311,0.69481874,1.4721955
1601,A,265108224603775,5.592855,9.8994255,-3.9983168,2.387524,-0.6580671,0.53076804
1601,A,265108264532475,1.4323312,8.901642,0.50038815,1.1427624,-0.2213087,0.7954862
1601,A,265108303883411,0.7793127,8.861539,-0.7350199,3.3079123,1.2487563,1.2144015
1601,A,265108344820859,2.8616695,8.575432,1.6609775,1.380849,-0.6013418,0.5581986
1601,A,265108383743777,3.911527,8.207922,2.0219033,1.0354371,-0.19867182,0.20213392
1601,A,265108424167995,3.7361517,8.1756,0.5614403,0.35766253,-0.45540056,0.54941016
1601,A,265108464030964,4.717176,9.61272,-0.8050503,0.690824,-0.6668556,0.4327637
1601,A,265108503547995,2.822764,8.983644,-0.9271546,-0.048203215,1.4796523,0.18295917
1601,A,265108543335339,3.3051953,12.644977,0.6787562,-0.7305051,0.25246766,-0.2394182
1601,A,265108583219297,2.0769699,11.653777,-0.87208796,0.42397526,-0.31611723,-0.9534117
1601,A,265108623661068,5.851429,13.561357,3.810372,-0.74275565,3.9121838,-1.9057581
1601,A,265108663551641,5.240309,10.102334,0.8439561,-3.577158,0.20426446,-2.1590247
1601,A,265108703628829,9.103952,16.369158,-4.587889,-2.9308088,0.8183894,-0.5856291
1601,A,265108743343047,8.655039,10.969035,5.3157263,0.2806972,1.7912422,-0.7813715
1601,A,265108783312786,1.5382746,11.241376,-2.9406781,-2.0053604,-0.86020106,-1.4005564
1601,A,265108822786588,3.9498343,4.638766,2.6719291,-2.3997746,0.12543489,-1.2857742
1601,A,265108862824349,4.309563,2.5785553,-2.6713305,-2.412824,-1.3616743,-0.7387609
1601,A,265108902672526,2.7868507,1.1390414,-1.3988123,-1.5014902,-1.0391655,-0.7030745
1601,A,265108942603776,3.0639796,1.4449008,-0.6631939,-0.0010652645,-0.540888,-0.25326663
1601,A,265108982234557,1.894412,2.0991163,2.5061307,1.303351,-0.737163,0.24660872
1601,A,265109022531849,0.015562311,12.889185,11.15698,2.5710158,-1.8580875,0.829841
1601,A,265109062849245,6.5164185,19.612701,10.312426,-1.2306467,-0.48842376,-0.6601977
1601,A,265109102194245,0.7445967,-0.7308301,5.2355204,-1.5478293,-1.4476944,-0.42557314
1601,A,265109142200235,5.639542,11.837532,1.1079168,0.6612629,-0.5222459,1.2359731
1601,A,265109182058776,9.037513,8.553286,-4.584896,-1.5057513,2.910835,-0.24181503
1601,A,265109221879973,1.5574282,1.3569138,-7.177218,1.1278487,-2.0375845,-0.012516857
1601,A,265109261900704,8.403049,7.2382703,-2.392406,2.6349316,2.68926,1.7670075
1601,A,265109301769140,8.933964,10.068815,0.18974048,3.3004556,-0.4181163,1.6450347
1601,A,265109341667525,2.2613235,13.365631,-3.043629,3.1630366,-0.27403927,0.84874946
1601,A,265109381627942,-1.6819267,11.386225,3.0561984,1.2351742,0.7416904,0.9323727
1601,A,265109421914556,1.5957354,5.805341,1.95307,0.7121293,-1.3997575,0.8775116
1601,A,265109461632317,3.2291796,8.482059,1.0821792,0.22104238,-1.5347798,0.39947417
1601,A,265109501448150,3.0561984,8.123527,-0.15083471,0.23222765,-1.201352,0.30972564
1601,A,265109541417160,3.2124202,7.495647,0.18435353,0.68682927,-0.55580175,0.41785
1601,A,265109581065494,4.0078936,8.455722,-0.42556936,1.0104034,-0.40187103,0.5025385
1601,A,265109620963827,4.961983,8.554482,0.26036942,1.4466292,-0.02396845,-0.10626013
1601,A,265109661165599,4.2275615,11.208455,2.3139958,0.5073322,0.36671728,0.18935075
1601,A,265109701124089,1.4173675,13.661914,0.2160767,0.21598236,-0.75793564,-0.015180019
1601,A,265109740474713,3.2794578,11.496358,0.32441434,-0.88470215,1.1462245,-0.8633968
1601,A,265109781381432,5.8382607,10.790668,1.9255368,-2.1784658,0.77125144,-1.4165354
1601,A,265109820650078,6.835446,11.476605,0.21428105,-2.5451832,0.964597,-1.7848506
1601,A,265109860481277,13.930662,15.5515375,-0.2753332,-1.6868463,2.3664849,-0.9997507
1601,A,265109900639662,5.8783636,9.73662,2.6791117,-1.3225259,0.8319715,-0.62078285
1601,A,265109939920755,1.762731,9.062652,-1.5783775,-1.8647454,-0.97711384,-0.7597999
1601,A,265109980506328,3.4859576,7.1622543,0.22804771,-2.5643578,-0.120907515,-1.2711269
1601,A,265110020071484,5.85502,1.9542671,-1.4927847,-2.4988441,-1.3712617,-1.1667309
1601,A,265110060195755,3.8444893,1.9722236,-0.7350199,-1.4096112,-0.9147959,-0.8652611
1601,A,265110099837005,2.717419,1.9387048,-0.48602295,0.18668759,-0.6716492,-0.42557314
1601,A,265110140453463,1.0121487,0.961272,3.4769795,1.5765914,-0.84209156,0.13182648
1601,A,265110179822369,-1.0498575,12.047623,12.823344,2.352104,-1.722,0.92092115
1601,A,265110219501587,8.309077,19.612701,11.494562,-2.7678235,-1.3662016,-1.1163971
1601,A,265110259636641,0.09636662,-5.9507885,4.5819035,-1.5084145,-1.8615496,-0.56272596
1601,A,265110299547317,7.699753,14.385561,-2.5875335,0.29933932,-1.0112023,1.3440974
1601,A,265110339256016,8.98484,10.590752,-2.1416135,-1.1941614,1.6948358,0.34141725
1601,A,265110379484974,1.8782512,2.0362685,-5.6156,1.7395768,-0.5542038,-0.06764429
1601,A,265110419428723,7.8709383,7.1951747,-2.0751743,3.3249567,2.646117,1.532383
1601,A,265110459267421,10.21546,10.46326,-0.5189432,4.4562674,0.8317052,1.6588831
1601,A,265110499636380,1.5023615,12.841899,-3.9797618,3.5739622,0.29561087,0.3669836
1601,A,265110538496536,-1.1234791,10.189722,1.46585,1.8037591,1.7627463,1.0085391
1601,A,265110578601380,0.8146271,7.2406645,1.7950528,1.318531,-0.82611257,1.2306467
1601,A,265110618290911,2.5462334,8.632893,0.26156655,0.4428837,-1.1763183,0.7499462
1601,A,265110658087682,3.4141316,8.230068,1.3634979,0.81039995,-0.613326,0.4543353
1601,A,265110698285859,3.639785,8.743026,0.5943606,0.4908206,-0.6764429,0.50786483
1601,A,265110737997995,4.103063,8.974067,-0.11372458,0.7299725,-0.7819041,0.49002165
1601,A,265110778417630,3.7032316,9.520543,-1.0899603,0.6660566,1.4285196,0.06844324
1601,A,265110818400442,4.1922474,11.2928505,2.819771,-0.019973708,0.45353633,-0.21252026
1601,A,265110858498100,1.5628152,11.532271,-1.4209588,0.40213734,-0.24208134,-1.0404971
1601,A,265110898214350,4.4603977,14.638748,4.2155905,-1.7558222,2.8799424,-1.655421
1601,A,265110937546223,6.1106014,10.350733,2.3828292,-3.2096417,1.3851101,-1.9742013
1601,A,265110977652942,9.697714,14.894329,-2.8538885,-2.936135,0.54461646,-0.675644
1601,A,265111017578984,8.469488,10.586561,4.2742486,0.3336941,2.26129,-0.92305166
1601,A,265111057847057,1.2856863,11.48319,-2.7790697,-2.0636835,-0.6087986,-1.4213291
1601,A,265111097654504,4.260482,4.9907136,-0.23403321,-3.0352046,-0.81679153,-1.0191917
1601,A,265111137066170,4.8584337,1.3467385,-1.5454572,-2.2112226,-0.7845673,-0.92784536
1601,A,265111177476587,3.1232362,1.447295,-0.7230489,-1.2144015,-0.706004,-0.7384946
1601,A,265111218031118,2.7503393,1.5574282,-0.37588966,0.1834918,-0.5067996,-0.304133
1601,A,265111257257733,1.110311,2.7748797,3.7098155,1.4759239,-0.9691243,0.13528858
1601,A,265111297173879,-0.002992752,15.243283,11.933898,1.823999,-1.8724686,0.87697893
1601,A,265111336777212,6.293159,19.612701,9.671976,-1.8927087,-1.1574098,-0.9129316
1601,A,265111376698307,0.6805518,-2.2511482,5.7466826,-1.2170646,-1.3084111,-0.35659727
1601,A,265111417630545,4.923077,8.804078,-1.6280571,0.76059884,-0.9491506,1.2865732
1601,A,265111456818670,11.092935,17.933767,2.5881321,0.054062173,2.1827269,0.17869811
1601,A,265111496173723,2.5803509,2.224812,-4.671686,0.09667275,-0.8556737,-0.2711098
1601,A,265111536400806,5.707178,5.539584,-2.8939912,2.5675538,1.0519487,0.9153285
1601,A,265111576986170,9.169792,9.129091,-1.9141643,3.3105757,0.63915867,1.5337145
1601,A,265111615915129,6.1100025,10.616488,-3.6774938,2.632002,0.02743056,0.7603325
1601,A,265111656347838,1.0821792,10.961852,0.44651863,2.9702237,1.804558,1.3222595
1601,A,265111695916431,-0.9995792,8.658031,3.2902317,0.93796533,-0.30652985,1.0271813
1601,A,265111735835024,2.1176715,8.5886,-0.320823,0.4889564,-1.117995,0.5454154
1601,A,265111776052057,3.9228995,8.154651,1.9841946,0.73822826,-1.1358383,0.28815404
1601,A,265111815925806,3.4243069,7.7171106,-0.79367787,0.5382249,-0.39521313,0.40107206
1601,A,265111855810390,4.677073,8.710705,1.174356,0.33449304,-0.4250405,0.34194988
1601,A,265111895814036,5.056554,9.880272,-0.25498247,0.62051654,0.20932446,0.12117383
1601,A,265111935868879,3.6326025,9.942521,-1.5496471,0.2942793,1.1416972,0.020506341
1601,A,265111975567056,1.6136919,13.972561,0.14903906,0.33422673,-1.1337076,-0.20879184
1601,A,265112015064087,3.4021606,9.953295,-0.9552865,-0.1933455,1.4293185,-0.9419601
1601,A,265112054766483,4.777031,11.362882,2.7156234,-2.1366541,1.4024206,-1.3464943
1601,A,265112095271327,5.940613,10.020931,0.7751228,-2.9792783,0.8314389,-1.7294569
1601,A,265112135251691,10.760141,16.757616,-3.0855274,-2.467419,1.1126688,-0.70147663
1601,A,265112175090858,6.543353,9.841366,3.5541923,-0.16831179,1.1941614,-0.8855011
1601,A,265112215035858,2.712032,8.904634,-1.1623849,-1.7973675,-0.33129725,-0.8990832
1601,A,265112254650182,3.867833,5.109226,0.022146367,-2.3108249,-0.1555286,-1.0562097
1601,A,265112295277056,4.7961845,2.707842,-0.7727286,-1.875398,-0.77444726,-0.93849796
1601,A,265112334674869,3.376423,3.241749,-0.45310268,-1.3685985,-0.9076053,-0.85966843
1601,A,265112374557733,2.8299465,2.136825,-0.53091425,-0.03542004,-0.7257114,-0.34408042
1601,A,265112414408306,1.388637,2.8048072,3.2662897,1.3241237,-0.7976168,0.055926383
1601,A,265112454053723,-0.96905315,15.694591,13.032238,1.598962,-1.778459,0.62264705
1601,A,265112494063098,5.6802435,19.139847,9.339182,-2.139051,-1.0839065,-0.89136004
1601,A,265112533968410,2.3570917,-0.47764325,6.8468184,-1.3459617,-1.7651432,-0.80347574
1601,A,265112574132108,1.9285295,9.86471,3.3243492,0.10892329,-0.7307714,0.74461985
1601,A,265112614019191,10.634445,11.768699,-0.0023942017,-0.72198296,1.9542277,0.10066749
1601,A,265112654160285,3.2369606,1.287482,-3.3722332,0.9912286,-1.2911005,0.14780544
1601,A,265112693853203,7.1826053,6.6959834,-3.1705215,2.8245487,1.773399,1.511344
1601,A,265112733765754,8.313267,10.791864,-1.5179238,3.7377467,-0.31957933,1.5222629
1601,A,265112773681118,2.1242554,13.550583,-2.9346926,2.8956552,2.0964406,0.41172472
1601,A,265112813339712,0.91219085,10.435128,2.7665,0.9890981,-0.2031992,0.9821738
1601,A,265112853175181,2.1410148,6.420052,0.09756372,0.531567,-1.5217303,0.8016115
1601,A,265112893411066,2.938284,7.717709,0.86610246,0.35659727,-1.6106799,0.6279734
1601,A,265112933197472,3.5212722,8.440758,0.40282443,0.44208476,-1.3491575,0.46898267
1601,A,265112973194504,3.6768951,7.6171527,-0.077811554,0.8005462,-0.6372945,0.35606465
1601,A,265113013216170,4.657321,8.590994,0.8595184,0.92997587,-0.17896444,0.4889564
1601,A,265113052862941,4.8626237,9.127894,-0.7182605,1.2423646,0.6346313,0.20293288
1601,A,265113092927837,3.5703533,9.64564,-1.2192472,0.87511474,1.1885688,0.038615838
1601,A,265113132791275,1.9931729,14.089877,0.9576807,0.7033408,-1.2269183,-0.01438107
1601,A,265113172375128,1.3096284,11.1174755,0.6560113,-0.5717807,2.0080235,-0.96140116
1601,A,265113212657264,5.1241903,11.824364,1.9764135,-2.12467,0.71106404,-1.5001587
1601,A,265113252617212,6.285378,10.450092,0.66858083,-2.7483823,1.1044129,-1.7616811
1601,A,265113292378930,12.726977,15.610195,-2.3020248,-2.0972395,1.7749969,-0.98403805
1601,A,265113332207108,7.2394676,10.33936,3.0639796,-0.5611281,1.5592809,-0.9387643
1601,A,265113372153253,2.9047651,9.454104,-0.11552023,-1.7294569,-0.25193503,-0.67724186
1601,A,265113411944452,3.3387144,7.1844006,0.770933,-2.0138824,0.06231797,-1.2974921
1601,A,265113451947004,5.5180364,2.7407625,-0.85473,-1.9843214,-1.0996193,-0.9930928
1601,A,265113491693044,2.7449522,1.0480618,-0.79607207,-1.3515543,-0.90520847,-0.6676545
1601,A,265113531348254,1.9135658,0.6973112,-0.56563014,0.14620754,-0.56751966,-0.18295917
1601,A,265113571277629,1.186327,2.5151088,2.392406,1.1728562,-0.8314389,0.24234766
1601,A,265113611421952,-0.8170213,14.677055,11.874641,1.4202639,-2.0122845,0.43569317
1601,A,265113651330129,3.954024,18.445528,9.456498,-1.551025,-0.9917612,-0.7432883
1601,A,265113691262679,4.2838254,4.565144,6.973711,-1.267132,-1.5025555,-0.19041602
1601,A,265113731588358,10.532093,19.612701,-3.3243492,-0.6460829,0.81466097,0.52650696
1601,A,265113770749608,4.0372224,-2.469619,-2.011728,-0.56459016,0.6599313,0.12863068
1601,A,265113810976743,1.2958617,3.2728736,-6.364985,2.4820662,0.37390783,0.8018778
1601,A,265113850799190,11.611878,12.084733,-2.2469583,4.1755705,2.2397184,2.2642195
1601,A,265113890864763,4.1198225,13.117232,0.24540567,3.850931,-0.16405073,1.1720573
1601,A,265113930637524,-0.055066638,11.352706,2.1458032,0.86659265,0.5289038,0.42717105
1601,A,265113970428201,2.2577322,8.136695,-0.5327099,0.8016115,-1.0966897,0.9779128
1601,A,265114010199920,2.7407625,6.794146,1.347337,0.25326663,-1.4346449,0.91426325
1601,A,265114050125909,3.0011318,8.067263,-0.15861586,0.2625877,-2.005094,0.5885586
1601,A,265114090499921,3.809175,7.8865004,0.14185645,0.86499476,-0.79868203,0.1438107
1601,A,265114130126275,4.3143516,8.626907,0.30406362,1.3281184,0.2862898,0.33422673
1601,A,265114169932888,4.9398365,8.979453,0.47764325,1.9113507,0.32170987,0.21092236
1601,A,265114209960441,3.1800983,8.938153,-2.4899697,1.5965651,1.3467606,0.02956109
1601,A,265114249823358,1.4047978,14.57171,3.716998,-0.59867865,-0.57550913,0.56245965
1601,A,265114289857056,0.0035913025,10.817003,-2.203264,-0.8021441,0.46232477,-0.8277105
1601,A,265114329611014,5.7658362,12.103887,1.8070238,-1.8985676,1.7198695,-1.9789951
1601,A,265114369306326,7.638102,12.817957,1.1749545,-2.9686258,0.7595336,-2.1046963
1601,A,265114409548878,14.860211,16.52538,-2.8072014,-2.0785973,2.0618193,-0.74435353
1601,A,265114449693253,7.1544733,9.8677025,4.1317935,-0.88709897,1.1534151,-0.8657937
1601,A,265114489009347,1.6514006,8.488044,-1.1234791,-1.3747238,-0.4676511,-0.9086706
1601,A,265114529079711,1.7064673,6.1112,0.47465047,-2.4341292,-0.1222391,-1.2857742
1601,A,265114568628514,6.05733,1.7166426,-1.2623428,-2.1755364,-1.222391,-1.1110709
1601,A,265114608574451,3.5817258,1.8782512,-0.6931214,-1.4042848,-0.9528791,-0.8000136
1601,A,265114648612368,2.273893,1.6639702,-0.35434186,0.15446335,-0.5435512,-0.29534456
1601,A,265114688485545,1.5933412,2.0859482,2.7641058,1.3829796,-0.69748193,0.39361522
1601,A,265114728885441,-1.2234371,17.045519,14.663887,1.9707392,-1.8743328,0.79069257
1601,A,265114768835857,6.4248405,18.151041,9.078215,-2.122007,-1.0588728,-0.8807074
1601,A,265114809320181,1.043872,-3.98874,5.204396,-1.2562131,-1.6644757,-0.62051654
1601,A,265114848650024,7.6333137,11.748946,-4.3915644,0.1571265,-0.8386294,1.4010891
1601,A,265114888268565,10.475231,15.443199,-0.2789245,-0.7395598,1.6029567,0.5190501
1601,A,265114928260336,2.3828292,2.4307132,-4.5076833,0.94542223,0.0034621095,-0.123038046
1601,A,265114968128773,6.156091,6.257845,-2.8532898,3.609915,1.4189322,0.8905611
1601,A,265115008266117,9.411008,9.295488,-1.5185224,4.082626,1.7070863,1.7017599
1601,A,265115047964242,3.6589386,13.68406,1.086369,2.5545042,0.4002731,0.88230526
1601,A,265115087512419,-0.2861071,9.620501,0.34117374,1.7393105,1.0791129,1.0045444
1601,A,265115127803356,0.7015011,6.682217,1.1965023,1.0133328,-0.5747102,1.0112023
1601,A,265115168245857,2.5270798,9.054871,0.41180268,0.8186557,-1.0191917,0.6218481
1601,A,265115207562107,3.1669302,8.500613,1.2743138,0.89109373,-0.61838603,0.56751966
1601,A,265115247496847,3.6176388,7.773973,-0.05207389,0.78776306,-0.31265512,0.54941016
1601,A,265115287075283,4.277241,9.008782,0.20111294,0.58722705,-0.30839407,0.5603291
1601,A,265115327294450,3.816956,9.359533,-0.22625206,0.71772194,0.9768475,0.16990969
1601,A,265115367222627,3.3225534,10.411186,1.4532804,0.56911755,0.9102685,-0.019441076
1601,A,265115407114658,0.9475053,14.55914,1.4437037,0.92518216,-0.6631271,-0.37071204
1601,A,265115446960701,3.809175,12.322357,2.9137435,-1.195493,2.3534355,-1.2295815
1601,A,265115486900440,6.335656,10.605715,2.5809495,-2.8442562,0.8383631,-1.6650083
1601,A,265115527341273,6.5140243,14.009072,-2.167351,-2.9619677,0.16804546,-1.5044197
1601,A,265115566727731,14.446014,13.92767,1.4227544,-1.1997541,2.4106934,-0.44101948
1601,A,265115606624606,5.2852,10.035895,1.5131354,-0.7238472,0.42077947,-1.2783173
1601,A,265115646506221,0.12689269,9.385271,-2.9993362,-2.9055088,-0.588026,-1.6506273
1601,A,265115686359554,4.856638,2.6821043,-0.97264445,-2.6828685,-1.4596786,-1.2969595
1601,A,265115726309607,3.968988,1.6765398,-1.2838906,-2.0900488,-1.1369035,-1.1789814
1601,A,265115765987263,3.128623,1.8423382,-0.694917,-0.6828345,-0.82105255,-0.7667241
1601,A,265115805638773,1.9201498,1.9500773,0.53450555,0.43542686,-1.0053433,-0.21358553
1601,A,265115845811013,0.47644615,3.4278982,6.791752,2.062352,-1.3638048,0.60560286
1601,A,265115886181950,0.09756372,19.612701,16.662447,0.4396879,-0.79442096,0.74115777
1601,A,265115925802471,2.556409,13.730747,8.315661,-1.8564897,-1.6831179,-1.1840415
1601,A,265115965842992,-0.23942018,0.9756372,5.547964,-1.0096043,-1.128115,0.08575379
1601,A,265116005637522,14.717158,19.612701,-3.9737763,0.34514567,1.7390442,0.85727155
1601,A,265116045306013,3.9211037,1.0570401,1.821389,-1.6357136,-0.024767399,-0.5680523
1601,A,265116085389451,2.0069396,1.9572599,-5.300164,0.9568738,-0.11531488,0.40506682
1601,A,265116125218773,10.730812,9.09258,-1.4059949,3.2762208,2.499643,1.953695
1601,A,265116165142888,9.901819,10.21127,-1.3545196,3.7268276,-0.7337009,1.3488911
1601,A,265116205159919,-2.1751323,13.141174,2.8341362,2.4213462,-1.0277139,0.89508843
1601,A,265116245690179,-0.6488287,8.258799,3.0125043,0.8852348,-0.11504856,0.97711384
1601,A,265116284732939,2.8502972,7.776367,-0.36631286,0.35446674,-1.5877767,0.48176584
1601,A,265116324809710,3.9258924,7.867945,1.0301052,0.36884782,-1.3387711,0.27377295
1601,A,265116364751533,3.6475663,7.896077,-0.8571242,1.1214571,-0.32384038,0.3669836
1601,A,265116404629554,4.823119,8.823831,1.5490485,0.91373056,0.2444782,0.386691
1601,A,265116444561012,5.397728,9.824008,0.36391866,1.583782,-0.016511599,0.009853696
1601,A,265116484163825,2.7970262,9.895236,-1.769315,0.16724652,1.892975,0.08575379
1601,A,265116524412002,1.3557167,14.369999,-0.26036942,-0.23861924,-0.6010755,0.14753912
1601,A,265116564359450,0.9552865,9.762956,1.353921,-0.50173956,0.99256015,-0.70866716
1601,A,265116604662523,5.3923407,12.054806,3.1597476,-2.749714,1.5092134,-1.9430424
1601,A,265116644075752,6.145317,12.641984,-0.037708677,-3.043727,0.43010053,-2.0988374
1601,A,265116684012314,16.726492,17.423803,-0.9935937,-1.9196066,1.9667445,-0.30972564
1601,A,265116723929346,4.9548006,10.295067,3.0292637,-1.0721886,0.829841,-0.91346425
1601,A,265116763836533,1.1779473,9.539697,-3.1471782,-2.196309,-1.4029533,-0.9576728
1601,A,265116803763148,5.146935,4.4580035,0.35194764,-2.6373284,-0.3850931,-1.2897689
1601,A,265116843629867,4.0013094,1.316811,0.44951138,-2.7854002,-1.2644689,-1.1153319
1601,A,265116883253408,2.8760347,3.108871,-0.24600422,-1.8303907,-1.3603427,-0.5613944
1601,A,265116923508773,3.3315318,2.4666264,2.0231004,-0.5209143,-0.48283112,-0.376571
1601,A,265116963825544,0.47105917,4.4478283,6.5708866,0.5323659,-0.32091093,-0.21678132
1601,A,265117002956898,-1.1300632,9.096769,10.643424,0.74035877,-1.0133328,0.33316147
1601,A,265117043273981,3.4422636,11.405378,8.414422,-0.49641323,-2.176868,0.23622239
1601,A,265117082874033,4.092888,9.352949,9.8276,-1.3124058,-1.2985574,-0.71159667
1601,A,265117122892888,0.31004912,0.95229375,9.159617,0.09960223,-1.3459617,-0.77418095
1601,A,265117162889346,11.086351,17.138294,6.5098343,1.5385082,-1.1771172,0.23062976
1601,A,265117202777887,7.7943234,10.901998,-9.109938,-2.469283,1.453287,0.23622239
1601,A,265117242686116,-1.9764135,-2.9484594,-4.0037036,1.1696603,-1.5041534,-0.47643954
1601,A,265117282584605,4.2036195,4.630985,-5.0397944,3.7571878,2.2096248,0.24660872
1601,A,265117322958564,12.920309,12.377424,-0.8511387,5.1649346,2.655438,2.1481059
1601,A,265117362391585,4.2251673,13.536218,-0.31783026,4.352138,0.13901702,1.0090717
1601,A,265117401992003,-1.234211,10.2495775,4.2102036,0.72437984,0.96592855,0.8993495
1601,A,265117442175805,1.9740193,6.8653736,-0.7170634,0.41891524,-1.8032264,0.85034734
1601,A,265117481792211,2.0853498,8.455123,0.37588966,0.531567,-0.87112004,0.73130405
1601,A,265117522023409,2.8431146,9.705495,0.7248446,0.7797736,-0.6263755,0.47857004
1601,A,265117561745076,3.477578,7.5405383,0.5303157,1.200553,-0.6849651,0.39894155
1601,A,265117601859190,4.446631,8.775348,0.34955344,1.0287791,-0.38376153,0.4396879
1601,A,265117641758409,3.9396589,8.740033,-0.7787141,0.7680557,0.7406251,2.663161E-4
1601,A,265117682071689,3.550601,10.733206,0.11851298,0.18375812,1.200553,-0.1603223
1601,A,265117721171168,2.6623523,14.0150585,-0.13946225,0.5113269,0.18162759,-0.34141725
1601,A,265117761544553,2.557606,12.7257805,1.8237832,0.46871635,0.8133294,-0.8098673
1601,A,265117801485335,5.21517,11.250354,6.527791,-2.7198865,1.8311896,-1.6892431
1601,A,265117841226898,4.0144777,11.19828,-2.5713725,-3.4131074,-0.24261399,-1.6223978
1601,A,265117881158617,10.99178,15.725117,-2.759916,-2.406166,1.1789814,-0.12916331
1601,A,265117920750701,7.273585,9.873089,2.8042088,0.36911413,1.5654061,-1.4833808
1601,A,265117960987628,1.0049661,10.498574,-1.4293385,-2.5859294,-0.8290421,-1.6671388
1601,A,265118000894241,4.755483,4.302979,-0.18555063,-2.3763387,-0.7488809,-1.3760554
1601,A,265118041040596,4.006098,2.546832,-0.9498995,-2.0349214,-1.0173275,-1.1273161
1601,A,265118080693408,3.2992098,1.9752164,-0.9044097,-1.1371698,-0.8945558,-0.7571367
1601,A,265118120266584,2.606687,2.0733786,0.22325931,0.20186761,-0.7352988,-0.25752768
1601,A,265118160414345,0.6967127,3.0334535,4.6124296,1.3741912,-1.0727214,0.4135889
1601,A,265118200350699,-0.8170213,14.070125,11.254543,1.3211943,-1.7616811,0.7771104
1601,A,265118240303564,3.1812954,19.612701,8.854955,-0.9038769,-0.757403,-0.8314389
1601,A,265118280123980,0.65660983,0.8822633,6.5738792,-1.2895026,-1.5531555,-0.47004795
1601,A,265118319728043,4.7321396,7.427412,-0.86370826,0.8745821,-1.5254587,1.3688648
1601,A,265118359957157,15.738285,19.612701,8.028955,1.3592775,2.3156185,-0.26684874
1601,A,265118400095648,2.8694508,1.5382746,-2.6402059,-1.1813782,-0.24767399,-0.4530037
1601,A,265118439799919,4.7363296,4.574721,-3.4165258,2.0932446,0.41758367,0.43382895
1601,A,265118479707679,9.074623,8.444948,-1.929128,3.7960699,1.6823189,1.4610102
1601,A,265118519265074,6.7253127,10.707469,-4.932654,2.9814088,0.8335694,0.9241169
1601,A,265118559113043,-1.2677298,12.89517,7.589619,0.69135666,-0.47484162,1.1086739
1601,A,265118598985803,-0.49559975,8.143877,-1.021127,2.2434468,0.23062976,1.2125373
1601,A,265118638982366,2.3139958,8.152257,1.2785037,0.75154406,-1.0018812,0.3818973
1601,A,265118678941168,4.1706996,8.465299,0.6374562,0.808802,-0.7488809,0.13981596
1601,A,265118718811168,3.851672,8.298902,-1.0947487,0.50626695,0.16165388,0.4498079
1601,A,265118759471325,4.6399627,9.219472,0.219668,0.62104917,-0.092145376,0.43356264
1601,A,265118798695596,3.4051533,9.506178,-1.7465701,0.732103,0.7012103,0.10918961
1601,A,265118838895647,2.60968,11.4837885,1.6340426,-0.09427591,0.9259811,0.12144015
1601,A,265118878691169,1.4239515,13.785214,1.0516531,0.56485647,-1.1158645,-0.36804888
1601,A,265118918645283,4.421492,9.683948,0.39025488,-0.076965354,2.5537052,-1.3009542
1601,A,265118958535439,4.313154,10.805631,2.6461914,-2.5470474,1.1017498,-1.4546186
1601,A,265118998405491,6.0142345,11.312603,0.4189853,-2.812298,-0.007989483,-1.8993665
1601,A,265119038217782,11.25215,17.657837,-3.1435869,-2.4644892,0.8929579,-0.3571299
1601,A,265119078371637,7.7931266,9.19972,3.6445735,-0.56885123,1.9161445,-0.95660746
1601,A,265119118570595,2.3409307,8.389283,-2.9819782,-1.9249328,-0.66525763,-0.70467246
1601,A,265119158077367,4.8584337,5.119402,0.20231004,-2.1766016,0.31158987,-1.206412
1601,A,265119198098876,4.584896,2.855684,-0.623091,-2.020274,-0.8021441,-1.0607371
1601,A,265119237539865,2.9783869,2.5540147,-0.36152446,-1.1254519,-0.6002765,-0.72251564
1601,A,265119277705803,1.9165585,1.9315223,-0.05746084,0.27510455,-0.2977414,-0.12330436
1601,A,265119317687366,0.40102878,2.8766334,3.5715504,1.4881744,-0.6543387,0.32943302
1601,A,265119357513460,-2.2284033,14.609419,14.239514,1.5800534,-1.0468886,0.5928197
1601,A,265119397438825,4.8374844,19.612701,9.776723,-1.6727315,-0.77444726,-0.80107886
1601,A,265119437128356,1.7381904,-0.014963761,8.017583,-1.2969595,-1.7672738,-0.597347
1601,A,265119477776064,4.1599255,8.264186,2.1888988,0.50387007,-1.0183928,1.3989586
1601,A,265119517197522,11.382633,17.659033,1.5640123,0.22663501,2.2977755,0.13156016
1601,A,265119556954917,2.7976246,1.5209166,-3.3518825,0.24527714,-0.8428905,-0.08841695
1601,A,265119596727417,4.9583917,5.267244,-4.2383356,2.8413267,1.5211977,1.045557
1601,A,265119636367157,9.360131,9.078813,-1.7052702,4.056527,1.5590146,1.7539579
1601,A,265119676742991,5.8544216,13.175891,-3.9851487,3.6448023,0.26312032,0.90494215
1601,A,265119716717158,-0.80445176,12.40795,1.6112977,2.0013657,2.654639,1.0431602
1601,A,265119756583407,1.2066777,6.3470287,1.6436194,0.9805759,-1.330249,1.1185277
1601,A,265119796487625,2.6833014,6.9545574,-0.5267244,0.36778256,-1.7374463,0.8540758
1601,A,265119836912575,3.1082723,8.122928,0.53330845,0.80800307,-0.783502,0.3174488
1601,A,265119876277312,3.6954503,8.532336,-0.5153519,1.3171995,0.61598915,0.30945933
1601,A,265119916312262,4.2503066,10.1460285,0.39504328,1.340369,0.12410331,0.31052458
1601,A,265119955942105,3.7044287,9.696517,-1.1258733,0.95208013,0.5954828,0.18695392
1601,A,265119995736844,3.383007,11.757326,2.80361,0.116912775,-0.08495484,-0.07590009
1601,A,265120035923719,-0.53570265,12.967595,0.08379706,0.37124467,1.2772521,-0.7592673
1601,A,265120075753927,3.6541502,12.288838,1.5388732,-1.5805862,1.6551547,-1.4988271
1601,A,265120115640229,6.4936733,11.106702,3.2267854,-3.1443944,1.0287791,-1.9757992
1601,A,265120155646688,7.4561424,15.796943,-3.6661212,-2.5220137,0.531567,-1.4564828
1601,A,265120195734866,14.07611,13.863625,4.59567,-1.0772487,1.9454392,-0.5550028
1601,A,265120235155594,5.113416,9.466075,0.25438392,-1.5960325,0.81066626,-0.78723043
1601,A,265120275379917,-0.6841431,8.589797,-2.7365725,-2.5001757,0.07376956,-1.7113473
1601,A,265120315242262,4.721366,1.3132197,-1.7621324,-2.700179,-1.1648667,-0.98110855
1601,A,265120355162157,2.9747956,-0.219668,-1.0223241,-2.0855215,-1.0639329,-0.7621967
1601,A,265120395109137,2.3229742,0.43394905,-1.3257892,-0.3997405,-0.53955644,-0.47164583
1601,A,265120435104865,0.8002619,1.6944963,1.2779051,0.8833706,-0.7387609,-0.04926848
1601,A,265120474876636,-1.4670471,8.98903,13.141773,2.403503,-2.326804,0.13102753
1601,A,265120516396428,3.4632127,19.612701,14.140155,-1.230913,-0.013582122,-0.44315
1601,A,265120555014137,0.9475053,-0.107140526,7.171831,-1.7848506,-2.632002,-0.64395237
1601,A,265120594105335,2.9999347,3.068768,4.6525326,0.13182648,-0.5837649,0.85487473
1601,A,265120634386376,14.945206,19.612701,5.6215854,0.97924435,2.5971148,0.07376956
1601,A,265120674394293,2.5528176,-0.12449849,-2.5145104,-0.76485986,-0.9243832,-0.42317632
1601,A,265120714256532,2.9454668,3.7134068,-4.144363,2.2202775,1.0852382,0.7155914
1601,A,265120753955854,10.843938,8.983644,-0.8762778,3.6876793,2.3262713,2.2857912
1601,A,265120793822522,9.208698,12.527061,-3.2393548,3.2820797,-1.0317086,1.0964234
1601,A,265120834038251,-2.9616275,12.817957,1.1420342,3.158509,-0.2775014,1.4335797
1601,A,265120873645386,-0.9983821,6.7600284,4.232949,0.74781567,-0.28549087,0.9169264
1601,A,265120914102574,2.9370868,8.091205,-0.39803603,0.7603325,-1.7864485,0.49454904
1601,A,265120953596688,3.6092591,7.689577,0.78888947,0.6556703,-0.7952199,0.24607609
1601,A,265120993691167,3.4823663,8.461707,-0.5446809,1.478587,0.082558,0.3720436
1601,A,265121033535229,5.1810527,9.594764,2.1625626,1.4530207,0.18695392,0.22264028
1601,A,265121073262104,3.2483332,9.132683,-1.8549078,0.8775116,1.5885756,0.11851067
1601,A,265121113319760,1.459266,15.060726,4.358644,-0.7302388,-0.31638354,0.5603291
1601,A,265121153204969,-1.198298,11.107899,-1.8136078,-0.8671253,-0.017310547,-0.37790257
1601,A,265121193114032,5.5760956,11.416751,2.3750482,-2.526541,1.7174727,-2.2506375
1601,A,265121233058094,6.2859764,14.529812,-0.521936,-3.0032468,0.17869811,-2.5750105
1601,A,265121273408198,19.368494,14.4292555,6.3470287,-1.6229304,3.0306773,-0.056459017
1601,A,265121312837781,4.892551,10.301053,0.9032126,-0.7091998,1.0274476,-1.0559434
1601,A,265121352480699,-1.3054385,9.289502,-4.531027,-1.979794,-2.2511702,-1.0013486
1601,A,265121392667783,5.445013,2.9861681,-0.3441665,-2.5209484,-0.82371575,-0.98856544
1601,A,265121432631064,4.394557,0.22744916,-1.3485341,-2.1366541,-1.4674017,-0.90494215
1601,A,265121472490491,3.292626,1.3401544,-1.0031705,-0.78563255,-0.8516789,-0.5275722
1601,A,265121512354969,2.7006595,1.7651252,-0.09935937,0.6348976,-0.588026,-0.109988555
1601,A,265121552211583,0.98341835,3.5404258,6.202778,2.0503678,-1.2175972,0.046072688
1601,A,265121592178615,-1.1067197,19.612701,17.525557,0.27856666,-0.08522116,0.39388153
1601,A,265121632322521,3.2902317,12.240356,8.718486,-2.1957765,-2.2650185,-1.0423613
1601,A,265121671848563,0.7212533,-3.8307228,5.2049947,-0.9147959,-0.8117315,0.061519023
1601,A,265121711899083,13.409924,19.612701,-5.4498014,1.0729877,0.5550028,1.102815
1601,A,265121751808615,5.7442884,4.675277,-0.7739257,-1.7821875,0.6583334,-0.024767399
1601,A,265121791667469,1.1330559,1.7106571,-4.1258082,1.005077,-0.5020059,0.23089607
1601,A,265121831678354,8.201338,8.088212,-3.2142158,3.6136434,1.9816582,1.5643408
1601,A,265121871184761,10.573393,11.018116,-2.111686,3.6096487,0.72304827,1.3813816
1601,A,265121911466220,-0.8062474,12.588114,6.473323,2.0524983,-1.1385014,0.88017476
1601,A,265121951406166,-1.1121067,8.596381,1.2090719,1.3552827,0.69322085,1.3424995
1601,A,265121991741792,1.1947067,8.054693,-0.17776948,0.42264366,-1.7488979,0.6372945
1601,A,265122031117208,3.4039562,8.479065,0.8038532,0.48869008,-1.5616777,0.24820662
1601,A,265122070859292,3.5583823,8.722076,-0.28790274,1.1299793,-0.61625546,0.1470065
1601,A,265122110848406,4.2742486,8.2995,1.7040731,0.81466097,0.0479369,0.3155846
1601,A,265122150884135,4.7165775,9.770737,-0.60094464,1.8042917,-0.00958738,-0.2034655
1601,A,265122190456896,2.6264393,10.700885,-1.0127473,-0.24074976,2.1531658,0.080960095
1601,A,265122230624083,0.9720459,14.645331,-1.002572,-0.454069,-1.5198661,-0.03888215
1601,A,265122270240854,2.3702598,10.997766,-0.10594343,-0.7006777,1.6040219,-1.205613
1601,A,265122310483667,5.7185507,11.930307,4.0186677,-2.804575,1.066596,-1.8503643
1601,A,265122350870021,5.2379146,13.755287,-3.300407,-2.8671594,-0.043675844,-1.5422366
1601,A,265122390285595,16.179417,13.427281,4.214992,-1.6050872,2.29165,-0.5475459
1601,A,265122430264345,5.4527946,10.30225,0.56084174,-1.1502193,1.1699266,-0.757403
1601,A,265122470066011,0.044891283,8.882488,-4.5005007,-2.253567,-1.0069412,-1.0610034
1601,A,265122510002156,4.689044,3.517681,0.11791443,-2.4985778,-0.5334312,-1.0695255
1601,A,265122549945906,4.5860934,1.1731589,-0.789488,-2.0722058,-0.88683265,-0.94781905
1601,A,265122590193354,3.1974564,1.4586674,-0.7422025,-0.5952165,-0.6492787,-0.55606806
1601,A,265122629811115,1.5957354,1.6514006,-0.073621705,0.71532506,-0.6641924,0.035153728
1601,A,265122669494760,-0.16160862,3.6523547,5.6940103,2.1134846,-1.3057479,0.18242654
1601,A,265122710246792,-0.2112883,19.612701,19.612701,-0.6601977,0.28895298,0.009853696
1601,A,265122749675958,4.2999864,9.2069025,8.911818,-1.9491676,-1.9971045,-1.1835088
1601,A,265122789543616,2.6856956,1.0307038,3.9163153,-0.793622,-0.44235107,0.5800365
1601,A,265122829204032,12.923303,18.917187,1.9985598,-0.5685849,1.5947009,0.71985245
1601,A,265122869276791,1.3341689,0.39205053,-4.247314,0.4245079,-1.0133328,-0.30919302
1601,A,265122908976583,5.8041434,7.0946183,-4.0378213,2.7766118,1.7395768,1.4602113
1601,A,265122949209604,10.5291,11.285668,-1.9967642,3.8717036,0.6245113,1.7012273
1601,A,265122989104135,2.5438392,12.737153,-1.7603368,3.4661043,0.20905815,0.5613944
1601,A,265123029030021,-0.5943606,10.4883995,1.2366052,1.3696637,0.7387609,0.50999534
1601,A,265123069024083,2.0847511,6.167464,1.0097545,0.84661895,-1.0018812,0.9624664
1601,A,265123108179760,2.9251158,8.3072815,0.7457938,0.63915867,-1.3797837,0.6601977
1601,A,265123148746219,3.0101101,8.564059,0.21068975,0.36671728,-1.2482237,0.4607269
1601,A,265123188307833,3.5757403,7.924209,0.20530279,1.1851068,-0.7717841,0.27856666
1601,A,265123228400333,4.028843,9.256582,0.4441244,1.1949604,-0.011185277,0.4000068
1601,A,265123268195594,4.919486,10.934917,0.33159694,1.4133396,0.47377637,0.07536746
1601,A,265123308240021,3.300407,10.237606,-1.3317747,0.54142064,1.4514228,-0.059388492
1601,A,265123348177886,0.45130703,14.471752,0.130484,-0.15632756,-0.08042747,-0.2692456
1601,A,265123388132313,1.7429788,10.878654,0.8846575,-0.82398206,1.2863069,-1.117995
1601,A,265123428213668,5.2462945,11.717822,2.7910407,-2.5153556,1.1502193,-1.6061525
1601,A,265123468027886,4.935647,12.283452,-1.3443443,-3.107909,0.41758367,-1.6679379
1601,A,265123507818301,13.775638,15.998654,0.6159084,-1.9829898,2.0788636,-0.38589206
1601,A,265123547687311,5.434838,10.493786,1.520318,-0.16431704,1.1888351,-1.4391723
1601,A,265123587124395,-1.1563994,10.089765,-3.5218706,-2.7020433,-1.3752564,-1.6855147
1601,A,265123627003249,5.769428,2.5582044,-0.7092823,-2.641057,-1.2077435,-1.2018846
1601,A,265123667224082,3.9636009,1.5598224,-1.0109516,-1.8988339,-1.1419635,-1.0013486
1601,A,265123707283301,2.9221232,1.4203602,-0.8415619,-0.6282397,-0.66658926,-0.48709217
1601,A,265123747265749,1.8956091,1.4772224,0.23762453,0.7038735,-0.5075985,0.014114754
1601,A,265123787285541,0.21068975,5.0822916,6.9371996,2.0655477,-1.365669,0.4924185
1601,A,265123826997728,-1.0145429,19.612701,16.711529,-0.31691617,-0.18375812,0.24501082
1601,A,265123867007260,3.433884,10.634445,9.138668,-1.9763318,-2.1150825,-0.9803096
1601,A,265123906617417,2.244564,3.2800562,8.257602,-0.6423545,-0.9893644,0.22690132
1601,A,265123946752938,11.874043,15.972917,-4.772841,-0.5115933,1.6508936,1.1110709
1601,A,265123986393197,4.6680946,3.281852,-0.480636,0.69721556,-0.8335694,-0.32091093
1601,A,265124026565279,5.1247888,4.549582,-4.150947,1.861017,0.9531454,0.8175905
1601,A,265124066353301,6.6732388,7.77517,-3.4662056,3.5918055,0.8809737,1.2128036
1601,A,265124105976479,5.8322754,10.7769,-4.042011,3.4290862,1.0519487,1.0729877
1601,A,265124146731010,-1.6801311,13.933656,4.722563,2.5875273,3.1249533,1.0777813
1601,A,265124185853041,-0.3184288,8.212111,2.9107506,0.9603359,-0.3997405,0.8333031
1601,A,265124226068717,1.9387048,8.3821,0.10594343,0.5115933,-1.0112023,0.5475459
1601,A,265124265962571,2.9694088,9.155427,1.2749124,0.56645435,-0.9438243,0.46685216
1601,A,265124305835333,3.019687,7.955932,0.27353755,0.73103774,-0.5387575,0.43409526
1601,A,265124345514083,3.5637693,8.329428,0.3429694,0.5704491,-0.77924097,0.567786
1601,A,265124385376582,4.3700166,10.532093,-1.0923545,0.3022688,-0.3518036,0.34621096
1601,A,265124425558771,3.354875,9.176376,-1.6651673,0.43542686,0.87831056,0.016245283
1601,A,265124465536687,2.8245595,13.444041,1.3509283,0.8764463,-0.30306774,-0.3920173
1601,A,265124505855697,0.8810662,11.060015,-1.3946224,0.7454188,1.3837786,-0.56725335
1601,A,265124545279499,3.9971197,12.261306,4.5687356,-2.2085595,1.303351,-1.4186659
1601,A,265124585009551,4.408922,10.673351,-0.94690675,-3.8898132,0.36298886,-1.711081
1601,A,265124624968197,9.099762,18.513763,-2.9891608,-2.9150963,0.47244477,-0.51505536
1601,A,265124664746478,9.437345,10.319608,1.9841946,0.34834146,1.700961,-1.0215886
1601,A,265124704792832,1.857302,9.863512,-3.039439,-2.1366541,-1.0799118,-1.4535533
1601,A,265124744847729,4.4861355,3.8163576,0.28550854,-2.4988441,-0.47031426,-1.1523498
1601,A,265124785617780,3.9761705,0.9427169,-1.1953052,-1.8706044,-0.77631146,-1.0333065
1601,A,265124824654916,2.0763714,1.6316484,-0.81402856,-1.0847056,-0.90973586,-0.78723043
1601,A,265124865042780,2.5677812,0.88525605,-0.8146271,0.27563718,-0.5856291,-0.20532973
1601,A,265124904344707,1.5873557,3.3955765,4.3873744,1.6572852,-0.83889574,0.35766253
1601,A,265124944396687,-0.2681506,18.288109,15.216349,1.0924287,-1.2705942,0.69295454
1601,A,265124984215593,1.4413095,15.360001,8.785523,-1.3448963,-1.107875,-1.0162623
1601,A,265125024132311,-0.2160767,-0.9864111,5.78499,-0.9400959,-1.5888419,-0.12410331
1601,A,265125063662572,9.141661,14.8117285,-8.409035,1.6058862,-0.8072041,1.7196032
1601,A,265125103518354,6.423643,7.603386,-4.6950297,-1.9190739,2.4130902,-1.0255834
1601,A,265125143899915,0.6775591,-1.2802993,-6.2943563,-0.13795175,-2.061553,-0.29214877
1601,A,265125183861947,5.4982843,6.0166287,-3.9474401,3.1952608,3.2498555,1.530785
1601,A,265125224182780,12.726379,10.5285015,1.1246762,4.369182,1.9265307,1.9558256
1601,A,265125263602000,5.2079873,11.361684,-5.5389857,3.2045817,-1.3424995,1.047954
1601,A,265125303448926,-4.687248,13.328521,3.9785647,1.9734024,0.48283112,1.6511599
1601,A,265125343416531,-1.946486,8.09719,3.256713,1.479386,-0.064182185,1.3491575
1601,A,265125383306842,2.1332338,7.000047,0.29209262,0.54834485,-1.2836437,0.48629323
1601,A,265125423219603,3.074155,8.875904,-0.2645593,0.7121293,-0.24021713,0.024767399
1601,A,265125463214655,4.0138793,9.355942,0.86370826,0.5853628,0.14407702,0.4812332
1601,A,265125502678248,4.160524,9.300875,0.23104046,1.2293152,-0.54941016,0.11984225
1601,A,265125542929864,2.1601684,10.14124,-1.6921021,-0.40559945,1.0950918,0.3006709
1601,A,265125582959864,1.067814,13.433866,-1.2976574,0.12996227,-0.99548966,-0.3850931
1601,A,265125622441844,2.4744074,9.40203,0.6817489,-0.5965481,2.3497071,-1.0133328
1601,A,265125672441844,4.445434,11.722012,1.6041151,-2.7324033,1.3464943,-1.6229304
1601,A,265125713643249,4.445434,11.722012,1.6041151,-2.7324033,1.3464943,-1.6229304
1601,A,265125716005385,5.6886234,15.829265,-1.922544,-2.5545042,-0.28149614,-1.6335831
1601,A,265125742196687,14.354436,18.2917,-1.2623428,-2.040514,0.95927066,-0.31824777
1601,A,265125782200177,6.0010667,10.890625,3.3913867,-0.8796421,2.125469,-1.3598101
1601,A,265125822275125,0.5422867,9.759365,-5.4025164,-1.7172064,-1.5944346,-1.700961
1601,A,265125862212989,5.7389016,4.678869,-0.6584055,-2.8085697,-1.3025521,-1.3116069
1601,A,265125901824500,4.3341036,0.8924387,-1.9931729,-2.2684808,-1.5438346,-1.288171
1601,A,265125942224343,3.6098576,1.1324574,-1.0708067,-1.0029465,-1.2455604,-0.84076
1601,A,265125981587728,1.7842789,1.0307038,-0.24121583,0.4628574,-1.1025487,-0.314253
1601,A,265126021201791,1.1264719,2.3756466,5.4126916,2.0383835,-1.2325109,0.48070058
1601,A,265126061193718,0.3196259,19.612701,17.277756,0.6348976,-0.7344999,0.79628515
1601,A,265126100915697,2.509722,13.947422,9.329007,-1.7193369,-1.6572852,-1.0354371
1601,A,265126140753978,2.0745757,0.7691373,6.095039,-0.8490158,-0.7603325,0.133957
1601,A,265126181126426,14.442423,19.612701,1.3311762,0.41918156,2.049569,1.0535465
1601,A,265126221032467,2.731784,0.1604115,2.802413,-1.4737934,0.5107943,-0.60533655
1601,A,265126261136217,2.344522,2.8526914,-5.1235914,1.6245283,-0.0958738,0.36618465
1601,A,265126301278873,11.541848,9.701305,-0.90620536,3.9699743,3.5132422,2.0628846
1601,A,265126340712729,8.53892,10.152613,-2.2158337,4.3164515,-0.27856666,1.1851068
1601,A,265126380913197,-2.107496,12.252327,-1.1288661,1.7811222,-0.56219333,0.8815063
1601,A,265126420497885,-2.1134815,10.159795,4.9703627,1.4221281,1.299889,1.467668
1601,A,265126460753250,0.79607207,8.340201,-0.5033809,0.5744439,-2.0969732,0.68389976
1601,A,265126500618665,3.0131028,7.9649105,1.0929531,0.22503711,-1.139833,0.16085494
1601,A,265126540234030,2.4378958,7.817667,-1.039682,0.8245147,-0.67484504,0.2825614
1601,A,265126580189082,4.8919525,9.0794115,1.7717092,0.69002503,-0.11318435,0.44394895
1601,A,265126619752520,4.518457,10.09575,-1.2988545,1.1949604,-0.216515,-0.04873585
1601,A,265126660717624,2.8862102,10.893019,-0.24361002,-0.18109496,1.2058793,0.14966966
1601,A,265126700178301,0.7164649,14.807539,-0.5674258,0.21172132,-0.37816888,-0.2330266
1601,A,265126740023040,3.177704,9.586982,0.45070848,-0.11558119,0.9653959,-0.8524779
1601,A,265126779917468,3.8259344,11.717822,2.5570073,-2.5608957,1.3584785,-1.2237226
1601,A,265126819323821,4.863222,10.920552,-1.0133458,-3.063168,-0.10679276,-1.8442391
1601,A,265126859743353,11.135432,17.653646,-2.5570073,-2.5190842,0.6079997,-0.3438141
1601,A,265126899665331,9.255385,10.824186,2.7688942,-0.70014507,2.616556,-0.9568738
1601,A,265126939090801,2.7766755,8.84478,-2.4893713,-1.5398397,-0.675644,-1.0772487
1601,A,265126979392989,3.3452983,5.3821654,0.9744401,-2.4825988,0.027963191,-1.2974921
1601,A,265127019381790,4.256891,1.0324994,-1.6418238,-2.1920478,-0.98137486,-1.0777813
1601,A,265127059278091,2.681506,0.60812724,-1.0636241,-1.3052152,-0.95421064,-0.6849651
1601,A,265127098847520,1.9937714,1.1450269,-0.8858546,0.15499598,-0.58056915,-0.18508969
1601,A,265127139045905,0.14784196,2.1841104,3.6583402,1.4141386,-1.1155982,0.20106867
1601,A,265127178662519,-0.84455466,15.301343,14.037205,1.8024274,-1.9158782,0.89642006
1601,A,265127218305749,6.295553,19.612701,12.001534,-1.5443672,-1.2093415,-0.7584683
1601,A,265127258784811,4.255095,0.6733692,6.256049,-1.28897,-1.0104034,-0.09134643
1601,A,265127298685071,12.672509,19.612701,-2.7820623,-0.36778256,1.4572818,1.0388992
1601,A,265127338631634,1.9093759,-0.7906851,-0.98461545,-0.49321744,0.3997405,0.06524745
1601,A,265127378970489,3.514688,5.3037553,-4.2850223,2.1872542,0.52863747,0.7374293
1601,A,265127418109707,11.728596,10.670957,-1.553837,4.201669,2.4543693,2.0972395
1601,A,265127458424395,5.85921,13.099276,-1.3156139,3.247725,-0.6101302,0.94941694
1601,A,265127498267988,-2.1440077,11.593922,-0.8098387,2.2815301,1.8748654,0.65220815
1601,A,265127538144915,1.0187328,6.7205243,2.7491422,0.871919,-0.8447547,1.1978899
1601,A,265127577801789,2.4678235,7.4926543,-5.985504E-4,0.3584615,-2.123871,0.7012103
1601,A,265127617679289,3.2501287,7.553706,-0.15622166,0.22796659,-1.134773,0.2825614
1601,A,265127657557102,3.417723,9.208698,-0.8098387,1.3222595,0.31318775,0.28229508
1601,A,265127697683091,3.9797618,8.851364,1.8471266,1.3238574,0.6199839,0.4359595
1601,A,265127738092206,3.726575,9.083601,-0.8355764,1.9110844,0.55553544,0.10466223
1601,A,265127777482831,1.7405846,13.183672,3.9893386,-0.14833808,0.6396913,0.4530037
1601,A,265127817523612,-1.2844892,13.39915,-0.08259996,-0.5411543,-0.37044573,-0.11265171
1601,A,265127857050539,2.8592753,11.108498,0.90500826,-1.7353158,1.7337179,-1.6514262
1601,A,265127897274759,6.4697313,11.867459,3.6780925,-3.0368025,0.8266452,-2.4032366
1601,A,265127936945488,8.292916,19.206884,-4.3795934,-2.6064358,0.26738137,-1.1677961
1601,A,265127977090383,12.551003,10.220847,4.449624,-0.67058396,2.0509005,-0.75633776
1601,A,265128016959393,3.4237084,8.8884735,0.3417723,-1.3121395,0.25007084,-0.9129316
1601,A,265128056855227,-0.05327099,7.771579,0.34835634,-2.6988475,0.08548747,-1.855957
1601,A,265128097020852,5.959168,1.6250644,-2.0296845,-2.7465181,-1.8764633,-1.1520835
1601,A,265128136426530,3.6966474,0.9672575,-1.2671312,-1.7699369,-1.3275858,-0.9824402
1601,A,265128176551009,3.0412347,1.0169371,-1.1558008,0.09853696,-0.7880294,-0.56885123
1601,A,265128216476529,1.3006501,1.8489223,3.4386723,1.5723304,-0.87618,0.12410331
1601,A,265128256377779,0.7823054,12.154165,10.784083,2.5893915,-1.5960325,1.0096043
1601,A,265128296233247,2.7940333,19.612701,11.040861,-1.0860372,-0.7848336,-0.8615326
1601,A,265128335843143,1.7393875,2.4133554,7.9487495,-1.2386363,-1.2551478,-0.3174488
1601,A,265128376087363,9.2494,17.123331,-9.442732,-0.34674358,0.53982276,1.510545
1601,A,265128415992832,6.042965,2.9311013,6.8426285,-0.43249738,0.58962387,-0.24101609
1601,A,265128455836009,3.3650506,4.406528,-6.89171,2.0738037,0.31158987,0.54807854
1601,A,265128495868977,9.876082,8.945934,-1.7052702,3.671434,2.5542378,1.8572886
1601,A,265128535150697,8.080431,9.635465,-2.1817162,3.7814226,0.3107909,1.5502261
1601,A,265128575099863,-0.32142156,12.73835,-0.7236475,2.6549053,-0.07084008,0.7352988
1601,A,265128615599238,-1.2312182,10.554838,1.435324,1.6450347,1.4583471,1.1776499
1601,A,265128655407207,0.95588505,7.524976,0.6452374,0.86419576,-1.4458302,1.1116035
1601,A,265128695331946,2.4157495,7.6608467,0.61770403,0.40053943,-1.1582087,0.603206
1601,A,265128734931530,2.9897594,9.196728,-0.17357962,1.1867046,-0.39734364,0.33422673
1601,A,265128775095852,4.11683,8.764574,1.9285295,0.68656296,-0.32463935,0.35233623
1601,A,265128815290382,2.966416,10.050261,-3.05141,1.3235911,0.7555388,-0.07989483
1601,A,265128854950331,2.7485435,11.712435,5.149928,-0.624245,0.8178568,0.20453078
1601,A,265128894847519,-0.2741361,12.612056,-1.3634979,0.4314321,-0.38695732,-0.83063996
1601,A,265128934243872,2.7694929,9.949105,0.86490536,-1.7078853,2.634399,-1.3755227
1601,A,265128974375487,5.719748,12.814964,4.6782703,-3.2985914,-0.10146644,-1.9363844
1601,A,265129014547257,5.0876784,17.190968,-2.705448,-3.1286817,-0.9598033,-1.7265273
1601,A,265129054150383,16.030378,13.339294,1.4036007,-1.0540792,1.8998991,-0.2609898
1601,A,265129094124081,3.9354692,10.220847,1.0833763,-0.92464954,1.360609,-1.4370418
1601,A,265129134108352,0.1376666,9.478644,-3.105878,-2.7148266,-0.3536678,-1.7070863
1601,A,265129174644342,6.3619924,3.4278982,-1.654992,-2.4772725,-1.4956313,-1.1704593
1601,A,265129214074705,3.5877113,0.41060558,-1.234211,-1.9097528,-1.335309,-0.9717875
1601,A,265129253489653,2.5157075,-0.19153613,-1.5448587,-0.27164245,-1.22319,-0.4034689
1601,A,265129293890851,1.2258313,-0.2861071,0.98581254,0.95660746,-1.1291803,0.2692456
1601,A,265129333770852,-0.5267244,8.65863,13.61762,2.1406488,-2.5992453,0.83543366
1601,A,265129373637780,8.455123,19.612701,15.685014,-2.5446506,-0.19867182,-0.9803096
1601,A,265129413553299,1.7723078,-3.757101,5.312135,-1.3022858,-2.1587584,-0.8202536
