Subject-Id,Activity Label,Time stamp,Accel_x,Accel_y,Accel_z,Gyro_x,Gyro_y,Gyro_z
1614,A,81292303233000,-1.1951149,2.6249416,5.6977515,-0.37071204,-1.1057445,0.72651035
1614,A,81292323041000,-1.0873389,4.8307548,7.1706886,-0.20026971,-1.1707256,0.71798825
1614,A,81292342848000,-0.26584718,8.784932,3.4727786,0.2396845,0.29827404,0.023435818
1614,A,81292362560000,-1.4082716,13.036092,0.10538086,-0.64555025,4.4528055,-1.0641992
1614,A,81292382336000,-2.7375073,15.0359335,-0.5604346,-0.20026971,0.0063915867,-0.30253512
1614,A,81292402112000,0.08861572,15.021564,5.225933,-0.24927188,-5.494634,0.8490158
1614,A,81292421920000,3.439248,14.116245,7.4988065,0.46339005,-2.308428,-0.90654004
1614,A,81292441696000,4.6654983,11.984678,4.0763235,1.9611518,1.707619,-0.8223842
1614,A,81292461440000,2.6297317,11.6948805,-2.7734327,1.3933659,2.2391858,1.1515509
1614,A,81292481248000,-3.7003052,16.147223,-4.5625124,-0.99921805,-1.0279802,0.8905611
1614,A,81292501024000,-7.031778,17.636925,3.046465,-0.87777793,-3.299124,-0.9374327
1614,A,81292520800000,-12.068504,14.305452,5.0989966,1.3667343,-2.6141589,-0.9821738
1614,A,81292540576000,-10.418335,8.4304695,-0.4622388,1.7246631,-0.6562029,0.23435818
1614,A,81292560352000,-3.1302907,5.254673,0.49576905,0.8404937,-0.17150758,0.007456851
1614,A,81292580291000,3.1039455,4.976851,2.8836036,0.7105314,0.11824436,-0.20985709
1614,A,81292600035000,4.2367897,6.0426345,0.6514453,0.20879184,1.1004182,0.26312032
1614,A,81292619926000,1.468147,8.1071415,-1.9854712,0.3206446,2.0634172,1.0460896
1614,A,81292639670000,-0.9627979,10.844649,-0.69695073,0.4314321,3.2096417,1.1877699
1614,A,81292659497000,-2.823728,12.746294,1.1927198,-0.10972224,1.2048141,0.17044231
1614,A,81292679241000,-3.7529957,11.51765,-0.9196875,-2.1283984,-5.221926,-0.2034655
1614,A,81292699020000,-2.2249732,8.111932,-3.171006,-3.3790188,-5.352954,-0.37071204
1614,A,81292718764000,-0.72569096,5.369634,-1.5591577,-2.2221417,0.035153728,-0.50600064
1614,A,81292738595000,0.10538086,4.1721244,1.9854712,0.0479369,4.248275,0.08735169
1614,A,81292758339000,1.4418018,4.711004,4.4906616,1.6170714,4.138552,0.035153728
1614,A,81292778547000,1.0801538,6.576724,5.527705,0.53795856,1.2282499,-0.44421527
1614,A,81292798291000,-0.2562671,8.236472,5.0846267,-0.9491506,-1.7065537,0.18642128
1614,A,81292818174000,-0.7951465,8.904683,3.0153298,-0.16831179,-2.7643614,0.26844665
1614,A,81292837918000,0.6610254,9.110655,0.32572266,-0.041545313,1.4689997,-0.5901565
1614,A,81292857498000,2.8500733,9.970467,-1.0322535,-1.2548815,5.1132693,-1.0748519
1614,A,81292877242000,3.271597,11.486514,0.14130616,-0.5965481,-2.3052323,0.5049353
1614,A,81292897066000,2.4620802,13.591737,1.7004639,0.27377295,-5.559615,0.18002969
1614,A,81292916810000,1.8513502,15.1964,1.1711646,1.3986923,-0.9576728,-1.6809874
1614,A,81292936648000,1.092129,14.738951,-1.1975098,2.0112193,3.6996634,0.2972088
1614,A,81292956392000,-0.1460962,13.562996,-3.8703518,0.023435818,2.7920582,1.7129452
1614,A,81292976096000,-2.0381618,13.342654,-4.5002418,-1.2729911,-2.1007016,-0.1107875
1614,A,81292995840000,-2.9650342,12.3415365,-4.5481424,0.27483824,-3.9787626,-1.4263891
1614,A,81293015659000,-3.178191,11.153606,-3.5709743,1.8258632,-1.3006879,-0.58696073
1614,A,81293035403000,-4.1050634,11.203902,-2.2656887,1.0567423,1.4668691,0.2130529
1614,A,81293055163000,-5.8270826,12.353511,-0.60354495,-0.099069595,-0.14168017,0.18216023
1614,A,81293074907000,-5.49657,13.728252,1.961521,0.406931,-3.4610443,0.350472
1614,A,81293094743000,-4.282295,15.160474,0.47900394,1.9100192,0.4910869,0.19707392
1614,A,81293114487000,-2.4093897,14.762901,-4.023633,2.05383,7.525028,0.4346279
1614,A,81293134323000,1.0394385,12.322376,-4.8499146,-0.8064052,5.046158,-0.1257012
1614,A,81293154067000,3.9278321,8.907078,-2.6488917,-2.091114,-7.041398,-0.5411543
1614,A,81293173839000,5.158872,5.654641,-0.35925296,-1.9366508,-11.1117735,-0.4101268
1614,A,81293193583000,4.0930886,3.8535867,0.859812,-1.6149409,-4.612595,0.809601
1614,A,81293213434000,2.4069948,3.05844,0.9412427,-0.30146983,2.851713,0.93423694
1614,A,81293233178000,1.0514137,2.6297317,1.7603394,0.6764429,4.4006076,-0.11717909
1614,A,81293252961000,0.31853762,2.9794044,4.414021,0.5209143,1.9664782,-0.27057716
1614,A,81293272705000,0.17962648,4.485872,6.339617,0.066046394,-0.9917612,-0.111852765
1614,A,81293292452000,-0.1101709,7.213799,5.7480474,0.28975195,-0.40266997,0.26525086
1614,A,81293312196000,-2.3926246,11.105706,2.318379,0.87564737,1.7907095,0.5933523
1614,A,81293332020000,-5.688172,13.110337,-0.7496411,0.49002165,3.428021,-0.49854377
1614,A,81293351764000,-4.8283596,12.145144,0.16765137,-0.25992453,3.347061,-1.8620822
1614,A,81293371542000,-0.117355965,11.730806,5.0750465,-0.69135666,-0.2972088,-1.2751216
1614,A,81293391286000,3.417693,12.032578,5.886958,-0.07243799,-3.3747578,-0.7052051
1614,A,81293411148000,4.488267,11.366763,2.9171338,0.8341021,-2.573679,-1.1952267
1614,A,81293430892000,2.7063723,12.485237,-2.2800586,-1.1728562,-0.28975195,0.8490158
1614,A,81293450714000,-1.0777588,18.542242,-4.9720607,0.6625945,3.4493263,0.5496765
1614,A,81293470458000,-5.640271,20.15888,-1.101709,2.3425164,3.8860848,-0.14487597
1614,A,81293490280000,-9.328602,13.491145,2.7782228,0.50600064,0.6125271,-0.23222765
1614,A,81293510024000,-12.425362,8.270002,5.3241286,-0.6689861,-2.1166804,-0.44741106
1614,A,81293529850000,-5.5803957,4.2056546,4.064348,-0.35579833,-1.8791265,-0.40373522
1614,A,81293549594000,2.8716285,2.929109,3.7458107,0.65726817,0.37816888,-0.3110572
1614,A,81293569459000,4.9624805,4.524192,0.17723145,2.1454427,0.6945524,-0.5219796
1614,A,81293589203000,2.191443,8.131092,-3.288362,2.1742048,-3.5175033,-0.08735169
1614,A,81293609020000,-0.77359134,12.020603,-1.8369801,2.143312,-5.2506886,0.7392935
1614,A,81293628764000,-2.7686427,14.762901,0.6993457,0.37284255,2.9379995,1.0375676
1614,A,81293648562000,-3.3721876,13.40732,-1.5950831,-1.0088054,8.631838,0.47404268
1614,A,81293668306000,-1.1759547,8.612491,-2.9506643,-1.4029533,5.7502975,-0.24714136
1614,A,81293688125000,-0.364043,4.967271,0.50774413,-0.7307714,-3.746535,-0.26525086
1614,A,81293707869000,-0.51492923,3.3506324,4.598438,-1.4647386,-5.7705374,0.78083885
1614,A,81293727675000,0.60594,3.9709425,4.84752,-2.6098979,-1.7779263,0.7914915
1614,A,81293747419000,0.83586186,5.839058,4.536167,-2.1475732,1.031176,-0.41758367
1614,A,81293767214000,0.08861572,7.5323367,4.5313773,-1.1462245,1.808819,-0.65513766
1614,A,81293786958000,-0.41194338,8.701106,2.193838,-0.7105314,1.768339,-0.23755397
1614,A,81293806768000,0.1580713,9.632769,-1.22625,-0.7094661,2.4266725,-0.09161274
1614,A,81293826512000,0.98914313,10.066268,-3.0225148,-0.8586032,3.0445259,0.33768883
1614,A,81293846402000,0.64186525,10.406361,-0.7209009,0.037284255,0.58056915,0.3536678
1614,A,81293866146000,-0.2562671,11.292518,3.9182522,-0.72011876,2.0442424,-1.2133362
1614,A,81293886098000,-0.1580713,12.2361555,4.9337406,-1.0546118,-0.608266,-0.1587244
1614,A,81293905842000,1.0873389,12.27208,3.2668068,0.022370555,-5.2719936,0.3270362
1614,A,81293925657000,1.7962648,12.535533,-0.27542725,1.7172064,-2.449043,-0.644485
1614,A,81293945401000,0.9029224,13.582156,-6.734795,2.5161545,3.9563923,-1.0045444
1614,A,81293965179000,-0.73048097,14.784456,-8.078402,0.49641323,5.675729,-0.14168017
1614,A,81293984923000,-5.240303,15.88377,-6.615044,-0.45593318,-1.0215886,1.5169365
1614,A,81294004738000,-8.246053,15.919696,-8.119117,-0.09374327,-5.5883775,1.0535465
1614,A,81294024482000,-9.414823,14.274317,-4.687053,0.38029942,-3.891411,-0.9736517
1614,A,81294044299000,-14.104271,12.798985,1.1927198,1.845038,0.38562572,-1.5030881
1614,A,81294064043000,-12.84928,11.524835,3.0728102,2.2306638,2.4362597,0.01917476
1614,A,81294083855000,-3.7194655,10.8997345,2.9794044,1.0375676,-0.02876214,0.5432849
1614,A,81294103599000,-0.4263135,11.270963,-1.101709,0.64555025,-3.1989892,0.096939065
1614,A,81294123414000,-0.83586186,10.990746,-4.2751102,0.8447547,-1.9984361,0.67963874
1614,A,81294143158000,1.0873389,9.881851,-4.5720925,1.1558119,3.3864758,0.59867865
1614,A,81294162933000,5.278623,7.7071733,-3.5829494,0.48043427,7.9894834,0.2247708
1614,A,81294182677000,9.496253,4.3469605,-0.62510014,-0.9672601,3.5505264,-0.26631612
1614,A,81294202500000,6.6198344,2.9746144,1.947151,-1.8706044,-6.896522,-0.18961707
1614,A,81294222244000,2.327959,3.1374757,3.175796,-2.9997847,-9.24543,0.26205507
1614,A,81294242028000,0.64186525,3.1949563,3.9014869,-3.0061762,-4.722317,0.014913702
1614,A,81294261772000,-1.0729688,3.8607717,4.7708793,-1.5819178,2.2061627,-0.42184472
1614,A,81294281570000,-2.1315675,5.0582814,4.3278003,-0.28655612,4.5444183,-0.51452273
1614,A,81294301314000,-0.73527104,6.4210477,4.248765,0.23329292,2.1763353,-0.26205507
1614,A,81294321135000,0.119750984,8.416099,4.4619217,-0.4250405,0.59867865,0.42077947
1614,A,81294340879000,0.2802173,10.224339,4.5816727,-0.41971418,2.030394,0.47404268
1614,A,81294360743000,1.2789404,10.483001,4.89542,-0.44847634,2.304167,-1.3379722
1614,A,81294380487000,1.4992822,9.764495,2.912344,-0.84688526,-0.65726817,-0.9086706
1614,A,81294400290000,1.4346168,8.595725,-1.5136524,0.22583607,-4.926848,0.7392935
1614,A,81294420034000,1.9902613,8.57417,-1.5040723,0.8042747,-2.8613002,0.3387541
1614,A,81294439849000,0.73527104,10.269844,3.2260914,1.4476944,3.319364,-0.6625945
1614,A,81294459593000,-2.6441016,12.310401,5.470225,1.5659387,7.650729,-0.24074976
1614,A,81294479380000,-5.719307,11.881692,3.791316,0.6508766,2.751578,0.8341021
1614,A,81294499124000,-10.528506,10.427916,-0.119750984,-0.3121225,-5.0845075,1.1195929
1614,A,81294518939000,-7.556287,11.723621,-0.3903882,0.07137272,-5.7183394,-0.51026165
1614,A,81294538683000,-3.3578174,14.750926,-3.7386258,1.3507553,-1.2836437,-1.2815131
1614,A,81294558465000,-1.707649,18.072819,-5.4366946,2.066613,3.197924,-0.4250405
1614,A,81294578209000,-0.023950197,18.753004,-4.897815,1.3198626,2.1145499,0.13741912
1614,A,81294598022000,-2.816543,17.368683,-11.373948,0.5613944,-3.0626354,0.32170987
1614,A,81294617766000,-2.1004322,14.358143,-10.777588,-0.15233281,-5.191034,1.0205233
1614,A,81294637578000,3.3769777,11.515254,2.5938063,0.08841695,-0.25992453,1.1206582
1614,A,81294657322000,5.4103494,10.5764065,10.583591,0.515588,8.162056,0.5858955
1614,A,81294677114000,-0.22992188,9.498648,1.7292042,0.029827405,9.061139,-0.37603834
1614,A,81294696858000,-2.2656887,7.7335186,-2.7494826,-1.8524948,-3.588876,-0.4612595
1614,A,81294716672000,-2.3135889,6.943162,0.58677983,-3.468501,-9.360478,0.22050974
1614,A,81294736416000,-3.302732,7.1060233,0.73048097,-2.7675571,-5.423261,-0.20559604
1614,A,81294756240000,-3.3051271,7.2449346,-1.3915064,-0.74248934,2.0804615,-0.46019423
1614,A,81294775984000,-1.8681153,7.4580913,0.14370118,0.57098174,6.759103,-0.21518342
1614,A,81294795792000,-1.0035132,6.6030693,1.5591577,0.40373522,4.8192563,-0.7669904
1614,A,81294815536000,-0.6490503,5.0750465,0.8933423,-1.0215886,-0.69135666,-0.060720075
1614,A,81294835353000,-0.35925296,4.28948,0.59156984,-0.18855181,-0.68176925,1.0578076
1614,A,81294855097000,-0.13891114,4.6966333,2.6464968,0.14594123,1.3124058,-0.29614353
1614,A,81294874897000,-0.53169435,6.255791,5.372029,-1.9813919,3.5313516,-1.3369069
1614,A,81294894641000,-1.5447876,7.903565,5.6690116,-0.14487597,-1.171791,0.05006743
1614,A,81294914464000,-2.6464968,9.6615095,4.3421707,0.8341021,-4.6935554,0.8117315
1614,A,81294934208000,-3.4727786,12.3559065,1.9064356,0.7552725,-1.4998924,-0.29614353
1614,A,81294954014000,-0.9244776,15.95083,2.304009,1.3187973,2.6162896,-0.19281286
1614,A,81294973758000,1.2957057,18.863174,-0.32572266,1.2154667,1.9387813,0.9576728
1614,A,81294993702000,1.3268409,18.000967,-13.2492485,0.21518342,-3.4908717,0.9534117
1614,A,81295013446000,0.70174074,14.988033,-23.753805,0.07137272,-5.6629457,-0.7105314
1614,A,81295033233000,1.3915064,12.995377,-12.921131,1.0290455,-2.9774141,-1.4679344
1614,A,81295052977000,-3.3721876,11.996654,-7.8412943,0.9416938,1.1121361,-0.024501082
1614,A,81295072768000,-7.1371584,10.7943535,-8.940608,0.9715212,3.089267,0.26418558
1614,A,81295092512000,-7.168294,10.32014,-4.351751,1.71188,0.5603291,-0.33662358
1614,A,81295112330000,-6.564749,11.163186,5.879773,0.9832391,-2.654639,0.7041398
1614,A,81295132074000,-9.364527,11.941567,5.1468973,0.3930826,0.53263223,1.1526161
1614,A,81295151890000,-5.9540186,13.129498,-1.5639478,0.09267801,6.195578,0.52411014
1614,A,81295171634000,-2.8093581,15.158079,-5.216353,-0.6689861,5.5180697,-0.013848438
1614,A,81295191439000,-0.8334668,14.935343,-6.456973,-1.9718045,-4.9566755,0.06391586
1614,A,81295211183000,2.804568,11.287727,-4.481082,-3.0913975,-9.08351,0.094808534
1614,A,81295230989000,4.622388,7.3000197,-1.4082716,-3.0722227,-3.5420043,0.13102753
1614,A,81295250733000,4.3206153,4.639153,1.6860938,-0.7819041,5.7502975,0.15659387
1614,A,81295270519000,2.5363257,3.9469924,2.794988,1.3912354,8.1055975,-0.008522116
1614,A,81295290263000,0.5891748,4.023633,1.2454102,0.58483016,1.9643476,-0.41225734
1614,A,81295309994000,-0.3281177,3.300337,0.32093263,-1.176052,-3.351322,0.23116238
1614,A,81295329738000,-0.12693603,3.1446607,1.8058448,-0.30040458,-1.1100056,0.44208476
1614,A,81295349553000,0.16286133,3.911067,2.560276,0.82344943,1.1675298,-0.11930962
1614,A,81295369297000,0.011975098,5.4295096,3.4847536,-1.3432984,3.4706316,-0.92464954
1614,A,81295389091000,-1.4322218,7.9155397,3.4943337,-1.0865698,3.50472,-0.47617322
1614,A,81295408835000,-3.4727786,10.708133,1.1376343,0.5454154,-4.5827675,0.773382
1614,A,81295428649000,-2.6704469,13.165423,4.3254056,0.022370555,-4.79369,0.03195793
1614,A,81295448393000,0.5460645,15.079043,8.796907,1.0567423,1.7779263,-0.8330368
1614,A,81295468264000,1.707649,15.050303,3.8272414,2.4064324,4.5902247,0.27164245
1614,A,81295488008000,-3.0752053,16.975899,-6.5384035,0.7073356,-0.45699844,1.7907095
1614,A,81295507825000,-14.05637,20.982767,-0.12693603,-0.76592517,-4.3079295,0.294013
1614,A,81295527569000,-14.087505,14.844332,8.313113,0.3717773,-2.6876621,-1.4072144
1614,A,81295547379000,-6.71324,6.1863356,2.339934,1.6341157,0.13209279,-0.56245965
1614,A,81295567123000,-1.2382251,2.804568,-1.2046949,1.4285196,1.0322412,0.046871636
1614,A,81295586920000,1.9902613,4.5601172,2.4525,0.91186637,-0.28975195,-0.16618125
1614,A,81295606664000,3.7242556,8.428074,3.4536183,0.18748654,-2.4458473,0.5230448
1614,A,81295626479000,2.1579127,10.818304,-4.390071,0.070307456,-0.6679208,0.88843054
1614,A,81295646223000,-0.059875492,10.530901,-9.041199,1.0279802,4.2951465,0.99282646
1614,A,81295666027000,-1.4202466,11.000325,-6.08814,1.567004,7.1607075,0.7030745
1614,A,81295685771000,-3.8464015,12.387041,-0.855022,-0.8404937,1.4881744,-0.22370553
1614,A,81295705581000,-7.8748245,12.068504,5.137317,-3.3364084,-8.513594,-0.406931
1614,A,81295725325000,-8.744217,8.286768,5.4989653,-3.1425302,-9.056878,-0.38242993
1614,A,81295745146000,-4.605623,4.4379716,3.2500417,-1.8961707,-1.3134711,0.08841695
1614,A,81295764890000,-0.6179151,2.4189699,1.341211,0.32170987,6.861368,-0.34834146
1614,A,81295784691000,2.184258,1.829795,-0.2203418,0.5251754,7.0264845,-1.1920309
1614,A,81295804435000,3.2380664,2.9674294,-0.8143067,-0.813862,-0.37603834,-0.30360037
1614,A,81295824335000,2.8333082,5.0630717,-0.43110353,-0.33449304,-2.606702,1.1462245
1614,A,81295844079000,1.4322218,7.062913,0.25387207,0.63915867,2.336125,0.386691
1614,A,81295863881000,-0.35685793,8.923843,1.9351759,-1.2293152,4.515656,-2.5790052
1614,A,81295883625000,-2.0357666,10.5692215,1.5687379,-1.0705907,0.0031957934,-1.1089402
1614,A,81295903434000,-2.672842,11.05541,-1.1376343,0.39734364,-5.208078,0.99069595
1614,A,81295923178000,-1.8585353,11.848162,-0.8669971,0.30466563,-4.2205777,0.3930826
1614,A,81295942958000,-0.4981641,14.750926,2.7686427,0.9779128,1.5211977,-0.6103965
1614,A,81295962702000,0.28740236,16.825012,3.772156,1.4807175,7.6869483,-0.02876214
1614,A,81295982492000,-0.4382886,16.120876,0.119750984,0.7850999,3.540939,1.1899004
1614,A,81296002236000,0.1101709,14.755716,-4.718189,0.03834952,-4.725513,0.86606
1614,A,81296022060000,0.73527104,13.618082,-9.15616,0.27377295,-5.678925,-1.0173275
1614,A,81296041804000,0.6394702,12.712764,-9.663904,0.8511463,-2.666357,-1.1558119
1614,A,81296061590000,-1.587898,12.75348,-7.288045,1.0077401,0.37710363,-0.07563378
1614,A,81296081334000,-5.886958,13.462405,-8.57896,0.7254451,1.9323897,-0.07243799
1614,A,81296101282000,-8.600515,13.280384,-9.3381815,0.5997439,-1.4753913,0.2066613
1614,A,81296121026000,-9.295072,12.240946,-4.191284,0.82877576,-3.1318774,0.6402239
1614,A,81296140842000,-12.154725,13.016932,5.269043,1.4796523,2.1560953,0.74461985
1614,A,81296160586000,-10.121353,13.045672,1.5208374,0.8032094,7.419567,0.8404937
1614,A,81296180369000,-4.5768824,11.848162,-4.2918754,-0.77125144,4.893825,0.053263225
1614,A,81296200113000,-0.98914313,9.733359,-5.1061816,-1.7299895,-6.7665596,-0.15765914
1614,A,81296219931000,1.9423609,7.1611085,-3.288362,-3.0423954,-10.218017,-0.056459017
1614,A,81296239675000,4.29427,5.865403,-2.7494826,-3.3822145,-4.1353564,0.46339005
1614,A,81296259494000,5.518125,5.015171,-3.4344583,-0.5944176,4.3952813,0.27483824
1614,A,81296279238000,5.841453,2.8644435,-2.6369166,1.4498249,6.456568,-0.5336975
1614,A,81296299006000,3.9014869,1.5471827,0.11496094,0.07669904,3.758253,-0.77125144
1614,A,81296318750000,1.8776954,1.7890797,3.283572,-0.96299905,-1.2080098,0.1107875
1614,A,81296338559000,1.0753639,2.804568,7.3072047,-0.036218993,-0.22370553,0.8149273
1614,A,81296358303000,0.050295413,5.6761966,8.258028,0.6178534,1.438107,-0.040480047
1614,A,81296378059000,-2.1028273,9.788445,6.080955,-1.4349113,1.3070794,-0.68816084
1614,A,81296397803000,-3.666775,13.213324,1.8202149,-0.65194184,1.5574167,-0.588026
1614,A,81296417649000,-3.544629,14.540164,-0.26105714,0.5581986,-2.5204158,0.47510794
1614,A,81296437393000,-0.78556645,14.659915,3.6116896,-0.017044231,-2.727077,-0.4048005
1614,A,81296457223000,0.54366946,14.259947,9.527389,1.4924355,1.1664646,-0.9406285
1614,A,81296476967000,-2.2848487,13.342654,3.300337,1.8780613,3.8786278,0.23435818
1614,A,81296496766000,-11.170372,15.510147,-3.6092947,-0.4612595,0.3110572,1.3060142
1614,A,81296516510000,-15.696959,16.204702,4.0356083,-0.59761333,-3.6261601,0.6593987
1614,A,81296536339000,-8.746612,13.196558,5.137317,0.8671253,-2.356365,-1.0801781
1614,A,81296556083000,-4.8187795,9.072334,-0.42870852,2.0793962,0.38562572,-1.0844392
1614,A,81296576011000,0.09101075,7.5035963,-0.34967285,1.2239889,1.0567423,0.12144015
1614,A,81296595755000,4.25595,8.162227,0.26584718,0.22050974,0.024501082,0.1107875
1614,A,81296615559000,5.479805,8.423284,-4.0787187,0.46658584,-1.8439728,0.1438107
1614,A,81296635303000,2.7758276,8.337064,-7.8748245,0.44741106,-1.3198626,0.75101143
1614,A,81296655117000,-0.5460645,8.808882,-5.7145166,0.9938917,2.4916537,0.68389976
1614,A,81296674861000,-3.3793726,9.412427,-0.5388794,0.8330368,5.6885123,0.43782368
1614,A,81296694653000,-6.0091043,9.639954,4.608018,-1.3571469,4.023504,-0.23222765
1614,A,81296714397000,-8.384964,8.241262,3.9469924,-2.320146,-5.3114085,-0.25672874
1614,A,81296734194000,-8.428074,5.949229,0.8262818,-2.3425164,-9.047291,-0.05539375
1614,A,81296753938000,-5.3313136,4.1218286,0.6179151,-2.2306638,-3.3566482,0.59761333
1614,A,81296773736000,-0.72569096,3.523074,1.8130299,-0.3920173,5.240036,0.4079963
1614,A,81296793480000,2.5698562,4.380491,1.3148658,1.1387677,6.767625,-0.51665324
1614,A,81296813316000,2.3854396,5.7719975,-0.55803955,-0.22690132,0.51984906,-0.7350325
1614,A,81296833060000,1.1855347,7.33355,-1.334026,-1.1590078,-2.1145499,0.4527374
1614,A,81296852871000,1.101709,9.19927,0.16765137,0.21411815,0.96619487,0.38562572
1614,A,81296872615000,0.05508545,10.617122,0.050295413,0.39521313,1.2996227,-0.5550028
1614,A,81296892425000,-1.9184108,10.97398,-2.5387208,-1.8237327,1.1408982,-0.56245965
1614,A,81296912169000,-3.0608351,12.116405,-0.366438,-0.02130529,0.33981937,-0.19281286
1614,A,81296931988000,-3.4751735,14.940132,3.9805226,0.69348717,-1.8492991,0.19281286
1614,A,81296951732000,-3.7458107,16.798668,3.6452198,0.13528858,-0.5091964,-0.6317018
1614,A,81296971527000,-3.1183155,15.720909,0.8765772,1.7246631,1.026915,-0.44208476
1614,A,81296991271000,-1.0322535,13.498331,-4.2343946,1.73212,2.163552,0.76485986
1614,A,81297011078000,0.80233157,12.427757,-9.148975,-0.608266,-0.47617322,1.2623384
1614,A,81297030822000,1.2046949,11.297308,-11.1104965,-0.6348976,-3.3172336,0.013848438
1614,A,81297050611000,0.9412427,10.870995,-8.447234,1.3283848,-2.2285333,-1.2900352
1614,A,81297070355000,-1.3699512,12.545113,-6.430628,1.9750003,0.21518342,-0.535828
1614,A,81297090154000,-5.3049684,13.766573,-7.5946074,0.39095205,0.79042625,0.23222765
1614,A,81297109898000,-7.209009,14.394068,-5.2810183,0.26418558,-0.018109497,-0.15020229
1614,A,81297129702000,-9.620794,15.30657,3.175796,0.8042747,-1.4988271,0.15765914
1614,A,81297149446000,-12.901971,14.439573,1.0370435,0.5581986,-0.7435546,0.44101948
1614,A,81297169231000,-7.223379,11.426639,-3.2524366,1.0045444,2.5768747,0.41225734
1614,A,81297188975000,-1.961521,8.777747,-1.9830762,0.66365975,5.083442,0.7861652
1614,A,81297208929000,1.8489552,6.303692,0.05508545,-1.3070794,3.955327,0.024501082
1614,A,81297228673000,5.479805,4.033213,0.79754156,-2.283927,-3.9862196,-0.5475459
1614,A,81297248496000,5.0031962,3.4727786,-2.1363575,-2.625877,-8.171643,-0.4644553
1614,A,81297268240000,3.5709743,3.1350808,-4.7229786,-2.674879,-4.2429485,0.112918034
1614,A,81297288033000,3.283572,2.703977,-2.6704469,-1.1142666,3.9297607,0.45699844
1614,A,81297307777000,2.1411476,3.2644117,1.331631,0.57417756,6.9220886,0.17576863
1614,A,81297327499000,1.2334352,4.6104126,4.9481106,0.6018744,3.129747,-0.4048005
1614,A,81297347243000,-0.43349856,7.0174074,6.4905033,-0.69668293,-1.6724652,0.049002163
1614,A,81297367059000,-4.6966333,10.169253,5.374424,-0.08522116,-0.62104917,0.6945524
1614,A,81297386803000,-7.9466753,12.118799,1.4849122,0.74675035,0.4889564,-0.040480047
1614,A,81297406590000,-6.5336137,13.175003,2.2632935,-1.2399678,0.3888215,-0.7137272
1614,A,81297426334000,-2.311194,14.8179865,6.0282645,-0.83516735,1.1653993,-0.5187838
1614,A,81297446152000,2.1603076,15.3736315,6.071375,0.85753787,-1.0769824,0.07882957
1614,A,81297465896000,4.6607084,12.104429,3.8607717,0.19707392,-1.9110844,-0.30679616
1614,A,81297485666000,-0.8286768,11.587105,-6.3994923,1.1046792,0.043675844,-0.7840346
1614,A,81297505410000,-9.311836,15.287411,-8.52627,2.0762005,2.2871227,0.13741912
1614,A,81297525222000,-13.004956,17.016615,3.8727467,0.034088463,-0.096939065,1.3134711
1614,A,81297544966000,-12.521163,13.428875,6.2869267,-1.0972224,-4.4453487,0.46232477
1614,A,81297564769000,-9.78605,7.180269,1.3603711,0.64341974,-4.5007424,-1.1909657
1614,A,81297584513000,-3.4823585,6.454578,1.2070899,2.3233418,-0.8490158,-1.0546118
1614,A,81297604299000,2.318379,8.514295,0.728086,1.1377025,2.5545042,0.034088463
1614,A,81297624043000,2.6009912,8.746612,-2.4093897,0.020240024,2.2668827,0.13528858
1614,A,81297643855000,-0.35925296,8.329878,-4.88105,0.5571333,-1.6532904,-0.12676647
1614,A,81297663599000,-1.8058448,8.4376545,-3.5805542,1.2154667,-3.2682314,0.15446335
1614,A,81297683503000,-3.0752053,9.019644,2.42855,1.4093449,1.0450244,0.48149952
1614,A,81297703247000,-4.893025,8.832832,5.2882032,0.9235843,5.283712,0.5251754
1614,A,81297723056000,-4.912185,6.840176,1.9926564,-0.7819041,5.7758636,0.6593987
1614,A,81297742800000,-3.2093263,4.3254056,0.22273682,-1.3145363,0.5550028,-0.3174488
1614,A,81297762569000,-0.49337405,3.5206788,0.9388477,-1.3401027,-4.995025,-0.4878911
1614,A,81297782313000,2.6441016,5.0822315,1.9782863,-2.7302728,-5.2389708,-0.08735169
1614,A,81297802127000,3.290757,7.072493,1.6118482,-2.3297334,-2.3009713,-0.25672874
1614,A,81297821871000,2.5890162,8.538245,0.4382886,-0.572047,1.6660736,-0.43249738
1614,A,81297841743000,1.5926881,9.536968,-0.4023633,0.112918034,3.520699,-0.38136467
1614,A,81297861487000,0.8885523,10.061478,-1.7651294,-0.6178534,1.5201324,-0.32277513
1614,A,81297881286000,1.3028907,9.905801,-2.339934,-0.65513766,-0.10759171,0.30466563
1614,A,81297901030000,1.0250684,10.471025,1.583108,0.17150758,1.0056096,0.26312032
1614,A,81297920850000,0.21076173,12.485237,5.1564775,-0.41438788,1.5425029,-0.85753787
1614,A,81297940594000,-0.5676197,14.595249,6.473738,-1.3305153,0.47510794,-0.6487461
1614,A,81297960432000,-3.0105398,15.450272,3.9805226,0.62317973,-2.0112193,0.30040458
1614,A,81297980176000,-3.7194655,14.712605,-2.7255323,0.8511463,-0.7350325,-0.23329292
1614,A,81297999980000,-0.9364527,13.507911,-7.3622904,1.4125407,1.1249193,-0.97897804
1614,A,81298019724000,0.06945557,12.358301,-9.702225,1.3060142,1.7427727,0.3174488
1614,A,81298039564000,-0.4047583,11.445799,-8.806487,-0.1555286,0.77444726,1.4711303
1614,A,81298059308000,-1.8561403,12.497212,-6.495293,-0.35899413,-1.784318,0.9864349
1614,A,81298079103000,-6.0114994,14.209652,-5.877378,0.6988135,-2.179531,-0.5592638
1614,A,81298098847000,-9.644744,14.324613,-2.550696,1.965413,-0.5496765,-1.2154667
1614,A,81298118665000,-11.000325,14.676681,2.7063723,1.4221281,0.48043427,-0.30466563
1614,A,81298138409000,-9.172925,14.401253,2.2058132,0.26631612,0.29827404,-0.039414786
1614,A,81298158222000,-3.5494192,12.216995,-1.0514137,0.66579026,-0.4825648,-0.13528858
1614,A,81298177966000,1.2573853,9.206455,-3.0847852,0.95234644,-2.0879183,0.6562029
1614,A,81298197774000,4.018843,6.5144534,-3.4655933,1.4775218,0.15126756,0.67537767
1614,A,81298217518000,5.149292,5.149292,-3.4751735,0.68176925,4.383563,0.31318775
1614,A,81298237335000,5.977969,4.1170387,-3.7386258,-1.7129452,6.3670855,-0.020240024
1614,A,81298257079000,4.5577226,2.9602442,-2.299219,-1.8769959,0.14274544,-0.51771855
1614,A,81298276934000,0.58198977,2.943479,0.8813672,-1.4775218,-6.6973176,-0.24394555
1614,A,81298296678000,-1.2094849,3.6404297,5.343289,-2.401106,-5.550028,0.0777643
1614,A,81298316626000,-2.2129982,4.996011,7.9945755,-2.0037625,0.8042747,0.1470065
1614,A,81298336370000,-3.410508,8.044871,5.733677,-0.47297743,5.5052867,-0.111852765
1614,A,81298356206000,-7.6305327,11.256593,2.543511,-0.035153728,2.586462,-0.257794
1614,A,81298375950000,-5.319339,10.497371,0.96040285,-0.26418558,-2.1539648,0.38242993
1614,A,81298395734000,-0.31374758,10.219549,2.3854396,-0.30040458,-0.23329292,0.7701862
1614,A,81298415478000,1.4370118,11.788286,4.152964,0.22796659,2.320146,-0.10333065
1614,A,81298435295000,2.663262,12.84928,3.9014869,-0.9736517,0.3536678,-1.0929613
1614,A,81298455039000,4.4906616,12.707974,3.391348,-0.39414784,0.406931,-0.5187838
1614,A,81298474856000,4.351751,11.290123,2.9722195,0.67218184,-0.6945524,-0.10972224
1614,A,81298494600000,-0.09101075,13.555811,-5.343289,-0.1917476,-2.0090888,-0.26844665
1614,A,81298514379000,-7.2569094,18.79851,-6.809041,1.3518206,-0.8064052,-0.36005938
1614,A,81298534123000,-12.446917,19.284698,2.1339624,2.0793962,2.5960495,0.19281286
1614,A,81298553932000,-12.743899,12.7918,6.224656,0.46658584,3.0945933,0.7052051
1614,A,81298573676000,-8.375383,5.999524,3.4775686,-0.23222765,-1.7214674,0.60507023
1614,A,81298593443000,-1.2981006,5.0654664,1.2837305,0.8223842,-4.314321,-0.5816344
1614,A,81298613187000,2.5914114,6.5072684,-0.74006104,1.6255935,-2.5310683,-0.8681905
1614,A,81298633020000,2.5578809,6.6677346,-2.5387208,0.92784536,0.86179894,-0.05006743
1614,A,81298652764000,0.7209009,7.4892263,-3.671565,0.20240025,2.2498386,-0.0127831735
1614,A,81298672576000,-0.85023195,9.010064,-0.73527104,0.664725,-1.0588728,-0.07350325
1614,A,81298692320000,-2.9889846,10.791959,4.5768824,0.8831042,-4.016047,0.48469532
1614,A,81298712103000,-5.4295096,10.5620365,3.4775686,1.1504856,0.9491506,0.5837649
1614,A,81298731847000,-4.3469605,7.541917,-2.193838,0.9438243,6.38413,0.46978164
1614,A,81298751655000,-1.4250367,4.9720607,-2.924319,-1.1174624,6.775082,0.13315806
1614,A,81298771399000,2.1627028,4.145779,1.0514137,-2.1145499,-2.320146,-0.43782368
1614,A,81298791268000,3.8559816,5.3289185,3.2620168,-2.1497037,-8.851282,-0.39414784
1614,A,81298811012000,2.2369483,7.2185893,2.4093897,-2.5545042,-6.3191485,0.18002969
1614,A,81298830825000,0.92926764,8.710687,2.0573218,-1.5094798,2.4405208,0.7861652
1614,A,81298850569000,0.31853762,9.635164,1.8561403,0.3749731,7.616641,0.010652645
1614,A,81298870386000,0.086220704,9.924961,-0.17244141,0.3920173,4.616856,-0.95128113
1614,A,81298890130000,0.76401126,10.025552,-0.45984375,-0.6380934,-1.9302592,-0.29614353
1614,A,81298909927000,0.24189699,11.148816,1.346001,-0.34834146,-1.1590078,0.7286409
1614,A,81298929671000,-0.8167017,13.321099,2.1603076,0.44847634,0.36218992,0.6775082
1614,A,81298949476000,-1.5208374,15.023958,2.078877,-0.1107875,-0.043675844,-0.37923414
1614,A,81298969220000,-0.4406836,14.60962,1.6573536,-1.8801918,2.0975058,-1.0045444
1614,A,81298989020000,1.0394385,12.516373,-1.219065,0.28655612,-0.2066613,-0.06178534
1614,A,81299008764000,1.6381935,11.450589,-4.8331494,0.73822826,-3.3545177,0.25992453
1614,A,81299028576000,-0.21076173,11.393108,-8.224498,0.59228706,-1.2602079,-0.92784536
1614,A,81299048320000,-1.9567311,10.94524,-7.9227247,2.0730047,2.240251,-1.180313
1614,A,81299068117000,-2.4093897,11.840977,-3.1039455,0.81918836,2.4309335,0.5784386
1614,A,81299087861000,-4.8594947,15.29699,-0.84065187,-1.0460896,-2.3755398,1.4157364
1614,A,81299107665000,-7.448511,17.708775,-3.5829494,0.3653857,-4.037352,-0.3387541
1614,A,81299127409000,-8.193362,17.670454,-6.959927,2.0122845,-1.5030881,-1.3113406
1614,A,81299147223000,-8.231683,16.338823,-3.0847852,1.4466292,1.365669,-0.25672874
1614,A,81299166967000,-4.277505,12.846886,0.023950197,0.16085494,1.9867182,0.18535602
1614,A,81299186789000,0.2562671,9.21364,-0.6179151,0.8000136,-0.28122982,-0.19068234
1614,A,81299206533000,3.0105398,6.016289,-0.098195806,1.3752564,-3.9361522,0.25033715
1614,A,81299226347000,4.622388,4.0044727,-0.45026368,0.809601,-0.47830373,0.72437984
1614,A,81299246091000,4.7876444,3.412903,-5.4989653,0.27803403,5.3039517,0.46339005
1614,A,81299265904000,6.236631,2.4525,-5.3049684,-0.40586576,6.5226145,0.69348717
1614,A,81299285648000,5.7863674,1.6334034,0.7424561,-0.98856544,0.13528858,0.35792887
1614,A,81299305449000,2.0429518,3.396138,2.6488917,-2.1901836,-7.456851,-0.20453078
1614,A,81299325193000,0.16286133,6.2893214,2.2872438,-3.3044503,-7.117032,-0.2514024
1614,A,81299345002000,-2.919529,10.509346,5.254673,-2.251969,-0.35899413,0.30253512
1614,A,81299364746000,-6.2989016,11.58471,7.201824,-0.03834952,5.683186,0.23222765
1614,A,81299384561000,-7.340735,9.845925,4.143384,0.61891866,4.770254,-0.39734364
1614,A,81299404305000,-1.1807446,8.523875,2.7446926,-0.27696875,-0.9193232,-0.18216023
1614,A,81299424252000,1.4441968,10.188414,2.1315675,-0.6199839,-0.9310411,0.5635249
1614,A,81299443996000,2.703977,13.213324,0.7065308,0.12463594,1.9121497,0.4708469
1614,A,81299463814000,6.006709,14.621594,1.2933106,0.2034655,0.84155893,-0.4878911
1614,A,81299483558000,1.8106349,16.405884,-1.7627344,-1.5361114,0.7616641,-0.6295713
1614,A,81299503355000,-10.760823,17.098045,-1.590293,0.48149952,1.055677,-0.51984906
1614,A,81299523099000,-20.88936,15.579602,0.8813672,0.6199839,-1.7992316,0.23329292
1614,A,81299542913000,-11.086546,11.591895,5.3169436,0.068176925,-1.9600866,-0.20772657
1614,A,81299562657000,-5.599556,8.861572,3.182981,1.4988271,0.75420725,-0.25353295
1614,A,81299582475000,-0.6586304,8.049661,0.8047266,1.6479641,3.3491914,0.43036684
1614,A,81299602219000,3.4440382,7.4006104,-1.336421,0.1555286,0.26205507,0.86392945
1614,A,81299622002000,4.258345,6.959927,-4.974456,0.34514567,-3.7230992,-0.10652645
1614,A,81299641746000,3.7482057,7.7287283,-6.071375,1.2879047,-3.134008,-0.81918836
1614,A,81299661561000,0.98914313,9.390872,-4.150569,1.015197,-0.4016047,-0.20772657
1614,A,81299681305000,-3.1255007,10.322535,-1.3028907,0.20772657,0.8852348,0.19813919
1614,A,81299701089000,-5.951624,10.154883,2.179468,0.8000136,0.10439592,-0.10652645
1614,A,81299720833000,-6.8737063,8.562195,3.8847218,1.293231,-2.1177456,0.051132694
1614,A,81299740631000,-7.800579,6.207891,1.9088306,1.3592775,-0.5944176,0.7222493
1614,A,81299760375000,-5.005591,3.896697,1.2837305,0.7307714,4.647749,0.69668293
1614,A,81299780186000,-0.4263135,3.6332448,2.4620802,-1.4572818,6.9892,-0.0010652645
1614,A,81299799930000,1.6621436,5.5564456,2.0022364,-1.9558256,0.27803403,-0.49321744
1614,A,81299819723000,0.6562354,7.671248,-0.5963599,-1.7449032,-6.654707,-0.57311225
1614,A,81299839467000,0.49337405,9.754915,-0.57001466,-1.9771309,-5.3795853,-0.25992453
1614,A,81299859275000,1.096919,11.263778,0.5460645,-1.1653993,0.7456851,0.10546118
1614,A,81299879019000,1.3004956,11.278148,-2.1100123,-0.30786142,4.979046,-0.24607609
1614,A,81299898884000,1.099314,10.578802,-3.3650026,-0.1587244,2.569418,-0.3920173
1614,A,81299918628000,0.36883304,11.326048,1.101709,-0.32490566,-1.0492855,0.2790993
1614,A,81299938444000,-1.0681788,12.84449,4.521797,-0.4495416,0.041545313,0.5592638
1614,A,81299958188000,-2.0501368,13.445641,4.6846585,0.23542345,0.6146576,0.24714136
1614,A,81299977986000,-0.9268726,12.935501,3.9948928,-0.7616641,0.8841695,-0.7073356
1614,A,81299997730000,0.6514453,12.643309,-0.1460962,-1.3752564,2.2082932,-0.700944
1614,A,81300017524000,0.80233157,12.84449,-6.119275,0.6103965,-1.3262542,0.12250541
1614,A,81300037268000,-0.5939649,12.631333,-9.596844,0.53795856,-2.534264,-0.22370553
1614,A,81300057053000,-1.8705103,11.797867,-8.818462,0.99921805,-0.53263223,-0.7616641
1614,A,81300076797000,-4.267925,12.358301,-8.178992,1.7406421,2.5065672,0.015978966
1614,A,81300096620000,-6.7324004,13.905484,-7.8844047,0.50173956,2.308428,1.1781825
1614,A,81300116364000,-10.43031,14.760506,-2.684817,-0.3089267,-2.6375947,1.0056096
1614,A,81300136180000,-13.292359,15.059883,5.2594633,0.6625945,-4.342018,-0.5411543
1614,A,81300155924000,-9.596844,14.238392,1.4944923,1.6053536,-2.122007,-1.1068097
1614,A,81300175739000,-3.187771,12.569063,-1.7172291,0.96939063,0.2876214,-0.1768339
1614,A,81300195483000,0.9484278,9.85311,-4.3086405,0.49428272,1.6671388,-0.15339808
1614,A,81300215283000,2.7854078,7.199429,-6.1216702,0.9896307,0.20985709,-0.20026971
1614,A,81300235027000,2.8812087,6.2031007,-6.478528,0.5997439,-2.9539783,0.68176925
1614,A,81300254858000,5.8198977,4.3062453,-2.9578493,0.70840085,-0.48043427,0.8671253
1614,A,81300274602000,9.524993,1.5160475,3.0129347,0.5368933,4.6104646,0.8628642
1614,A,81300294317000,5.376819,1.2933106,3.391348,-1.1163971,6.2019696,0.12357068
1614,A,81300314061000,1.2813355,3.0416749,1.6429834,-1.8120148,-0.82344943,-0.4612595
1614,A,81300333884000,0.1341211,6.10251,1.3603711,-1.9686087,-6.799583,-0.34194988
1614,A,81300353628000,-1.575923,9.508228,3.0129347,-2.240251,-4.401673,0.0127831735
1614,A,81300373444000,-4.030818,10.475816,3.908672,-0.9129316,2.2775354,0.13528858
1614,A,81300393188000,-7.8844047,10.262659,3.06802,0.2876214,5.2677326,-0.2727077
1614,A,81300412985000,-5.5947657,9.972861,3.7649708,-0.096939065,2.4234767,-0.5049353
1614,A,81300432729000,-0.57959473,10.483001,4.358936,-0.83729786,-0.0063915867,0.113983296
1614,A,81300452552000,1.0274634,12.09485,3.6284547,-0.60720074,0.96406436,0.43888897
1614,A,81300472296000,1.9591261,13.977335,3.3290772,0.5209143,0.101200126,-0.22264028
1614,A,81300492097000,1.3244458,13.828843,2.5291407,-1.087635,0.9054748,-0.89162636
1614,A,81300511841000,-2.5363257,15.019168,-3.1350808,-0.9896307,2.1699438,-0.3930826
1614,A,81300531657000,-5.5157304,17.308807,-2.2585034,1.0791129,-1.9984361,0.3355583
1614,A,81300551401000,-7.216194,16.013102,5.824688,-0.18002969,-4.0266995,-0.28122982
1614,A,81300571199000,-10.614727,12.226575,5.1876125,0.29294774,-2.1283984,-0.74035877
1614,A,81300590943000,-7.038963,7.311995,0.9388477,2.0197413,2.420281,0.2034655
1614,A,81300610737000,-0.28500733,5.7863674,-0.1460962,1.2580773,3.7891457,1.2399678
1614,A,81300630481000,2.692002,6.1599903,0.19878663,0.11504856,-0.73822826,0.5571333
1614,A,81300650296000,1.8202149,6.8928666,-0.07424561,0.6061355,-4.185424,-0.9896307
1614,A,81300670040000,-0.26584718,8.705896,-0.8885523,0.8404937,-3.444,-0.9086706
1614,A,81300689829000,-1.7579445,10.746453,-0.098195806,0.74248934,0.07563378,-0.21411815
1614,A,81300709573000,-3.293152,11.855348,0.06945557,1.1632688,3.1212249,-0.4048005
1614,A,81300729361000,-4.4283915,11.302097,-1.5974782,1.4221281,0.5411543,0.0479369
1614,A,81300749105000,-4.648733,9.16574,-1.2454102,1.325189,-2.058091,0.94275904
1614,A,81300768906000,-3.4536183,6.11688,1.0657837,0.9289106,1.091896,0.69029135
1614,A,81300788650000,-0.6777906,3.6739602,2.5027955,-0.9917612,5.191034,0.32810146
1614,A,81300808566000,2.299219,3.0847852,2.7399025,-1.9899141,3.396063,-0.39521313
1614,A,81300828310000,2.7063723,4.639153,1.7172291,-1.3219932,-3.6666403,-0.4079963
1614,A,81300848113000,1.585503,6.832991,1.4394068,-1.901497,-6.375608,0.1438107
1614,A,81300867857000,0.42870852,8.988508,1.9758912,-1.9718045,-2.159291,0.07243799
1614,A,81300887663000,-0.84065187,10.751244,0.53169435,-0.6498113,4.0757017,-0.2247708
1614,A,81300907407000,-1.5471827,11.318863,-2.8572583,0.22050974,4.41126,-0.37390783
1614,A,81300927210000,-1.2430152,11.196717,-3.1278956,-0.099069595,-0.5134575,0.14061491
1614,A,81300946954000,-0.98195803,12.140354,0.56522465,-0.8021441,-0.829841,0.5091964
1614,A,81300966770000,-1.0633887,13.807288,3.767366,-0.14274544,1.3869743,-0.05539375
1614,A,81300986514000,-1.1759547,14.394068,4.5481424,-0.1107875,1.2719258,-1.1334413
1614,A,81301006411000,-0.80712163,13.163028,1.8633252,-1.7353158,1.139833,-0.86392945
1614,A,81301026155000,-0.05269043,11.888878,-2.9746144,0.2247708,-2.7771444,0.39521313
1614,A,81301045984000,0.22752686,11.670931,-6.6365995,0.8926916,-2.860235,-0.040480047
1614,A,81301065728000,-0.46702883,11.606265,-7.671248,1.2058793,0.4250405,-1.051416
1614,A,81301085515000,-1.4418018,11.373948,-6.2965064,1.8013622,3.2447956,-0.294013
1614,A,81301105259000,-3.5661843,13.019327,-5.247488,0.30146983,2.3414512,1.1462245
1614,A,81301125077000,-6.473738,15.186819,-6.8952613,-1.091896,-2.5449169,1.1536814
1614,A,81301144821000,-8.018526,15.368841,-6.1935205,-0.09054748,-3.6911414,-0.5496765
1614,A,81301164632000,-10.600357,15.160474,0.28740236,1.9185413,-1.2463595,-1.4966966
1614,A,81301184376000,-8.816068,13.062437,4.6199927,2.1667478,0.6508766,-0.29294774
1614,A,81301204193000,-3.04886,10.126143,0.6179151,0.6775082,1.3369069,-0.010652645
1614,A,81301223937000,0.2802173,8.085587,-2.6441016,0.35899413,-0.91612744,-0.32170987
1614,A,81301243775000,1.5807129,6.72761,-3.0704153,0.5592638,-3.9691753,0.680704
1614,A,81301263519000,2.7207422,5.721702,-3.5997145,0.588026,-0.06711166,0.9651296
1614,A,81301283344000,5.012776,4.734954,-4.5840673,0.5858955,4.8639975,0.7307714
1614,A,81301303088000,7.086863,2.924319,-1.8513502,0.4463458,7.6230326,0.2759035
1614,A,81301322914000,2.7470875,3.0871804,2.2489235,-0.88949585,-0.33768883,-0.3387541
1614,A,81301342658000,-0.19639161,4.361331,4.526587,-3.2075112,-8.679775,0.034088463
1614,A,81301362468000,-1.0801538,6.3899126,4.3709106,-3.432282,-7.4504595,0.014913702
1614,A,81301382212000,-3.4703834,9.807606,3.2165112,-1.5701998,-0.5581986,-0.17150758
1614,A,81301402026000,-7.7718387,11.038646,1.9663111,0.22690132,5.6043563,-0.060720075
1614,A,81301421770000,-4.775669,9.352551,2.7183473,0.5230448,6.0357885,-0.5837649
1614,A,81301441589000,0.38320315,8.890313,3.4536183,-0.32810146,-0.020240024,-0.2247708
1614,A,81301461333000,1.8058448,10.585987,4.378096,-0.45593318,-1.7576864,1.1249193
1614,A,81301481144000,1.4058765,14.707815,4.9720607,0.6530071,0.67005134,0.773382
1614,A,81301500888000,2.6153615,16.029867,4.150569,-0.721184,1.3305153,-1.0801781
1614,A,81301520697000,-1.0562036,15.720909,-0.45026368,-1.5861788,1.5723304,-1.3859091
1614,A,81301540441000,-4.9864306,16.892073,-3.1111305,0.74035877,-1.6618125,0.10226539
1614,A,81301560241000,-5.0606766,15.153289,3.6140847,0.6764429,-2.4937842,-0.28442562
1614,A,81301579985000,-5.5444703,11.776312,5.977969,1.2602079,-0.7701862,-0.87564737
1614,A,81301599791000,-7.1706886,8.128696,2.1603076,1.7310548,1.3699301,0.17896444
1614,A,81301619535000,-3.3769777,5.824688,-0.67539555,0.8277105,1.7246631,0.78936094
1614,A,81301639530000,0.8382569,6.3994923,-0.9029224,-0.43036684,-1.9813919,0.7616641
1614,A,81301659274000,1.1879297,7.6041875,-1.0250684,0.25992453,-3.9617186,-0.6380934
1614,A,81301679094000,-0.2083667,8.626861,-0.11496094,1.7054884,-2.6812706,-1.196292
1614,A,81301698838000,-1.6238233,10.037527,0.98435307,1.3880396,0.567786,-0.099069595
1614,A,81301718626000,-2.8428884,11.251802,1.092129,0.27696875,2.5790052,0.25992453
1614,A,81301738370000,-4.040398,11.045831,-0.73527104,0.74248934,0.58909124,-0.11717909
1614,A,81301758179000,-4.282295,9.1130495,-2.7399025,1.3550164,-3.274623,0.08841695
1614,A,81301777923000,-3.4703834,6.6270194,-1.9255958,1.0684602,-0.3717773,0.5997439
1614,A,81301797737000,-1.8609302,4.720584,0.8430469,0.13635385,5.417935,0.5496765
1614,A,81301817481000,0.91250247,3.906277,2.9602442,-1.1696603,7.4866786,0.2130529
1614,A,81301837267000,2.4453151,4.7636943,3.1255007,-1.5318503,0.59761333,-0.28549087
1614,A,81301857011000,1.6286134,6.7779055,2.4141798,-2.231729,-7.0914655,-0.18429075
1614,A,81301876733000,0.55803955,8.717872,1.8872755,-2.8613002,-6.1891866,-0.16405073
1614,A,81301896477000,-0.21315674,10.164463,0.7783814,-1.5094798,0.43249738,-0.12357068
1614,A,81301916266000,-0.4622388,10.914104,-2.567461,0.046871636,6.64725,0.05219796
1614,A,81301936010000,0.32093263,10.835069,-3.9853127,0.03834952,5.232579,-0.49428272
1614,A,81301955813000,0.4766089,11.158397,-0.6466553,-0.5209143,-1.4253238,0.054328486
1614,A,81301975557000,-0.6466553,12.310401,2.8141482,-0.572047,-1.2772521,0.8064052
1614,A,81301995373000,-0.9196875,13.46959,4.3541455,0.37603834,0.69135666,0.30786142
1614,A,81302015117000,-0.5460645,13.668377,4.2104445,-0.48363006,0.8543421,-1.0247844
1614,A,81302034915000,0.46463382,12.487633,1.2693604,-1.973935,1.9632823,-0.87777793
1614,A,81302054659000,1.1807446,11.673326,-2.9889846,0.58056915,-1.3017532,0.084155895
1614,A,81302074473000,1.0250684,12.063714,-5.736072,0.49641323,-2.7984498,-0.046871636
1614,A,81302094217000,-0.488584,12.291241,-6.543194,1.2708606,-0.9470201,-0.8117315
1614,A,81302113952000,-2.6177564,11.9128275,-6.2510014,2.288188,2.2221417,-0.29614353
1614,A,81302133696000,-5.0678616,12.695999,-6.6365995,0.3110572,2.6280074,0.9012137
1614,A,81302153511000,-6.246211,14.238392,-8.020921,-0.72437984,-1.9718045,1.0024139
1614,A,81302173255000,-6.5072684,15.112574,-6.701265,0.6295713,-3.3832798,-0.4165184
1614,A,81302193072000,-7.793394,15.371236,-0.7209009,2.0357203,-1.0833739,-1.0663297
1614,A,81302212816000,-8.832832,13.764178,4.232,1.5190672,1.1323761,-0.1438107
1614,A,81302232619000,-4.145779,10.868599,0.9987232,0.14274544,1.1728562,0.049002163
1614,A,81302252363000,0.05269043,8.713081,-2.2489235,0.67218184,-1.406149,-0.37603834
1614,A,81302272179000,1.2046949,7.204219,-2.5123756,1.4402375,-3.6762276,0.35153726
1614,A,81302291923000,2.2632935,5.951624,-2.2369483,1.0333065,0.63915867,0.77231675
1614,A,81302311720000,3.8368216,4.7469287,-3.396138,0.4676511,5.2986255,0.58483016
1614,A,81302331464000,5.6354814,3.2620168,-2.454895,-0.5486112,6.6728168,0.6466155
1614,A,81302351280000,3.2548318,2.787803,0.6562354,-1.1568772,0.67963874,-0.10013486
1614,A,81302371024000,-0.05748047,3.6404297,3.1925611,-2.2125542,-6.642989,-0.15233281
1614,A,81302390933000,-1.0562036,4.641548,5.927674,-3.2969935,-6.927415,0.02130529
1614,A,81302410677000,-1.3292359,6.622229,6.351592,-2.0836573,-2.2125542,-0.18322548
1614,A,81302430513000,-3.9302273,10.4638405,4.9337406,0.083090626,4.0788975,-0.07350325
1614,A,81302450257000,-7.7694435,11.884088,2.411785,0.38562572,5.177185,-0.47830373
1614,A,81302470086000,-4.6654983,10.619517,1.9711012,-0.45593318,0.40266997,-0.14487597
1614,A,81302489830000,-0.852627,10.485396,3.8104763,-0.58056915,-0.8873653,0.86499476
1614,A,81302509632000,0.5484595,12.624148,5.101392,0.4495416,0.24181503,0.7456851
1614,A,81302529376000,1.3244458,15.002403,4.4355764,-0.16618125,-0.30679616,-0.7275756
1614,A,81302549168000,1.6262183,13.862373,3.7529957,-2.1124194,2.5481126,-1.0748519
1614,A,81302568912000,-1.2382251,14.786851,-1.5543678,0.75633776,1.3539511,-0.09374327
1614,A,81302588716000,-4.0859036,16.231049,-0.31374758,1.1526161,-3.6080508,0.43995422
1614,A,81302608460000,-4.378096,14.250367,3.3386574,0.53476274,-3.2618399,-0.61572284
1614,A,81302628260000,-6.454578,11.57034,3.1566358,1.6660736,0.45486793,-0.74461985
1614,A,81302648004000,-7.2185893,8.023315,1.3819263,1.7033578,2.992328,0.21518342
1614,A,81302667885000,-2.6273365,6.2845316,0.89573735,-0.080960095,-0.21092236,1.1899004
1614,A,81302687629000,0.61552006,6.9886675,-0.22992188,0.0958738,-4.1055293,-0.0127831735
1614,A,81302707439000,0.021555176,7.534732,-1.2597803,1.1547467,-3.9244342,-1.3134711
1614,A,81302727183000,-1.1831397,8.214917,-0.81909674,1.0769824,-1.2410331,-0.36218992
1614,A,81302747128000,-2.5938063,9.841136,-0.18441652,0.43356264,1.6767262,0.30360037
1614,A,81302766872000,-4.3565407,11.354788,0.61073,1.2708606,2.3020365,-0.34834146
1614,A,81302786684000,-5.585186,11.285333,-0.047900394,1.7907095,-1.8535602,-0.0628506
1614,A,81302806428000,-4.751719,8.610096,-1.3962965,1.2676647,-2.0570257,0.80107886
1614,A,81302826143000,-2.567461,5.48699,-0.6394702,-0.47297743,3.7635794,0.77231675
1614,A,81302845887000,-0.17962648,3.9134622,1.5735279,-1.7374463,8.044877,0.1555286
1614,A,81302865694000,2.5171657,4.143384,3.755391,-1.3709954,1.8013622,-0.36432046
1614,A,81302885438000,3.1278956,5.5803957,3.9326222,-2.0485036,-7.085074,-0.21411815
1614,A,81302905259000,1.9902613,7.1874537,2.5578809,-2.634399,-6.0847907,-0.13954964
1614,A,81302925003000,1.4274317,8.669971,0.39996827,-1.4093449,1.0258497,-0.08841695
1614,A,81302944789000,1.6190332,10.312955,-1.4609619,-0.3717773,6.427806,-0.05219796
1614,A,81302964533000,0.98435307,11.235037,-4.064348,-0.5752428,3.7145772,-0.36112466
1614,A,81302984355000,-0.7041358,11.000325,-4.27032,-0.3749731,-1.4626081,0.30466563
1614,A,81303004099000,-1.8489552,10.962005,0.88376224,-0.36645097,-1.0801781,0.7978831
1614,A,81303023862000,-2.6608667,11.6876955,5.029541,0.45699844,-0.40586576,0.5837649
1614,A,81303043606000,-1.9064356,12.28645,4.8331494,-0.8362326,1.9803267,-1.2197278
1614,A,81303063392000,-0.6227051,13.036092,4.9481106,-1.9952403,3.0306773,-1.1824435
1614,A,81303083136000,0.55324954,13.673167,2.8620484,0.5965481,-3.0381343,0.47617322
1614,A,81303102968000,0.9053174,14.039605,-2.9530592,1.1227888,-3.9542618,0.013848438
1614,A,81303122712000,2.1028273,13.840818,-7.599397,1.506284,0.3334278,-0.9353022
1614,A,81303142463000,1.8489552,12.992982,-8.073611,1.6437031,4.5923553,-0.49960902
1614,A,81303162207000,-1.21188,12.82054,-6.1575956,-0.14274544,2.3744745,0.96406436
1614,A,81303182049000,-5.0726514,12.667259,-7.2664895,-0.5187838,-3.7316215,0.91612744
1614,A,81303201793000,-6.3132715,12.18586,-8.260423,0.76272935,-4.4698496,-0.6348976
1614,A,81303221528000,-6.1599903,11.953543,-4.4331813,2.1038973,-1.0641992,-1.1025487
1614,A,81303241272000,-6.696475,12.588223,3.0153298,1.4998924,1.7459685,-0.1438107
1614,A,81303261069000,-8.844808,12.854071,4.5553274,0.23861924,0.813862,-0.07456851
1614,A,81303280813000,-5.470225,11.867322,-1.4130616,0.7637946,-2.1156151,-0.22264028
1614,A,81303300611000,-2.5219557,10.859019,-4.509822,1.2367721,-2.5598304,0.71479243
1614,A,81303320355000,-0.23950197,8.660391,-4.416416,1.3230585,2.368083,0.94595486
1614,A,81303340203000,2.0980372,5.951624,-1.5639478,0.7233146,6.081595,0.3536678
1614,A,81303359947000,3.539839,4.2751102,1.094524,-1.1696603,4.462393,0.05965481
1614,A,81303379785000,3.4919386,3.288362,1.0466236,-1.7385116,-2.9987195,-0.083090626
1614,A,81303399529000,2.912344,2.6776319,-0.10777588,-2.4650218,-7.1958613,0.056459017
1614,A,81303419318000,1.8082398,3.6955154,0.44307864,-3.009372,-5.4829164,0.24820662
1614,A,81303439062000,0.8933423,6.128855,1.7339942,-1.1068097,0.87138635,0.27803403
1614,A,81303458860000,-0.083825685,8.928633,3.1063404,0.37923414,5.4775896,-0.026631612
1614,A,81303478604000,-2.6584718,10.018367,4.7876444,-0.12037488,2.5896578,-0.36005938
1614,A,81303498450000,-4.5529323,9.400452,4.799619,-0.58269966,-1.6202673,0.098004326
1614,A,81303518194000,-2.806963,8.502319,4.5720925,-0.294013,0.033023197,0.34621096
1614,A,81303538031000,-1.099314,9.596844,5.1756372,0.40053943,0.33768883,0.14807177
1614,A,81303557775000,0.24189699,12.588223,6.0522146,-0.7126619,0.69668293,-0.63383234
1614,A,81303577645000,1.5663428,16.214283,5.3121533,-1.0354371,3.213903,-0.608266
1614,A,81303597389000,0.61552006,18.434465,1.1951149,1.1121361,-1.9462382,0.50813115
1614,A,81303617193000,-6.1695704,20.977978,-4.181704,0.97045594,-4.990764,-0.18748654
1614,A,81303636937000,-8.768167,16.228653,4.5409575,1.026915,-1.7246631,-1.3422332
1614,A,81303656881000,-7.5179667,9.182506,9.299861,1.619202,2.8336034,-0.39095205
1614,A,81303676625000,-5.345684,5.221143,2.6512868,0.07350325,3.093528,1.3848438
1614,A,81303696457000,-2.3782544,3.9685476,-1.9734962,-0.32810146,-2.15503,1.0365024
1614,A,81303716201000,1.1304493,5.997129,-0.7927515,0.84581995,-4.3388224,-0.8873653
1614,A,81303735990000,2.198628,9.249566,0.05748047,1.6010925,-1.9068234,-1.3038837
1614,A,81303755734000,0.14130616,10.92608,-0.85741705,1.1206582,0.34088463,-0.19387813
1614,A,81303775551000,-2.543511,11.833792,-1.1711646,0.52837116,0.8032094,-0.2066613
1614,A,81303795295000,-3.7146754,12.432547,-0.8143067,0.9416938,-1.4711303,0.013848438
1614,A,81303815101000,-4.2032595,11.167976,-0.7161109,1.3571469,-1.7044232,0.7669904
1614,A,81303834845000,-3.9493873,8.083191,0.28500733,1.6287893,2.924151,0.59867865
1614,A,81303854822000,-3.2811768,4.926555,1.3531861,-0.25885928,6.7143617,0.18216023
1614,A,81303874566000,-1.9926564,3.1470559,1.8202149,-2.0857878,1.8684739,-0.25033715
1614,A,81303894374000,0.18441652,2.4572902,1.3843213,-1.4370418,-6.6227493,-0.65726817
1614,A,81303914118000,2.1291726,3.4368532,1.9208057,-1.8013622,-7.725298,-0.14274544
1614,A,81303933889000,2.090852,5.616321,2.3734643,-2.1656826,-2.2295985,0.6945524
1614,A,81303953633000,0.74724615,7.685618,1.4465919,-0.83516735,3.4301515,-0.07243799
1614,A,81303973450000,-0.51492923,9.529783,0.05748047,-0.09267801,3.4493263,-0.4293016
1614,A,81303993194000,-0.92208254,11.050621,-1.331631,-0.20772657,-0.5795039,0.007456851
1614,A,81304012995000,-0.74724615,11.522439,-2.7782228,-0.5006743,-1.32945,0.48682585
1614,A,81304032739000,-0.62031007,11.716436,-1.7363893,-0.29933932,0.8341021,0.5571333
1614,A,81304052529000,-1.4489869,12.930711,1.705254,0.2130529,1.4413028,-0.644485
1614,A,81304072273000,-2.1052222,14.216837,3.791316,-1.0641992,2.23599,-1.4466292
1614,A,81304092087000,-2.0046315,14.291082,4.6990285,0.20133498,-2.0506341,0.11824436
1614,A,81304111831000,-1.6453785,13.203743,1.0466236,1.200553,-4.120443,0.32810146
1614,A,81304131614000,-0.09340577,12.952266,-3.1925611,1.0780476,-1.4689997,-0.9768475
1614,A,81304151358000,0.73048097,13.330679,-5.982759,1.3422332,1.7374463,-0.60720074
1614,A,81304171171000,1.0250684,12.595408,-8.147857,1.1377025,3.1819448,0.6402239
1614,A,81304190915000,-1.5687379,12.406201,-9.857901,-0.0958738,0.1555286,1.0791129
1614,A,81304210728000,-4.4547367,13.749807,-11.306888,-0.04474111,-2.9593046,-0.15765914
1614,A,81304230472000,-6.5719337,13.876743,-9.848321,1.0748519,-2.267948,-1.1664646
1614,A,81304250259000,-7.90117,13.148658,-4.28948,1.8375812,-0.43782368,-0.58909124
1614,A,81304270003000,-9.72857,12.832515,7.5946074,0.8969527,0.23222765,-0.0031957934
1614,A,81304289825000,-8.799302,11.335628,6.7467704,0.3568636,-0.50600064,-0.053263225
1614,A,81304309569000,-3.66438,9.479487,-1.0250684,0.88949585,-1.8961707,0.49321744
1614,A,81304329439000,-0.92926764,8.231683,-3.6763551,0.8064052,0.61678815,0.6828345
1614,A,81304349183000,0.8813672,6.7731156,-3.9134622,0.13954964,4.2599926,0.80533993
1614,A,81304368979000,2.924319,5.252278,-3.1446607,-0.94275904,4.7031426,0.6348976
1614,A,81304388723000,3.551814,4.4619217,-3.0129347,-1.3070794,-1.010936,-0.41758367
1614,A,81304408538000,2.095642,3.7290456,-1.7220191,-2.17527,-5.4509583,-0.2609898
1614,A,81304428282000,0.3305127,3.4871485,1.0466236,-2.722816,-4.366519,0.017044231
1614,A,81304448074000,-0.61552006,4.282295,4.28469,-1.1867046,-0.13102753,-0.1768339
1614,A,81304467818000,-2.9027638,7.316785,7.2593045,-0.00958738,3.2778187,-0.14487597
1614,A,81304487634000,-4.9169755,8.986114,7.30481,-0.58269966,2.3393207,-0.30360037
1614,A,81304507378000,-4.152964,8.962164,4.28469,-0.79681784,-0.082025364,0.09374327
1614,A,81304527182000,-1.4849122,8.981323,2.6273365,-0.16831179,0.41758367,0.5571333
1614,A,81304546926000,0.728086,9.297466,1.5639478,0.29188246,1.1121361,-0.004261058
1614,A,81304566737000,1.7794995,11.263778,2.184258,-1.6415725,1.9217371,-1.2410331
1614,A,81304586481000,2.0812721,15.117364,4.4691067,-0.9310411,-0.94808537,-0.36112466
1614,A,81304606279000,1.6908839,16.693287,6.825806,1.28897,-4.3388224,0.20559604
1614,A,81304626023000,-3.0105398,14.267132,2.926714,1.8780613,-1.454086,-0.81066626
1614,A,81304645829000,-6.7898808,12.966637,-0.9029224,1.9100192,2.4820662,-1.4753913
1614,A,81304665573000,-5.8749833,13.062437,2.7111623,-0.16298546,3.7838194,-0.066046394
1614,A,81304685389000,-4.8259645,14.415623,3.642825,-0.8990832,0.2514024,1.9345202
1614,A,81304705133000,-6.7539554,11.989469,-0.61552006,0.10652645,-2.9358687,1.1899004
1614,A,81304724928000,-4.3158255,7.92033,-2.5219557,1.1920309,-2.5204158,-1.2761868
1614,A,81304744672000,-0.27542725,8.207732,1.3795313,2.6056368,-0.958738,-1.6458336
1614,A,81304764485000,1.4944923,9.18011,2.684817,1.736381,0.27057716,0.0
1614,A,81304784229000,0.42152345,9.14658,0.18441652,-0.07563378,0.69135666,0.037284255
1614,A,81304804038000,-0.3903882,8.971744,-2.4141798,0.3930826,-1.8333201,0.22903186
1614,A,81304823782000,-0.8646021,8.820857,-2.3902297,1.2154667,-1.5052186,0.6743124
1614,A,81304843581000,-1.8058448,8.454419,-0.852627,1.0226538,3.2053807,0.6402239
1614,A,81304863325000,-3.3745828,7.7430983,0.05508545,-0.5113269,5.936719,0.80107886
1614,A,81304883136000,-4.7325587,6.217471,0.9268726,-0.87138635,0.7819041,-0.27483824
1614,A,81304902880000,-4.3445654,4.785249,2.6441016,-1.200553,-5.2453623,-0.36218992
1614,A,81304922674000,-1.7028589,4.1050634,3.3051271,-2.5662222,-5.19636,0.27696875
1614,A,81304942418000,0.44786867,5.2882032,3.2093263,-1.7353158,-2.1805964,-0.05965481
1614,A,81304962381000,0.57959473,7.0126176,1.6549586,-0.62744075,1.3017532,0.037284255
1614,A,81304982125000,0.44786867,8.583751,0.043110352,-0.8543421,2.8378644,-0.083090626
1614,A,81305001944000,0.59156984,10.142908,-1.4609619,-0.65194184,0.4708469,0.098004326
1614,A,81305021688000,0.79993653,11.163186,-3.527864,-0.1736381,-0.8245147,0.7819041
1614,A,81305041475000,0.62031007,11.132051,-3.803291,-0.22370553,0.7797736,0.82557994
1614,A,81305061219000,-0.5029541,10.957214,-0.22273682,-0.5422196,1.3773869,-0.22903186
1614,A,81305081025000,-2.1650977,11.785892,3.887117,-1.2580773,1.4444987,-1.2911005
1614,A,81305100769000,-2.6177564,13.246854,5.702542,0.4346279,-1.4040185,-0.20559604
1614,A,81305120608000,-1.5495777,13.900694,5.829478,0.8809737,-2.5076325,-0.22903186
1614,A,81305140352000,-0.1460962,12.992982,1.8130299,1.5211977,-0.051132694,-1.0887003
1614,A,81305160128000,0.19878663,12.391831,-6.0522146,1.8535602,1.3006879,-0.6146576
1614,A,81305179872000,0.08861572,12.933106,-10.054293,0.8671253,0.8149273,0.56885123
1614,A,81305199687000,0.17483643,12.540323,-9.304651,-0.23648871,-1.1195929,1.1590078
1614,A,81305219431000,-2.1387525,12.279265,-7.893985,-0.08628642,-2.1230721,0.022370555
1614,A,81305239222000,-5.8845634,13.677958,-8.952583,1.3773869,-1.3326459,-1.1771172
1614,A,81305258966000,-7.94907,14.6671,-8.978929,2.51722,0.08628642,-0.7680557
1614,A,81305278780000,-9.352551,14.228811,-3.6452198,1.1622036,0.53263223,0.113983296
1614,A,81305298524000,-11.187137,13.639637,6.1599903,-0.5432849,-0.66152924,0.07989483
1614,A,81305318336000,-7.726333,11.924803,3.9206471,0.58269966,-2.5374599,0.15978967
1614,A,81305338080000,-2.3471193,10.035132,-1.2981006,1.6990968,-1.1302456,0.62104917
1614,A,81305357864000,0.26345217,8.47837,-3.5566041,0.6114618,2.3574302,0.40373522
1614,A,81305377608000,1.3915064,7.3383403,-3.5110989,-1.0002834,4.914065,0.5837649
1614,A,81305397424000,2.799778,6.4042826,-4.88584,-1.0961571,2.7686224,0.1917476
1614,A,81305417168000,5.767207,4.766089,-4.7469287,-1.3347764,-4.012851,-0.3153183
1614,A,81305437045000,6.104905,3.1614258,-1.9758912,-3.0445259,-5.7588196,0.18748654
1614,A,81305456789000,1.4346168,3.5110989,1.1400293,-2.2295985,-2.1486385,-0.37390783
1614,A,81305476627000,-0.51971924,4.478687,3.544629,-0.2790993,2.288188,-0.34194988
1614,A,81305496371000,-1.2549903,6.4976883,4.8666797,-0.1257012,3.0850058,-0.26312032
1614,A,81305516179000,-4.267925,8.931028,5.7719975,-0.60080916,0.20453078,-0.17150758
1614,A,81305535923000,-9.304651,9.651929,3.642825,-0.66152924,-0.053263225,0.56459016
1614,A,81305555704000,-7.7215433,8.919053,2.7830129,-0.084155895,1.3092101,0.94275904
1614,A,81305575448000,-1.6501685,8.674761,3.9445972,0.65513766,0.096939065,0.16298546
1614,A,81305595278000,-0.364043,10.152488,2.9865894,-0.8607337,0.63383234,-0.6764429
1614,A,81305615022000,-0.19160157,12.676839,3.06802,-1.2154667,2.7856665,-0.63702816
1614,A,81305634817000,1.5184424,15.191609,5.1684523,0.9033443,-1.6085494,0.20985709
1614,A,81305654561000,4.277505,14.377303,2.9841945,0.21624869,-3.1031153,-0.034088463
1614,A,81305674391000,0.22513184,15.558047,-6.2773466,1.2900352,-0.74248934,-0.7456851
1614,A,81305694135000,-4.9481106,18.091978,-3.0177248,2.1007016,2.775014,-0.17789917
1614,A,81305713964000,-6.71324,15.457457,5.6714063,-0.08735169,1.6298546,0.67963874
1614,A,81305733708000,-11.165582,10.835069,5.278623,-0.5954828,-3.3896716,0.6466155
1614,A,81305753508000,-7.197034,6.0570045,2.074087,0.78296936,-3.564375,-0.55287224
1614,A,81305773252000,-0.92208254,4.5744877,2.0118165,1.7299895,-0.61572284,-0.92784536
1614,A,81305793065000,1.6693287,5.942044,0.8167017,1.107875,0.91186637,-0.16831179
1614,A,81305812809000,1.3771362,6.7970657,-1.5711329,-0.15765914,0.21411815,0.16937704
1614,A,81305832606000,0.4047583,7.846084,-2.3375392,-0.05752428,-1.3507553,0.18429075
1614,A,81305852350000,-0.8885523,10.097403,-0.80233157,1.0950918,-1.808819,0.17257284
1614,A,81305872151000,-3.412903,12.310401,0.88376224,1.3880396,1.7907095,0.36964676
1614,A,81305891895000,-5.6354814,12.600199,-0.613125,1.1739215,3.4866107,0.5454154
1614,A,81305911710000,-5.142107,9.656719,-1.9136207,-0.13102753,2.0815268,0.85753787
1614,A,81305931454000,-2.7159522,5.824688,0.30895755,-2.082592,-0.09161274,0.26525086
1614,A,81305951261000,-0.19639161,3.6092947,3.666775,-1.7353158,-3.713512,-0.78296936
1614,A,81305971005000,2.5219557,3.4871485,4.6750784,-1.3837786,-5.293299,-0.4293016
1614,A,81305990814000,2.6967921,5.2977834,2.7662477,-0.8490158,-1.5286545,0.3121225
1614,A,81306010558000,1.3986914,7.30481,0.7664063,-0.36645097,3.1968586,-0.066046394
1614,A,81306030381000,0.613125,9.311836,-0.3281177,-0.5550028,1.8216022,-0.21518342
1614,A,81306050125000,-0.045505375,10.91171,-1.9016455,-0.5965481,-2.3734093,0.08628642
1614,A,81306070080000,-0.3161426,10.95482,-4.24158,-0.20772657,-2.2647521,0.35473305
1614,A,81306089824000,-0.8214917,10.152488,-2.5578809,0.29933932,0.7275756,0.18642128
1614,A,81306109640000,-2.0285816,10.552457,2.8309133,0.22264028,1.0759171,0.0
1614,A,81306129384000,-2.6536818,12.125984,5.870193,-0.13954964,-0.035153728,-0.18855181
1614,A,81306149192000,-2.069297,13.570181,6.5551686,-0.63915867,1.820537,-0.46552056
1614,A,81306168936000,-1.2334352,14.00847,4.0906935,0.32810146,0.3898868,0.0479369
1614,A,81306188755000,-1.0681788,13.634847,-2.7854078,0.3355583,-2.8176246,0.10546118
1614,A,81306208499000,-0.13172609,13.201348,-9.704619,-0.029827405,-1.7789917,-0.8202536
1614,A,81306228315000,0.48379397,12.497212,-11.393108,2.2988408,-0.87138635,-0.72651035
1614,A,81306248059000,-0.98435307,11.685301,-8.612491,1.5478293,-0.38775626,0.3749731
1614,A,81306267829000,-5.120552,12.046948,-6.3779373,-1.1611383,-1.0524813,0.9129316
1614,A,81306287573000,-8.337064,13.052857,-4.174519,-0.67963874,-3.0349383,0.1736381
1614,A,81306307399000,-10.341695,13.675562,-1.3507911,1.2474247,-2.9976542,-0.9672601
1614,A,81306327143000,-10.9644,14.6000395,2.687212,2.3009713,-0.73290193,-0.57098174
1614,A,81306346929000,-7.824529,14.983243,1.8154249,0.6359629,1.1515509,0.330232
1614,A,81306366673000,-3.5877395,12.985797,-2.2345533,-0.7105314,-0.094808534,0.07350325
1614,A,81306386484000,-0.14849122,10.0063925,-4.471502,-0.04474111,-2.167813,-0.18002969
1614,A,81306406228000,1.7555494,7.446116,-5.247488,1.1472899,-1.0695255,-0.4889564
1614,A,81306426004000,2.5530908,5.6833816,-3.1063404,1.5371766,0.4495416,-0.039414786
1614,A,81306445748000,3.7027004,4.3182206,-1.092129,0.53795856,-0.068176925,0.4079963
1614,A,81306465547000,4.9002104,2.907554,-0.6514453,-0.19068234,-0.62317973,0.43675843
1614,A,81306485291000,2.3471193,2.4884255,-0.07424561,-0.12357068,0.098004326,0.36325517
1614,A,81306505101000,-0.12933107,3.3314724,2.454895,-0.25353295,0.5539375,0.34301516
1614,A,81306524845000,-0.61073,5.134922,4.517007,-0.4346279,-0.9502159,0.0628506
1614,A,81306544721000,-2.440525,8.49753,5.230723,-1.4221281,-2.7302728,-0.16085494
1614,A,81306564465000,-5.4582496,9.77168,4.981641,-1.582983,-1.9430424,-0.056459017
1614,A,81306584235000,-4.6966333,8.971744,2.802173,-0.8064052,-0.22583607,0.07989483
1614,A,81306603979000,-0.5604346,8.787327,2.2968237,-0.99921805,-0.5837649,0.48682585
1614,A,81306623795000,0.84544194,9.984837,2.924319,-1.2857742,-0.9938917,0.3834952
1614,A,81306643539000,0.33290774,12.715159,4.0020776,-1.1771172,-0.77870834,-0.12250541
1614,A,81306663342000,0.61073,15.998732,5.2594633,-0.7520767,-0.0958738,-0.06498113
1614,A,81306683086000,0.66342044,15.946041,7.2521195,-0.56459016,0.6103965,0.46339005
1614,A,81306702905000,-1.6357985,13.165423,1.705254,-0.257794,1.1483551,0.572047
1614,A,81306722649000,-5.4342995,12.933106,-4.3278003,0.34301516,0.9395633,0.037284255
1614,A,81306742438000,-4.670288,12.997771,1.9016455,0.27483824,1.71188,-0.74035877
1614,A,81306762182000,-5.261858,12.1235895,4.5960426,0.34514567,2.2871227,-1.6500946
1614,A,81306781993000,-9.498648,10.2387085,1.4585669,-0.8863,-3.1329427,-0.15446335
1614,A,81306801737000,-5.242698,8.614885,-0.014370117,-0.66365975,-3.242665,0.099069595
1614,A,81306821548000,-0.32572266,9.077125,0.34967285,1.707619,0.6593987,-1.0098706
1614,A,81306841292000,1.0418335,9.280701,0.38080812,1.780057,4.382498,-0.99708754
1614,A,81306861101000,0.55324954,8.947793,-0.3520679,-0.660464,3.0115025,-0.08628642
1614,A,81306880845000,-0.35685793,8.8879175,-1.695674,-0.3920173,-0.45486793,0.4878911
1614,A,81306900655000,-1.2573853,9.1130495,-1.0729688,1.1653993,-0.07456851,-0.32810146
1614,A,81306920399000,-2.7255323,8.804092,0.19160157,1.2804478,0.21198763,-0.43249738
1614,A,81306940198000,-3.9326222,7.7167535,0.06945557,0.14168017,-0.922519,-0.056459017
1614,A,81306959942000,-4.2104445,6.1599903,0.021555176,-0.19281286,-0.33449304,-0.13635385
1614,A,81306979756000,-3.1159205,4.998406,1.2909156,0.29507825,0.9416938,-0.017044231
1614,A,81306999500000,-0.81909674,5.110972,2.8740237,0.89162636,-0.7861652,0.20240025
1614,A,81307019314000,0.3544629,6.4928985,2.8716285,0.82344943,-1.5606124,0.45593318
1614,A,81307039058000,-0.047900394,7.9347,0.96040285,0.664725,3.06157,0.13209279
1614,A,81307058867000,0.17723145,9.307046,-0.27303225,1.32945,6.800648,-0.09374327
1614,A,81307078611000,0.85741705,10.241104,-0.7448511,0.4250405,5.844041,0.3888215
1614,A,81307098424000,0.98195803,10.4638405,-1.6118482,-1.8524948,0.8085357,0.80533993
1614,A,81307118168000,0.21794678,10.178833,-1.6166383,-1.8823223,-4.273841,0.070307456
1614,A,81307137962000,-0.859812,10.3512745,0.91250247,-2.1156151,-3.2117724,-0.15765914
1614,A,81307157706000,-0.8047266,11.56076,4.1170387,-1.2687299,1.8844528,0.13422333
1614,A,81307177695000,-0.11496094,12.885205,5.740862,-0.45486793,4.55081,0.17470337
1614,A,81307197439000,-0.7424561,13.654007,3.6236646,-1.051416,1.3507553,0.6860303
1614,A,81307217265000,-0.79993653,13.766573,-2.6129665,-1.3177321,-0.535828,0.46232477
1614,A,81307237009000,0.011975098,14.087505,-6.8880763,-0.6668556,0.4612595,-0.12996227
1614,A,81307256787000,-0.18681154,13.711488,-9.16574,0.029827405,1.417867,-0.4101268
1614,A,81307276531000,-0.58677983,12.940291,-9.438772,0.25992453,1.7928401,-0.5187838
1614,A,81307296341000,-1.9663111,13.225299,-10.432706,0.2876214,0.37284255,0.3174488
1614,A,81307316085000,-5.879773,13.596526,-9.108259,-0.40053943,1.0535465,0.43249738
1614,A,81307335904000,-8.746612,12.818145,-5.336104,-0.43675843,3.8818238,-0.3089267
1614,A,81307355648000,-9.4507475,12.118799,5.3217335,-0.10013486,-2.2732744,0.4250405
1614,A,81307375434000,-7.4748564,11.057806,6.3012967,0.08841695,-5.59903,-0.007456851
1614,A,81307395178000,-3.6691701,9.79084,-0.74724615,2.1283984,-1.0791129,-1.8002969
1614,A,81307414992000,-1.223855,8.883128,-3.1350808,1.4615428,4.722317,-0.9981528
1614,A,81307434736000,0.48139894,7.8508744,-2.7494826,-1.0173275,2.457565,1.397627
1614,A,81307454488000,2.1411476,6.70366,-1.6046631,-0.3174488,-3.7028592,1.2016183
1614,A,81307474232000,2.6896071,5.5684204,-2.203418,1.3518206,-3.4386737,-0.9193232
1614,A,81307494045000,2.2608986,4.272715,-2.308799,1.510545,-1.5339808,-1.401888
1614,A,81307513789000,1.4705421,3.4823585,-0.74006104,0.7222493,-1.6000272,-0.041545313
1614,A,81307533602000,0.23231691,3.8440065,2.2513185,0.4133226,-1.3880396,0.47404268
1614,A,81307553346000,-2.811753,5.949229,6.330037,0.7861652,-1.1302456,0.44101948
1614,A,81307573195000,-4.7062135,8.231683,6.6437845,0.74675035,-0.23861924,0.38775626
1614,A,81307592939000,-3.8607717,9.259146,4.1936793,1.0439591,4.172641,0.56459016
1614,A,81307612750000,-1.947151,9.879456,2.5578809,1.6735305,5.6320534,0.63383234
1614,A,81307632494000,-0.5292993,10.720108,2.1052222,0.20559604,3.2501218,0.49534798
1614,A,81307652363000,0.46942386,12.353511,3.8559816,-2.6152241,-3.7113814,-0.04474111
1614,A,81307672107000,0.90771246,15.241905,4.89542,-3.4290862,-7.69334,-0.39627838
1614,A,81307691927000,3.2452517,15.265855,5.0271463,-3.1553133,-3.9063249,-0.28975195
1614,A,81307711671000,1.6741188,13.3618145,-0.69695073,-0.7978831,3.3182988,-0.2545982
1614,A,81307731508000,-3.911067,15.21556,-5.49657,0.8671253,6.6046395,-0.19600865
1614,A,81307751252000,-5.5253105,16.233442,2.066902,0.05219796,2.5310683,-0.57098174
1614,A,81307771050000,-8.58854,14.3677225,5.6785917,-0.5070659,-2.0048277,0.1107875
1614,A,81307790794000,-9.278306,8.844808,2.43813,-0.4527374,0.3174488,0.6689861
1614,A,81307810603000,-3.9924977,4.8355446,0.60833496,0.4527374,1.2538162,0.3653857
1614,A,81307830347000,0.39757326,6.4210477,1.6238233,-0.94275904,1.4721955,-1.3038837
1614,A,81307850138000,1.6597486,8.952583,0.4742139,-2.1241374,2.058091,-0.9331717
1614,A,81307869882000,0.16765137,9.148975,-2.5530908,0.19813919,-3.5505264,0.74035877
1614,A,81307889698000,-1.336421,9.426797,-3.5039136,1.0844392,-4.1065946,0.07243799
1614,A,81307909442000,-1.9830762,10.200389,-1.5376027,1.804558,1.1451592,-1.2346416
1614,A,81307929266000,-3.5206788,10.540482,0.61552006,1.8429075,4.7074037,-0.41971418
1614,A,81307949010000,-4.3565407,9.474698,0.96758795,-0.25992453,0.21518342,1.3677995
1614,A,81307968812000,-4.0811133,7.1347637,0.65384036,-0.74461985,-5.1452274,0.9619338
1614,A,81307988556000,-3.1278956,4.8499146,1.5399976,0.46978164,-4.845888,-0.9917612
1614,A,81308008373000,-1.1520045,3.4560134,2.2225783,1.4125407,-1.9249328,-1.4349113
1614,A,81308028117000,0.8909473,4.0882983,2.0429518,1.3475596,0.32277513,-0.41225734
1614,A,81308047940000,1.5280225,6.12646,1.1831397,0.5752428,0.90014845,-0.029827405
1614,A,81308067684000,1.2909156,8.190968,0.613125,0.1257012,-2.4192157,0.26844665
1614,A,81308087500000,0.71371585,9.917776,-0.5724097,0.64555025,-3.8637142,0.7584683
1614,A,81308107244000,1.0226734,10.732083,-2.9099488,1.5286545,2.2455776,0.6764429
1614,A,81308127059000,1.4849122,10.825489,-3.2524366,2.0431771,7.7327547,0.22903186
1614,A,81308146803000,0.7831714,11.275752,0.026345216,0.48043427,6.815562,0.21518342
1614,A,81308166612000,-0.97956306,12.664864,2.792593,-2.6407907,-3.9670448,0.112918034
1614,A,81308186356000,-2.2752686,14.228811,4.385281,-3.802994,-9.829195,0.16724652
1614,A,81308206174000,-2.9770093,14.906602,4.27032,-3.448261,-4.3366914,0.8564726
1614,A,81308225918000,-2.2225783,13.735437,0.06706055,-1.1025487,5.172924,0.16085494
1614,A,81308245728000,-0.20357667,12.688814,-5.122947,1.1792477,7.330085,-0.6508766
1614,A,81308265472000,0.019160157,12.87802,-7.36708,0.6178534,2.3979104,-0.7126619
1614,A,81308285417000,-0.63707525,12.5738535,-7.8412943,-0.6679208,-2.6823359,0.06178534
1614,A,81308305161000,-1.6262183,12.099639,-7.4676714,-0.31851408,-0.0628506,0.5635249
1614,A,81308324985000,-2.7422974,12.899576,-8.387359,0.47510794,3.5910065,0.1768339
1614,A,81308344729000,-5.0510964,13.445641,-7.6664577,0.1438107,1.5052186,-0.60507023
1614,A,81308364513000,-7.201824,13.42648,-2.0812721,-1.9366508,-0.2247708,-1.3496901
1614,A,81308384257000,-7.690408,13.033697,6.248606,-0.6945524,0.45167214,-0.6828345
1614,A,81308404072000,-5.381609,11.316468,4.2990603,0.32490566,-3.1947281,0.6828345
1614,A,81308423816000,-2.2513185,9.627979,-1.0729688,0.20133498,-2.582201,-0.13635385
1614,A,81308443632000,-0.026345216,8.3250885,-3.2021413,1.6788567,1.3187973,-0.8852348
1614,A,81308463376000,1.84177,6.969507,-2.6057813,2.514024,4.8735847,-0.10759171
1614,A,81308483136000,3.2596216,5.740862,-1.7890797,0.39095205,0.6775082,1.0428939
1614,A,81308502880000,3.7601807,4.5840673,-0.96758795,-0.70200926,-5.4509583,0.82557994
1614,A,81308522655000,2.3734643,3.6931202,-0.4023633,0.56885123,-4.8075385,-0.6988135
1614,A,81308542399000,1.2717555,3.271597,0.5843848,1.4711303,-0.81066626,-0.9395633
1614,A,81308562186000,0.36883304,4.045188,2.4932153,0.9353022,1.707619,-0.02130529
1614,A,81308581930000,-1.7699195,7.2257743,5.0630717,0.7840346,1.1132014,0.082025364
1614,A,81308601744000,-3.9493873,10.597961,4.160149,1.2314457,-1.6543556,0.023435818
1614,A,81308621488000,-3.8176613,11.66135,1.5040723,0.32384038,-4.2855587,0.5933523
1614,A,81308641287000,-2.9506643,11.419454,1.22625,0.773382,-0.18322548,0.76592517
1614,A,81308661031000,-1.8106349,10.839859,3.7410207,1.4263891,6.059224,0.42290998
1614,A,81308680815000,-0.20357667,11.417059,6.9216065,-0.03834952,7.882957,0.035153728
1614,A,81308700559000,1.3986914,13.96536,6.4426026,-1.8461033,-0.8245147,-0.25246766
1614,A,81308720355000,2.6321266,13.45043,5.0415163,-2.7771444,-8.15886,-0.1587244
1614,A,81308740099000,-1.3244458,13.292359,-3.290757,-3.3055155,-5.7811904,0.0127831735
1614,A,81308759967000,-6.5384035,15.023958,-4.133804,-1.6586168,1.4487597,0.15126756
1614,A,81308779711000,-6.4426026,14.420413,2.912344,0.46339005,6.1795993,0.12996227
1614,A,81308799528000,-9.632769,13.656402,5.6642213,0.1917476,4.144944,-0.44101948
1614,A,81308819272000,-8.701106,9.501043,2.7087672,-0.5187838,-1.7939054,-0.035153728
1614,A,81308839091000,-3.2524366,6.8114357,-0.57719976,-0.14274544,-1.1121361,0.72651035
1614,A,81308858835000,0.22992188,8.387359,-1.463357,0.5273059,2.5374599,0.29507825
1614,A,81308878628000,1.7842896,8.772957,-0.5412744,-0.32277513,1.7821875,-1.1472899
1614,A,81308898372000,2.1435425,8.377779,-0.5628296,-1.510545,0.17789917,-1.3763217
1614,A,81308918188000,0.4742139,8.811277,-0.7065308,0.23435818,-2.5577,0.32490566
1614,A,81308937932000,-1.1759547,8.775352,-0.12693603,0.15765914,-2.7387948,0.3057309
1614,A,81308957734000,-1.8800904,7.7550735,0.22992188,1.2133362,0.34408042,-0.7701862
1614,A,81308977478000,-2.3830445,6.444998,-0.4406836,2.7292075,3.0626354,-0.18642128
1614,A,81308997309000,-2.7782228,5.455855,-0.5029541,0.92997587,1.9078887,0.9150622
1614,A,81309017053000,-2.0429518,5.130132,1.1951149,-1.3699301,-3.1116376,0.7882957
1614,A,81309036907000,-0.728086,5.5157304,3.288362,-0.37284255,-5.0791807,-0.52411014
1614,A,81309056651000,0.21794678,6.605464,3.67875,1.6085494,-2.847452,-1.4370418
1614,A,81309076451000,0.043110352,8.135881,2.42855,2.2327943,0.34301516,-0.624245
1614,A,81309096195000,0.050295413,9.350157,0.25387207,0.7616641,1.7470337,0.35260254
1614,A,81309116009000,0.86939216,9.872271,-2.3830445,0.023435818,0.43782368,0.1736381
1614,A,81309135753000,1.8250049,10.4566555,-2.7135572,0.07243799,-2.8868666,0.08948222
1614,A,81309155519000,2.3710694,11.091336,-0.974773,0.62744075,-2.2604911,0.42397526
1614,A,81309175263000,0.7568262,12.051739,0.7209009,1.7821875,2.404302,0.50600064
1614,A,81309195094000,-1.3100758,13.522281,2.5985963,0.48682585,6.735667,0.55287224
1614,A,81309214838000,-2.9051588,14.995218,5.352869,-1.71188,4.156662,-0.002130529
1614,A,81309234629000,-3.7338357,15.105389,1.6836988,-2.263687,-5.6842513,-0.15765914
1614,A,81309254373000,-2.2465284,14.401253,-3.9302273,-3.053048,-7.8531294,0.034088463
1614,A,81309274174000,-0.43110353,13.50312,-6.809041,-2.6812706,-1.2101405,0.03834952
1614,A,81309293918000,0.0071850587,12.533137,-7.95865,-0.27377295,5.9825253,-0.083090626
1614,A,81309313739000,-2.191443,12.415782,-9.848321,1.1792477,6.4959826,-0.10546118
1614,A,81309333483000,-4.2918754,12.937896,-11.436219,0.10652645,-0.39947417,-0.50813115
1614,A,81309353297000,-5.7001467,12.705579,-9.359736,-0.8607337,-2.3829966,0.42397526
1614,A,81309373041000,-5.9468336,12.003839,-1.951941,-0.0053263223,0.69774824,0.55074173
1614,A,81309392983000,-8.684341,12.1307745,10.34888,0.74781567,0.6828345,-0.07882957
1614,A,81309412727000,-7.4676714,11.498489,4.751719,-1.0663297,0.18535602,-0.38029942
1614,A,81309432533000,-3.1853762,10.226734,-2.6464968,-1.6319852,3.8690405,-0.69987875
1614,A,81309452277000,-1.0394385,8.782537,-3.278782,0.9086706,-0.6018744,0.24501082
1614,A,81309472053000,1.3531861,6.5719337,-2.3447242,0.28229508,-4.7063384,0.34621096
1614,A,81309491797000,3.6548,4.785249,-2.064507,0.5475459,-1.7566211,-0.92464954
1614,A,81309511612000,3.891907,3.8559816,-2.44771,2.1230721,2.8730183,-0.4293016
1614,A,81309531356000,1.8106349,3.3266823,-0.9244776,0.8245147,2.444782,1.397627
1614,A,81309551169000,0.11496094,3.4512234,1.9591261,-0.77444726,-2.5076325,1.0620687
1614,A,81309570913000,-0.72569096,4.8906302,3.796106,0.3536678,-4.615791,-1.0492855
1614,A,81309590658000,-3.3769777,8.195757,5.49657,1.707619,-2.932673,-1.5318503
1614,A,81309610402000,-5.630691,10.36325,5.415139,0.7105314,-0.17257284,0.12357068
1614,A,81309630185000,-3.767366,9.769285,3.1183155,-0.24607609,1.7757958,0.3387541
1614,A,81309649929000,-0.27542725,9.311836,0.5843848,0.8490158,0.63383234,-0.25246766
1614,A,81309669712000,0.852627,9.975257,0.7879615,1.3038837,-2.51722,0.05539375
1614,A,81309689456000,1.4585669,10.655442,5.949229,1.0301107,-0.85966843,0.40373522
1614,A,81309709274000,1.465752,13.452826,7.9730206,1.3688648,2.9358687,0.5550028
1614,A,81309729018000,1.4489869,14.925762,2.565066,0.28549087,5.9644156,0.74248934
1614,A,81309748872000,-4.9552956,18.068027,-7.999366,-1.5606124,3.3598442,-0.13102753
1614,A,81309768616000,-13.055252,21.102518,-2.8309133,-1.8535602,-3.6400087,-0.6221144
1614,A,81309788405000,-9.623189,16.140038,8.202942,-2.3659523,-5.5447016,-0.3323625
1614,A,81309808149000,-6.672525,8.763377,5.886958,-1.8855181,-1.5275892,-0.15126756
1614,A,81309827980000,-3.403323,3.8847218,-0.9244776,-0.015978966,3.8019288,-0.1107875
1614,A,81309847724000,1.0466236,3.8847218,-0.6706055,0.33981937,4.845888,-0.5113269
1614,A,81309867585000,3.2668068,6.854546,0.014370117,-0.6583334,0.17150758,-0.34621096
1614,A,81309887329000,2.5818312,8.899893,-2.2800586,-0.5656554,-1.707619,0.41864893
1614,A,81309907145000,-0.6179151,10.114168,-3.4655933,0.0127831735,0.54648066,0.48149952
1614,A,81309926889000,-2.6704469,11.620635,-1.6501685,0.34514567,1.0759171,0.16724652
1614,A,81309946709000,-4.0499783,12.485237,0.3281177,-0.6221144,0.37710363,-0.71479243
1614,A,81309966453000,-4.9481106,10.688972,-0.43349856,-1.8780613,2.2935145,-1.0098706
1614,A,81309986255000,-4.5385623,7.32876,-1.1328443,0.27803403,-1.0247844,0.1257012
1614,A,81310005999000,-3.0416749,4.528982,1.0538087,0.43888897,-3.1116376,0.040480047
1614,A,81310025813000,-0.43589357,2.5866213,2.5530908,0.58056915,-0.48469532,-0.96939063
1614,A,81310045557000,2.1004322,2.5411158,2.555486,2.3329291,1.6714,-0.294013
1614,A,81310065364000,2.3950195,4.605623,2.320774,0.9054748,1.5755261,1.2367721
1614,A,81310085108000,1.3292359,6.9790874,2.3662794,-1.3848438,-2.0026972,1.1611383
1614,A,81310104927000,0.011975098,9.175321,2.2321582,-0.22050974,-3.5665054,-0.4165184
1614,A,81310124671000,-0.96758795,10.87818,-0.32572266,2.0975058,-1.4157364,-1.2868395
1614,A,81310144477000,-0.61073,11.304493,-4.1553593,2.0399814,1.1227888,-0.4016047
1614,A,81310164221000,-0.26584718,11.364368,-3.896697,0.16192019,1.0247844,0.06391586
1614,A,81310184071000,-1.2166699,12.705579,0.90052736,-0.12463594,-1.0897655,-0.12676647
1614,A,81310203815000,-2.663262,14.501843,4.4834766,0.6114618,-2.5438516,0.08735169
1614,A,81310223660000,-3.187771,15.033538,4.960086,1.3305153,-0.69348717,0.5496765
1614,A,81310243404000,-1.6573536,13.898299,2.5267458,2.2551649,4.0011334,0.53263223
1614,A,81310263205000,-0.75203615,12.729529,-4.373306,0.8277105,6.8943915,0.094808534
1614,A,81310282949000,-0.23471193,11.965518,-9.3309965,-2.6120284,2.7121632,-0.5613944
1614,A,81310302762000,0.5843848,10.751244,-8.902288,-2.3702135,-5.7108827,-0.39947417
1614,A,81310322506000,-1.346001,10.186019,-6.806646,-1.5606124,-8.067247,-0.2545982
1614,A,81310342322000,-4.636758,11.852952,-5.5803957,-2.2200112,-1.8588865,0.9353022
1614,A,81310362066000,-7.096443,14.482684,-4.4475513,-1.2058793,5.602226,0.5858955
1614,A,81310381799000,-8.847202,16.326849,-1.8753004,0.80533993,6.344715,-0.37603834
1614,A,81310401543000,-12.085269,17.59142,1.7507594,0.49534798,0.5752428,-0.4878911
1614,A,81310421355000,-10.32014,15.459851,-3.8104763,-0.8159926,-2.2093585,0.4165184
1614,A,81310441099000,-3.903882,11.64698,-4.6942387,-0.28868666,0.04474111,0.72011876
1614,A,81310460913000,-0.16525635,7.7718387,-2.8931837,0.68389976,0.67963874,0.26205507
1614,A,81310480657000,3.027305,4.5768824,-0.6777906,-1.4391723,1.5861788,-1.2644689
1614,A,81310500606000,4.5768824,3.2644117,0.26345217,-1.5701998,0.8245147,-1.1227888
1614,A,81310520350000,5.221143,2.6177564,-1.2789404,0.36005938,-3.4173684,0.30786142
1614,A,81310540165000,5.0367265,2.1818628,-2.9099488,0.34621096,-2.94013,-0.19920446
1614,A,81310559909000,2.4213648,2.7375073,-1.2597803,1.4956313,1.4796523,-1.2772521
1614,A,81310579703000,0.56522465,4.24158,1.8226099,2.6035063,3.9254994,-0.25992453
1614,A,81310599447000,0.366438,6.0570045,3.9254372,0.058589544,0.8948221,1.3539511
1614,A,81310619266000,-2.680027,8.473579,6.0186844,-1.4572818,-3.8946068,1.0823087
1614,A,81310639010000,-6.6198344,9.750125,6.2342362,0.02130529,-3.6155076,-0.6828345
1614,A,81310658827000,-9.927357,10.090218,3.515889,2.1166804,-0.644485,-1.3305153
1614,A,81310678571000,-4.5720925,9.721385,3.0704153,1.7491642,0.8948221,0.014913702
1614,A,81310698356000,-0.5388794,10.526112,4.014053,-0.09374327,0.60293967,0.18216023
1614,A,81310718100000,0.9196875,13.019327,5.1061816,0.04580637,-0.9235843,-0.2609898
1614,A,81310737923000,3.4608033,15.098204,5.132527,1.0727214,-1.4082797,-0.004261058
1614,A,81310757667000,3.4775686,14.67189,-1.5471827,1.6298546,1.6895094,0.46232477
1614,A,81310777438000,-3.166216,16.183147,-7.3646855,1.4913702,3.1425302,1.0471549
1614,A,81310797182000,-10.607542,17.14834,2.335144,-0.8692558,3.9500005,0.66365975
1614,A,81310816987000,-11.965518,14.726975,8.823253,-1.8908445,0.8831042,-0.4101268
1614,A,81310836731000,-9.364527,8.904683,2.8836036,-1.0492855,-4.5827675,-0.6199839
1614,A,81310856541000,-5.6522465,4.718189,-2.1603076,-2.3734093,-4.9513493,0.16831179
1614,A,81310876285000,-0.34488282,6.217471,0.8909473,-2.3329291,-0.99495703,0.20026971
1614,A,81310896050000,2.0142114,9.352551,1.6836988,-0.33129725,2.5331988,-0.30040458
1614,A,81310915794000,-0.49576905,9.812395,-1.8968556,0.19707392,3.0136333,-0.47191215
1614,A,81310935573000,-2.7255323,9.280701,-3.515889,-0.28549087,1.2516857,-0.4101268
1614,A,81310955317000,-2.1722827,9.75252,-1.4250367,-0.44847634,0.24927188,0.28336033
1614,A,81310975260000,-1.7603394,10.260264,0.9915381,0.053263225,-0.046871636,0.47191215
1614,A,81310995004000,-2.8500733,9.568104,1.463357,0.4644553,-1.7534252,-0.13422333
1614,A,81311014824000,-4.1314087,7.436536,0.2778223,-1.1472899,0.4463458,-0.7041398
1614,A,81311034568000,-3.3482375,5.1971927,0.14370118,-1.2921658,3.8541267,-0.76912093
1614,A,81311054385000,-0.732876,3.9422023,1.7627344,0.53476274,-2.9177594,0.81705785
1614,A,81311074129000,1.8082398,4.641548,3.647615,-0.36112466,-5.6405754,0.15446335
1614,A,81311093916000,1.9806812,6.4905033,3.4344583,0.69774824,-0.3334278,-1.5393071
1614,A,81311113660000,1.0538087,7.7862086,1.5471827,3.1190944,4.172641,-0.85966843
1614,A,81311133449000,0.4382886,8.8879175,-0.48139894,0.91825795,3.0264163,1.6309199
1614,A,81311153193000,0.5676197,10.054293,-2.2441335,-1.2964269,-2.0719395,1.0705907
1614,A,81311172952000,1.0538087,10.504556,-3.657195,0.10333065,-4.379302,-1.2271847
1614,A,81311192696000,-0.0047900393,10.39678,-2.3590944,1.2506205,-2.9561088,-1.0940266
1614,A,81311212513000,-1.6669337,10.950029,2.1722827,0.5656554,0.6743124,0.17896444
1614,A,81311232257000,-2.203418,12.487633,5.7624173,0.3089267,2.4277377,-0.051132694
1614,A,81311252071000,-1.6214283,14.02284,6.7683253,1.1611383,-1.4615428,-0.25885928
1614,A,81311271815000,-1.2070899,14.336588,4.148174,1.4615428,-3.2479913,0.15126756
1614,A,81311291612000,-0.9436377,13.833633,-3.3458424,1.3752564,1.6245283,0.515588
1614,A,81311311356000,-0.9029224,13.895904,-9.766891,0.8479505,5.1462927,0.5251754
1614,A,81311331185000,-0.13651612,13.122313,-11.678116,-1.2378373,4.9886336,0.3334278
1614,A,81311350929000,-1.0681788,12.114009,-10.451866,-1.6341157,-1.3401027,-0.053263225
1614,A,81311370730000,-4.27032,12.319981,-9.010064,-1.5201324,-6.292517,-0.37603834
1614,A,81311390474000,-7.431746,13.268409,-8.150251,-2.711098,-4.033091,0.004261058
1614,A,81311410287000,-9.321417,13.424085,-4.481082,-1.6692694,1.9728698,-0.15765914
1614,A,81311430031000,-10.688972,13.627662,5.767207,0.18109496,5.6704025,-0.30360037
1614,A,81311449846000,-8.993299,12.731924,3.8487966,-0.06924219,2.751578,-0.36325517
1614,A,81311469590000,-4.143384,10.873389,-2.5075855,-0.18642128,-1.8738002,0.18109496
1614,A,81311489402000,-0.40954837,8.741821,-3.4464333,-0.06711166,-0.37923414,0.5273059
1614,A,81311509146000,2.5315359,6.183941,-2.3375392,-0.010652645,1.9686087,0.30253512
1614,A,81311528981000,4.0427933,4.6966333,-1.2741505,-0.036218993,0.13102753,-0.27057716
1614,A,81311548725000,4.126619,4.136199,-2.1004322,-1.7704695,1.4732608,-0.92464954
1614,A,81311568536000,2.4668703,3.6260598,-3.0105398,-0.6348976,0.551807,-0.28975195
1614,A,81311588280000,0.34009278,3.7122805,-1.9447559,0.2695119,-4.1353564,0.4889564
1614,A,81311608231000,-0.7664063,4.3445654,1.22146,0.1917476,-2.0751352,-0.5571333
1614,A,81311627975000,-2.074087,6.090535,4.9864306,1.9931098,2.6557043,-1.1057445
1614,A,81311647780000,-5.0439115,9.062755,8.135881,2.4234767,3.862649,0.10013486
1614,A,81311667524000,-8.183782,10.245894,5.9947343,-0.56245965,-0.64341974,1.2261194
1614,A,81311687316000,-5.5061502,9.433982,2.076482,-1.0535465,-4.71273,0.59867865
1614,A,81311707060000,-2.3710694,9.611214,-0.102985844,0.53476274,-4.085289,-0.9715212
1614,A,81311726901000,-0.24908204,10.557246,2.5578809,1.8684739,-0.9416938,-0.97471696
1614,A,81311746645000,1.463357,12.23855,5.3289185,0.96299905,1.6468989,0.45912898
1614,A,81311766496000,3.4584084,14.089901,5.372029,0.013848438,1.4636734,0.6327671
1614,A,81311786240000,2.9506643,14.02284,0.3161426,0.9193232,-0.5592638,-0.20879184
1614,A,81311806029000,-3.63564,17.246536,-7.89638,1.2282499,-2.8005803,-0.024501082
1614,A,81311825773000,-8.097562,18.978136,-1.5040723,1.1174624,-2.3180156,0.47404268
1614,A,81311845575000,-9.987232,14.841937,7.534732,0.8426242,1.7491642,0.46871635
1614,A,81311865319000,-9.812395,9.1202345,5.6738014,-0.81705785,7.2970614,0.20985709
1614,A,81311885108000,-6.016289,3.8464015,0.07664063,-1.0567423,4.4975467,-0.22690132
1614,A,81311904852000,-0.74006104,4.4738965,0.45505372,-1.6266588,-3.7710361,-0.3206446
1614,A,81311924663000,1.8705103,8.274793,2.435735,-3.1627703,-5.932458,-0.21837921
1614,A,81311944407000,1.1999048,9.453142,0.31374758,-2.408563,-1.4647386,-0.624245
1614,A,81311964220000,-1.341211,9.570498,-3.652405,-0.3653857,4.85441,-0.38029942
1614,A,81311983964000,-1.7483643,10.229129,-3.0895753,0.79681784,6.4065003,-0.17150758
1614,A,81312003755000,-2.1627028,11.048225,-0.44307864,-0.3121225,0.5997439,-0.24394555
1614,A,81312023499000,-3.666775,10.473421,-0.34967285,-0.78296936,-2.15503,0.6498113
1614,A,81312043324000,-3.8320315,7.709568,-0.8646021,-0.018109497,-0.17896444,0.43675843
1614,A,81312063068000,-2.7279274,5.0630717,1.4585669,0.45486793,-0.12676647,-0.23329292
1614,A,81312082951000,-0.96040285,3.2069314,3.2308815,-1.6927053,1.3401027,-0.7350325
1614,A,81312102695000,1.4082716,3.532654,3.5949244,-0.84155893,1.2602079,-0.7286409
1614,A,81312122481000,1.7363893,5.736072,2.304009,0.7052051,-2.7462518,0.13209279
1614,A,81312142225000,0.87418216,7.647298,0.91010743,-0.070307456,-1.0290455,-0.2066613
1614,A,81312162036000,-0.17483643,9.383687,0.09580079,1.4263891,1.6223978,-0.5006743
1614,A,81312181780000,-0.84065187,10.698553,-1.3052857,2.5108283,2.0804615,0.4527374
1614,A,81312201592000,-0.8430469,10.92608,-3.396138,-0.0628506,-0.07563378,1.1046792
1614,A,81312221336000,-1.22146,10.38241,-2.7375073,-1.0748519,-3.1872714,0.18002969
1614,A,81312241152000,-2.071692,10.847044,2.299219,0.93423694,-2.4863272,-0.8809737
1614,A,81312260896000,-2.2106032,12.576248,5.8845634,2.2455776,-0.035153728,-0.6860303
1614,A,81312280698000,-1.8489552,14.113851,5.951624,0.79894835,1.1526161,0.066046394
1614,A,81312300442000,-1.0538087,14.470709,3.5063088,-0.3270362,0.65726817,0.14807177
1614,A,81312320261000,-0.3065625,13.953384,-4.0835085,0.5997439,-1.7289242,0.094808534
1614,A,81312340005000,0.5460645,13.40253,-10.451866,1.4189322,-4.0490704,0.41971418
1614,A,81312359821000,0.7065308,12.420572,-11.038646,1.4753913,0.6135923,0.50600064
1614,A,81312379565000,-1.585503,11.845767,-8.327483,1.4796523,5.515939,0.23542345
1614,A,81312399373000,-5.750442,12.351116,-7.793394,-0.14487597,5.7492323,-0.01917476
1614,A,81312419117000,-7.7646537,13.172608,-7.151529,-2.0431771,1.1653993,-0.27377295
1614,A,81312438916000,-8.432864,13.481565,-4.897815,-2.139051,-5.9835906,0.13954964
1614,A,81312458660000,-10.44468,14.156961,1.951941,-2.835734,-7.7316895,0.084155895
1614,A,81312478465000,-9.79563,14.020445,1.7387843,-2.9145637,-2.2061627,0.23116238
1614,A,81312498209000,-5.357659,12.149935,-3.420088,-0.8032094,5.6331186,0.128897
1614,A,81312518022000,-1.6836988,9.513018,-4.495452,1.3784522,7.2714953,-0.12357068
1614,A,81312537766000,1.4705421,6.2893214,-3.4991236,0.70200926,1.1100056,-0.71159667
1614,A,81312557579000,3.9613624,4.0906935,-0.57001466,-0.7914915,-3.1361384,0.5699165
1614,A,81312577323000,4.4762917,3.417693,0.07185059,0.033023197,-1.4402375,0.85753787
1614,A,81312597116000,3.7649708,3.0009596,-1.0083033,0.8543421,0.39095205,0.30253512
1614,A,81312616860000,2.6057813,2.9027638,-1.4034815,-0.6540724,1.3720607,-0.77231675
1614,A,81312636661000,1.8944606,3.7194655,0.5029541,-1.3464943,3.750796,-1.0450244
1614,A,81312656405000,0.9867481,5.728887,2.7231374,0.37284255,-2.7739487,0.5581986
1614,A,81312676249000,-2.3950195,8.145462,5.4127445,0.37390783,-5.583051,-0.084155895
1614,A,81312695993000,-5.5396805,9.050779,6.0450296,1.2964269,-0.8319715,-1.6138756
1614,A,81312715949000,-6.8832865,9.359736,3.5637891,2.3158848,3.3119073,-0.43036684
1614,A,81312735693000,-4.6104126,9.592053,2.0190015,0.47297743,1.4530207,1.8152106
1614,A,81312755507000,-1.84177,10.327325,4.0595584,-1.067395,-3.0722227,1.2271847
1614,A,81312775251000,0.6945557,13.862373,6.715635,-0.22796659,-3.7103162,-1.1675298
1614,A,81312795034000,3.3482375,17.902771,7.28565,1.3859091,-2.1049626,-1.3869743
1614,A,81312814778000,4.5768824,15.30657,3.3290772,1.2314457,-0.4346279,0.16831179
1614,A,81312834512000,-0.14849122,12.624148,-6.8808913,0.56245965,1.284709,0.10759171
1614,A,81312854256000,-6.1504107,14.427598,-6.4282327,0.60080916,1.6021577,-0.36325517
1614,A,81312874075000,-8.911868,15.076649,6.332432,0.47404268,0.23116238,0.33981937
1614,A,81312893819000,-12.27208,12.798985,7.6377177,1.4466292,1.2186625,1.1558119
1614,A,81312913607000,-10.684182,6.933582,1.3939015,1.2953615,4.1417484,0.81066626
1614,A,81312933351000,-5.326524,5.221143,-0.4143384,-1.3646038,5.3636065,-0.58056915
1614,A,81312953175000,-0.2562671,8.044871,1.2597803,-2.3393207,-2.417085,-0.59228706
1614,A,81312972919000,1.5064673,9.0076685,-0.1460962,-2.3212113,-7.891479,-0.070307456
1614,A,81312992687000,0.59156984,8.528665,-2.5770411,-2.731338,-3.8967373,0.101200126
1614,A,81313012431000,-0.36883304,8.710687,-3.523074,-1.1206582,3.7561226,-0.15978967
1614,A,81313032253000,-0.81909674,9.639954,-1.5447876,0.7254451,5.9526978,-0.41545314
1614,A,81313051997000,-2.215393,10.0063925,0.8430469,0.35579833,1.8311896,-0.5113269
1614,A,81313071745000,-4.2511597,8.909473,0.100590825,-0.5816344,-0.86499476,0.2876214
1614,A,81313091489000,-4.7157936,6.7874856,-1.1352394,-0.30040458,0.9715212,0.5933523
1614,A,81313111302000,-2.7542725,4.981641,1.1591895,0.6775082,0.6785734,-0.23116238
1614,A,81313131046000,0.050295413,4.3421707,2.9530592,-1.6586168,0.07456851,-1.2751216
1614,A,81313150862000,1.9255958,5.398374,3.2284865,-1.3443637,-0.86392945,-0.6178534
1614,A,81313170606000,1.214275,7.1275783,1.5447876,0.8948221,-2.005893,0.3110572
1614,A,81313190481000,0.488584,8.8951025,0.13172609,0.06711166,-0.9044095,0.15446335
1614,A,81313210225000,0.64186525,10.023157,-0.75203615,1.3688648,0.8948221,-0.99069595
1614,A,81313230045000,1.0346485,9.857901,-2.8596535,2.7196202,3.4408042,-0.099069595
1614,A,81313249789000,1.8944606,9.10347,-3.1015503,0.12676647,2.1859226,1.1558119
1614,A,81313269606000,0.4526587,9.766891,0.8430469,-0.96939063,-2.5268073,0.77444726
1614,A,81313289350000,-0.732876,11.785892,5.3959794,0.3717773,-3.5995286,-0.5858955
1614,A,81313309230000,-1.4441968,13.922249,7.6329274,1.6223978,-2.2732744,-0.73609775
1614,A,81313328974000,-3.2404616,15.009588,4.7014236,1.067395,-0.8181231,0.1768339
1614,A,81313348788000,-3.3314724,14.973662,-3.2811768,-0.002130529,0.4101268,0.14594123
1614,A,81313368532000,-2.1818628,14.712605,-9.297466,0.5475459,0.1768339,-0.28975195
1614,A,81313388333000,-0.6730005,13.512701,-12.854071,0.88949585,-1.015197,0.22370553
1614,A,81313408077000,-0.5245093,12.906761,-14.240787,1.0887003,1.4317155,0.91186637
1614,A,81313427883000,-2.4860303,13.258829,-11.472144,1.6745957,4.3398876,1.1632688
1614,A,81313447627000,-6.840176,13.088782,-8.672366,0.058589544,5.1857076,0.2545982
1614,A,81313467435000,-9.496253,12.506792,-4.351751,-2.4628913,-1.6437031,-0.58483016
1614,A,81313487179000,-10.729688,12.09485,8.832832,-2.485262,-7.4547205,-0.5550028
1614,A,81313507018000,-9.237591,11.00751,4.6990285,-2.3904533,-5.591573,-0.29188246
1614,A,81313526762000,-4.3278003,9.833951,-3.0919704,-1.3390374,1.4189322,0.25353295
1614,A,81313546595000,-0.9148975,8.734636,-2.823728,0.42397526,5.888782,-0.15446335
1614,A,81313566339000,2.2800586,6.7755103,-1.3795313,0.3153183,4.3121905,-0.8681905
1614,A,81313586134000,3.8823268,5.4486694,-1.4585669,-0.51665324,-0.75420725,-0.19920446
1614,A,81313605878000,3.182981,5.2666483,-3.1255007,-0.49428272,-0.7105314,0.80747044
1614,A,81313625657000,1.0681788,4.869075,-3.5110989,0.48149952,0.51771855,0.6775082
1614,A,81313645401000,0.23471193,4.4283915,-1.7627344,0.17789917,0.28016454,-0.47617322
1614,A,81313665212000,-0.60354495,4.8211746,1.1783496,-2.207228,1.8791265,-1.4956313
1614,A,81313684956000,-3.5877395,6.4282327,5.9707837,-0.24181503,-0.32384038,-0.15233281
1614,A,81313704758000,-6.0402393,7.800579,8.293953,0.4527374,-4.5497446,0.5273059
1614,A,81313724502000,-5.879773,8.1143265,6.8042507,0.3174488,-2.7931235,-0.7307714
1614,A,81313744308000,-3.891907,8.253238,3.906277,2.1976407,1.5116103,-1.0120013
1614,A,81313764052000,-1.7244141,9.275911,1.0777588,2.0026972,3.4226947,0.6892261
1614,A,81313783863000,0.80712163,11.371553,2.8788135,-0.76912093,-0.4133226,1.4413028
1614,A,81313803607000,2.0213966,14.693445,5.5780005,-0.7957525,-3.746535,-0.035153728
1614,A,81313823547000,6.444998,14.365328,4.311035,1.015197,-3.037069,-1.1728562
1614,A,81313843291000,5.391189,13.2564335,-4.996011,1.748099,-0.10546118,-0.49428272
1614,A,81313863108000,-3.2548318,18.750608,-9.841136,0.29294774,2.0314593,0.18748654
1614,A,81313882852000,-13.000167,19.133812,4.404441,-0.056459017,1.5712651,-0.26312032
1614,A,81313902628000,-14.509029,13.289964,9.2184305,1.3401027,-1.4040185,-0.11717909
1614,A,81313922372000,-8.610096,5.9133034,3.906277,1.7310548,-2.0431771,0.9235843
1614,A,81313942188000,-3.2165112,2.9410841,1.4465919,1.5233282,2.1774006,1.0950918
1614,A,81313961932000,1.5807129,5.6761966,2.4069948,-0.26525086,7.9159803,0.08628642
1614,A,81313981748000,3.4009278,8.064031,-0.4143384,-1.3347764,3.3896716,-0.5390238
1614,A,81314001492000,1.8441651,8.432864,-4.790039,-2.2530344,-7.1127706,-0.10439592
1614,A,81314021275000,-0.33290774,9.321417,-5.278623,-3.4248252,-8.976984,0.094808534
1614,A,81314041019000,-1.705254,10.820699,-2.2106032,-2.4543693,-1.8887138,-0.0628506
1614,A,81314060837000,-4.0906935,12.221786,0.52690434,0.257794,5.59903,-0.5187838
1614,A,81314080581000,-5.47262,10.676997,0.5963599,0.9736517,6.321279,-0.7595336
1614,A,81314100360000,-4.792434,7.1227884,1.4394068,-0.09054748,1.1259845,-0.9981528
1614,A,81314120104000,-3.06802,4.392466,2.8261232,-0.6625945,-1.1323761,0.23116238
1614,A,81314139921000,-0.2778223,3.051255,3.159031,0.08948222,0.51665324,0.5475459
1614,A,81314159665000,2.0285816,3.9661524,2.955454,0.5699165,0.036218993,-0.17150758
1614,A,81314179570000,1.7387843,6.0570045,1.6142433,-1.9153455,0.6785734,-0.77870834
1614,A,81314199360000,1.1088941,7.932305,0.27303225,-0.6988135,1.7875137,-0.48682585
1614,A,81314219099000,0.4167334,9.6758795,-0.5460645,0.83516735,-2.1880531,0.41225734
1614,A,81314238843000,-0.4622388,10.921289,-2.3135889,-0.023435818,-3.0072415,-0.3685815
1614,A,81314258647000,-0.32572266,10.859019,-3.3482375,1.1121361,-0.10972224,-0.78723043
1614,A,81314278391000,-0.72569096,11.2302475,-0.60594,2.650378,3.6304212,0.5219796
1614,A,81314298286000,-1.9303858,12.837305,2.4716604,0.6668556,1.6841831,1.6895094
1614,A,81314318030000,-1.4298267,13.615686,4.2343946,-1.1813782,-3.5718317,0.63383234
1614,A,81314337834000,-1.0274634,13.608501,5.1636624,0.11930962,-4.3963466,-1.2229236
1614,A,81314357578000,-0.78556645,13.268409,1.1903248,1.5499598,-1.5861788,-0.86499476
1614,A,81314377389000,-0.047900394,12.988192,-5.7863674,0.9491506,1.4125407,0.31318775
1614,A,81314397133000,-0.43589357,12.432547,-10.38241,0.61891866,2.625877,-0.11930962
1614,A,81314416661000,-0.6993457,11.61824,-9.687855,0.92464954,-0.43249738,-0.0031957934
1614,A,81314436405000,-2.6441016,11.9128275,-8.035291,0.53795856,-3.0115025,0.64341974
1614,A,81314456222000,-6.0737696,13.6923275,-7.556287,1.5947009,1.0695255,0.72651035
1614,A,81314475966000,-8.095166,14.784456,-6.461763,0.93423694,7.563378,-0.07243799
1614,A,81314495783000,-10.585987,14.259947,-2.0046315,-1.9451729,5.3774548,-1.0354371
1614,A,81314515527000,-9.493857,13.924644,3.4847536,-2.7142937,-6.226471,-0.09161274
1614,A,81314535327000,-4.897815,13.263618,0.7783814,-2.3542345,-9.947439,0.31851408
1614,A,81314555071000,-2.0237916,11.263778,-3.915857,-2.6951191,-3.9159122,0.6775082
1614,A,81314574887000,0.613125,7.9682302,-4.8020144,-1.1387677,4.677576,0.406931
1614,A,81314594631000,2.5842261,5.391189,-2.3375392,0.89375687,7.778561,-0.26418558
1614,A,81314614420000,3.551814,4.390071,0.62989014,1.1696603,4.1790323,-0.55287224
1614,A,81314634164000,4.378096,3.9134622,0.1820215,-0.660464,-1.3944311,-0.3472762
1614,A,81314653949000,3.03928,3.4727786,-1.7603394,-0.26418558,-0.84688526,0.89801794
1614,A,81314673693000,1.0035132,3.7027004,-0.44547364,0.8948221,0.2247708,0.011717909
1614,A,81314693512000,0.12454102,5.0774417,3.2284865,-1.9100192,2.0879183,-1.2612731
1614,A,81314713256000,-2.4692652,7.453301,5.8007374,-0.7914915,1.9515644,-1.099353
1614,A,81314733064000,-4.799619,8.061636,5.271438,0.28336033,-3.1808796,0.43036684
1614,A,81314752808000,-4.1218286,7.4676714,3.3171022,-0.25246766,-3.6964676,0.25246766
1614,A,81314772629000,-1.6765138,7.4748564,4.0811133,2.066613,0.23542345,-0.73822826
1614,A,81314792373000,0.09580079,9.22801,4.071533,3.06157,4.9769154,0.004261058
1614,A,81314812435000,0.6514453,13.103152,3.5709743,-0.035153728,2.698315,1.0066749
1614,A,81314832179000,1.5423926,17.277672,5.865403,-1.0684602,-4.1065946,0.45380265
1614,A,81314852015000,3.908672,16.901653,6.3012967,0.660464,-5.362541,-0.7456851
1614,A,81314871759000,0.86939216,14.722186,-2.7806177,1.4391723,-2.1060278,-0.45486793
1614,A,81314891591000,-4.5601172,15.637083,-7.6401124,0.6945524,1.4274544,0.20240025
1614,A,81314911335000,-9.572893,15.318545,4.296665,0.40586576,2.7590349,-0.20879184
1614,A,81314931367000,-11.249407,12.114009,9.220825,1.2900352,-0.6711166,-0.13848437
1614,A,81314951111000,-9.541759,6.844966,2.5387208,1.2580773,-2.7451866,0.4165184
1614,A,81314970917000,-3.7074904,4.4331813,0.6179151,1.6128104,2.3542345,0.81066626
1614,A,81314990661000,0.48618898,6.502478,2.0812721,1.0258497,6.7580376,0.47617322
1614,A,81315010424000,2.5914114,8.52148,-0.40954837,-1.9206718,4.197142,-0.6103965
1614,A,81315030168000,1.7268091,9.086704,-3.297942,-2.534264,-5.3817163,-0.5006743
1614,A,81315049999000,-0.58198977,10.516531,-3.9709425,-2.0676782,-9.387111,-0.50813115
1614,A,81315069743000,-1.8776954,11.833792,-2.0046315,-2.3116238,-4.3430834,0.5795039
1614,A,81315089559000,-3.5015187,11.577525,-0.852627,-0.92997587,4.6669235,0.7861652
1614,A,81315109303000,-3.8344264,9.350157,-0.2083667,0.8223842,6.8453894,-0.36325517
1614,A,81315129028000,-3.3841627,6.6126494,0.8430469,0.1949434,2.1720743,-1.0748519
1614,A,81315148772000,-2.1195924,4.351751,3.182981,-0.4048005,-1.9387813,-0.09054748
1614,A,81315168601000,-0.17244141,2.7518775,2.9338992,-0.36432046,-0.32490566,0.721184
1614,A,81315188345000,1.6932789,3.527864,2.3830445,0.11504856,-0.2545982,0.8490158
1614,A,81315208090000,1.3196558,5.9468336,1.6453785,0.22690132,-0.43569317,-0.13209279
1614,A,81315227834000,0.22273682,8.626861,0.70174074,-1.75236,3.5452,-1.4466292
1614,A,81315247650000,-0.6777906,10.494976,-0.5748047,-0.7414241,-0.10439592,-0.25885928
1614,A,81315267394000,-0.40954837,10.775193,-2.8907888,-0.20133498,-5.442436,0.45912898
1614,A,81315287209000,0.4239185,10.466236,-3.302732,0.64768076,-2.2285333,-0.958738
1614,A,81315306953000,-0.62989014,11.682906,-0.21555176,2.7846012,4.08955,-1.1728562
1614,A,81315326737000,-0.98435307,13.46959,3.3482375,1.5712651,5.138836,0.6924219
1614,A,81315346481000,-1.2022998,14.202466,5.0415163,-1.2825783,-1.7971011,1.490305
1614,A,81315366294000,-1.7387843,14.446758,2.4932153,-0.8319715,-5.349758,-0.07669904
1614,A,81315386038000,-0.028740235,14.250367,-2.2680836,0.8724516,-3.4450653,-1.4168017
1614,A,81315405889000,0.27303225,13.883929,-7.055728,1.8546255,-0.16405073,-0.6359629
1614,A,81315425633000,-0.87897223,13.134288,-9.606423,1.0684602,1.929194,0.23009712
1614,A,81315445450000,-2.4022048,13.175003,-9.4507475,0.42077947,0.9395633,-0.029827405
1614,A,81315465194000,-5.6809864,13.848003,-10.550061,0.57311225,-2.8378644,-0.024501082
1614,A,81315485009000,-7.422166,13.371394,-8.653206,0.74248934,-1.3496901,0.5901565
1614,A,81315504753000,-9.611214,11.56555,-2.215393,1.3422332,3.7188382,0.75101143
1614,A,81315524555000,-10.43031,9.800421,7.2185893,0.8159926,6.413957,0.53476274
1614,A,81315544299000,-5.6977515,8.705896,4.0787187,-1.0791129,1.4530207,0.07669904
1614,A,81315564108000,-2.6896071,9.319021,-1.5256275,-2.4106934,-7.395066,0.0
1614,A,81315583852000,-2.184258,10.432706,-3.9757326,-3.1041806,-8.124772,-0.10865697
1614,A,81315603637000,-0.76880133,9.826766,-4.89542,-2.2349248,-1.3390374,0.023435818
1614,A,81315623381000,2.0190015,7.34313,-5.4366946,0.3749731,5.4562845,0.12144015
1614,A,81315643198000,4.404441,4.6032276,-3.1255007,0.8117315,5.1228566,-0.36112466
1614,A,81315662942000,4.960086,2.7422974,0.9699829,-0.65726817,-0.5486112,-0.3323625
1614,A,81315682761000,1.5328126,2.8476784,2.4069948,-0.608266,-1.9813919,0.5251754
1614,A,81315702505000,-1.2813355,5.4223247,3.4679885,-0.17896444,1.071656,0.68176925
1614,A,81315722311000,-2.7662477,7.8748245,6.1144853,0.38029942,2.9720879,-0.31638354
1614,A,81315742055000,-3.5637891,8.413704,6.70845,-1.2964269,2.6269422,-2.179531
1614,A,81315761898000,-2.0621119,8.631651,5.0846267,-0.43675843,-1.7374463,-0.07989483
1614,A,81315781642000,-0.244292,9.965676,3.0225148,-0.051132694,-4.13003,0.84581995
1614,A,81315801459000,0.75203615,11.53681,2.1698878,0.48043427,-1.7182716,-0.28122982
1614,A,81315821203000,1.8657203,12.066109,2.5459058,1.8780613,2.1603563,-0.61891866
1614,A,81315841015000,3.1087356,12.75348,6.2725563,2.3031018,5.5574846,0.94488955
1614,A,81315860759000,3.0249097,13.51749,7.932305,0.61891866,2.4841967,1.0013486
1614,A,81315880574000,-1.7387843,13.97015,-3.4943337,-0.8522116,-3.2597091,-0.2130529
1614,A,81315900318000,-11.383529,16.266973,-6.3012967,-0.1107875,-4.8682585,-0.75420725
1614,A,81315920113000,-12.396622,17.093256,5.7863674,1.2687299,-2.5768747,-0.48469532
1614,A,81315939857000,-10.902129,12.370276,5.927674,1.3507553,0.25353295,0.05539375
1614,A,81315959666000,-6.332432,7.223379,1.3651612,0.43356264,1.5030881,-0.11717909
1614,A,81315979410000,-0.7711963,5.733677,0.7568262,0.36112466,0.21411815,-0.25672874
1614,A,81315999184000,3.0009596,6.871311,0.8143067,0.25672874,-1.4583471,0.2130529
1614,A,81316018928000,3.0919704,8.49274,-1.6310084,0.6040049,0.5454154,0.71159667
1614,A,81316038870000,0.5005591,9.685459,-4.27032,0.72437984,3.3736925,1.1930962
1614,A,81316058614000,-0.5676197,10.763218,-3.1326857,-0.46232477,4.8639975,0.56885123
1614,A,81316078430000,-1.3292359,11.151212,-0.3784131,-1.530785,-0.34301516,-0.50173956
1614,A,81316098174000,-2.44292,10.257869,0.8262818,-2.352104,-5.82167,-0.12250541
1614,A,81316117953000,-3.271597,8.253238,-0.22513184,-2.6557043,-4.3856936,-0.04261058
1614,A,81316137697000,-3.4943337,6.303692,-0.5005591,-1.397627,0.6593987,-0.22796659
1614,A,81316157518000,-1.8753004,4.152964,1.2286451,0.20133498,5.225122,-0.10013486
1614,A,81316177262000,-0.100590825,2.9171338,2.311194,0.76059884,5.529788,-0.37390783
1614,A,81316197078000,0.78556645,4.27032,2.1818628,-0.1555286,0.32170987,-0.33981937
1614,A,81316216822000,0.3520679,6.5791187,2.1291726,-0.2727077,-1.4679344,0.5837649
1614,A,81316236597000,-0.2562671,8.744217,2.1650977,0.83729786,0.40586576,0.46871635
1614,A,81316256341000,-0.57719976,10.32014,0.9436377,-0.9033443,2.2732744,-1.1153319
1614,A,81316276148000,-0.5292993,11.088941,-1.9758912,-1.6575515,1.1867046,-1.0418286
1614,A,81316295892000,-0.8262818,11.383529,-4.0835085,0.09267801,-4.244014,0.6018744
1614,A,81316315674000,-0.81909674,12.296031,-2.2944288,0.21092236,-3.7273602,-0.12783173
1614,A,81316335418000,-0.36164796,13.903089,2.4213648,1.8301244,1.5009576,-1.5947009
1614,A,81316355225000,-0.9915381,15.217955,5.815108,2.835734,4.383563,-0.49747851
1614,A,81316374969000,-1.4370118,14.743741,1.7220191,-0.2695119,-0.026631612,1.2634037
1614,A,81316394776000,-0.42152345,13.462405,-5.50136,-1.1899004,-4.8480186,0.71798825
1614,A,81316414520000,-0.7161109,12.645703,-9.77647,0.32384038,-4.5667887,-0.8404937
1614,A,81316434464000,-1.4154567,11.764337,-8.8951025,1.7768611,-1.3805827,-0.81705785
1614,A,81316454208000,-3.5757644,12.329561,-6.7898808,1.0663297,1.5393071,0.25992453
1614,A,81316474024000,-5.767207,13.309124,-6.2605815,0.46978164,1.780057,0.060720075
1614,A,81316493768000,-6.109695,13.3618145,-5.8917484,1.087635,-0.18002969,-0.056459017
1614,A,81316513563000,-5.7145166,12.695999,-2.692002,0.2908172,-1.9366508,0.56245965
1614,A,81316533307000,-6.1480155,12.545113,3.6452198,0.6348976,0.8543421,1.0524813
1614,A,81316553125000,-5.489385,11.922408,1.4825171,1.5393071,5.4243264,0.95660746
1614,A,81316572869000,-3.3482375,10.87818,-3.7194655,-0.31957933,5.7375145,-0.21518342
1614,A,81316592685000,-0.62510014,9.168135,-3.9901028,-2.4192157,-3.1925976,-0.18429075
1614,A,81316612429000,2.0381618,6.6844997,-1.2070899,-2.9933932,-9.477658,0.2876214
1614,A,81316632263000,3.3386574,4.648733,1.1663746,-3.178749,-6.292517,0.39414784
1614,A,81316652007000,2.5985963,3.7410207,0.90771246,-1.2314457,3.60592,-0.12357068
1614,A,81316671826000,1.7675245,3.04886,-0.3879932,1.2175972,7.5186367,-0.56885123
1614,A,81316691570000,1.3124708,3.1231055,-0.24189699,0.82877576,3.891411,-0.8841695
1614,A,81316711368000,0.5508545,5.4989653,0.8885523,-0.52837116,-1.2697952,-0.41971418
1614,A,81316731112000,-0.5005591,7.999366,3.06802,-0.6466155,-0.314253,0.8149273
1614,A,81316750925000,-2.3902297,8.777747,5.3049684,0.43249738,0.04580637,0.5613944
1614,A,81316770669000,-2.9458742,8.468789,5.4271145,-0.67324716,0.43782368,-0.6593987
1614,A,81316790483000,-1.8106349,8.566985,4.3134303,-1.8588865,2.0815268,-0.8202536
1614,A,81316810227000,-0.6466553,9.484278,4.006868,0.5816344,-2.1358552,0.06711166
1614,A,81316830024000,0.28740236,11.400293,4.2008643,0.16405073,-3.781689,0.386691
1614,A,81316849768000,1.6214283,15.402371,4.24637,0.6359629,-1.0375676,-0.9267801
1614,A,81316869579000,3.1231055,18.000967,2.823728,2.4479778,1.551025,-0.8223842
1614,A,81316889323000,-4.5481424,22.220993,-8.102351,0.7914915,1.6660736,1.2974921
1614,A,81316909111000,-14.271922,20.839066,-0.23471193,-1.2271847,-0.79894835,0.9555422
1614,A,81316928855000,-9.589659,10.971585,11.508069,0.02130529,-2.0644825,-1.0546118
1614,A,81316948669000,-6.950347,4.912185,4.8163843,1.8588865,-1.8077538,-1.0897655
1614,A,81316968413000,-2.955454,1.9136207,-0.117355965,1.5361114,-0.21092236,-0.0628506
1614,A,81316988226000,1.1496094,3.1853762,1.8537452,0.12783173,1.0546118,0.08841695
1614,A,81317007970000,3.4560134,7.7383084,1.2022998,0.36432046,-0.53795856,-0.0010652645
1614,A,81317027767000,3.6859353,10.985955,-3.8727467,0.9321064,-0.94595486,0.34940675
1614,A,81317047511000,0.37122804,11.771522,-5.7648125,1.0130665,2.5811357,0.59228706
1614,A,81317067325000,-1.583108,13.404925,-5.206773,1.1994878,4.861867,1.0982877
1614,A,81317087069000,-3.8703518,14.578485,-3.0536501,-0.18109496,4.3121905,0.624245
1614,A,81317106881000,-6.7731156,12.583433,1.0130934,-2.0527647,-2.988067,-0.24927188
1614,A,81317126625000,-6.67971,7.3551054,4.3709106,-2.896454,-7.839281,-0.22903186
1614,A,81317146576000,-3.3386574,2.7063723,4.727769,-2.8229508,-4.9364357,-0.19281286
1614,A,81317166320000,-0.9627979,-0.17004639,1.6286134,-0.737163,2.1560953,-0.06178534
1614,A,81317186143000,1.7962648,-0.24908204,0.59156984,0.9139969,5.9473715,-0.3834952
1614,A,81317205887000,3.396138,2.5530908,1.9351759,-0.053263225,3.2405345,-0.7126619
1614,A,81317225669000,1.9255958,5.807923,2.3854396,-0.350472,-0.8809737,0.0628506
1614,A,81317245413000,-0.2203418,9.05557,2.2393434,-0.28016454,0.5997439,0.58909124
1614,A,81317265229000,-1.7411792,12.063714,-0.019160157,0.46552056,2.4756746,0.16724652
1614,A,81317284973000,-1.9974464,12.681629,-5.47741,-0.65194184,1.2463595,-1.0791129
1614,A,81317304789000,-0.96758795,11.450589,-7.573052,-1.788579,1.4093449,-0.98110855
1614,A,81317324533000,-0.2682422,12.322376,-2.2465284,0.6764429,-2.2285333,0.46552056
1614,A,81317344337000,-1.099314,14.156961,4.1960745,0.3206446,-3.6464002,0.08841695
1614,A,81317364081000,-2.9746144,14.525794,5.9947343,0.9108011,0.8628642,-0.9193232
1614,A,81317383894000,-2.943479,13.40253,0.4406836,2.6290727,4.5785065,-0.07563378
1614,A,81317403638000,-0.7783814,12.75348,-6.574329,1.0034791,2.4458473,1.1792477
1614,A,81317423419000,0.043110352,12.549903,-8.49274,-1.2389026,-3.0477216,0.7233146
1614,A,81317443163000,-2.3662794,13.124707,-7.690408,-0.14487597,-4.538027,-0.82344943
1614,A,81317462976000,-5.7791824,13.848003,-9.472302,1.8184065,-1.8919097,-1.0290455
1614,A,81317482720000,-6.631809,13.208533,-8.926238,2.0964406,0.9832391,-0.024501082
1614,A,81317502522000,-6.3012967,12.672049,-4.6966333,1.0130665,1.6714,0.070307456
1614,A,81317522266000,-7.8197393,12.880416,3.515889,0.040480047,-0.44315,0.053263225
1614,A,81317542058000,-8.998089,12.803775,5.1708474,-0.22050974,-2.8325381,0.63702816
1614,A,81317561802000,-6.2773466,12.391831,-1.7771046,0.7882957,0.03834952,1.0524813
1614,A,81317581604000,-3.3266823,11.51765,-4.993616,0.6508766,6.0091567,0.721184
1614,A,81317601348000,-0.51013917,9.295072,-4.3086405,-0.9672601,6.138054,-0.3206446
1614,A,81317621186000,2.201023,6.7300053,-0.95561284,-2.2136195,-4.1907506,-0.3291667
1614,A,81317640930000,3.784131,5.2905984,2.0429518,-3.0146985,-8.142881,0.3717773
1614,A,81317660736000,2.7662477,5.0367265,1.2597803,-2.3798008,-2.880475,0.14807177
1614,A,81317680480000,1.6453785,5.223538,-1.219065,-0.3334278,3.448261,-0.24607609
1614,A,81317700302000,1.4729371,5.4175344,-1.9926564,0.74461985,5.164402,-0.5187838
1614,A,81317720046000,0.5628296,5.465435,1.6741188,-0.084155895,1.6628778,-0.716923
1614,A,81317739841000,-1.3483961,5.4247193,5.721702,-0.97471696,-0.5209143,0.19600865
1614,A,81317759585000,-2.5985963,5.709727,6.2965064,0.010652645,0.10972224,0.8117315
1614,A,81317779396000,-2.4453151,6.473738,5.4510646,0.7414241,0.41438788,-0.13209279
1614,A,81317799140000,-0.92208254,7.5155716,4.775669,-2.0026972,2.0708742,-1.0237192
1614,A,81317818922000,0.2562671,9.366921,3.3458424,-0.21944448,1.0535465,-0.5475459
1614,A,81317838666000,1.0346485,11.855348,1.6573536,0.479369,-3.3204293,0.29507825
1614,A,81317858480000,1.587898,14.257552,1.9351759,0.3153183,-2.3446472,-0.4101268
1614,A,81317878224000,3.1398706,15.304175,3.3817677,2.0314593,2.0090888,-0.5581986
1614,A,81317898031000,0.8646021,16.590302,-0.9316626,2.159291,4.1065946,0.793622
1614,A,81317917775000,-7.436536,18.994902,0.4742139,-0.2876214,0.18322548,1.3369069
1614,A,81317937560000,-11.0123005,15.80713,11.757152,-0.8149273,-4.088485,-0.14274544
1614,A,81317957304000,-8.279583,10.123748,5.822293,0.8852348,-3.7049897,-1.4583471
1614,A,81317977121000,-5.9252787,6.183941,-2.2201831,1.937716,-0.96086854,-0.608266
1614,A,81317996865000,-1.1783496,5.640271,-0.70174074,0.95447695,1.3241237,0.3568636
1614,A,81318016668000,1.6477735,7.862849,2.0860622,0.1949434,1.1195929,-0.029827405
1614,A,81318036412000,1.0825489,10.027947,0.69216067,0.32597092,-2.2327943,0.41864893
1614,A,81318056240000,-1.2717555,10.28661,-2.1603076,1.0471549,-1.2282499,0.9289106
1614,A,81318075984000,-1.7962648,11.01709,-1.331631,1.3667343,4.138552,0.76592517
1614,A,81318095810000,-1.9663111,12.710369,0.84544194,-0.27377295,8.021441,-0.34194988
1614,A,81318115554000,-3.7434156,12.442127,-0.2562671,-1.7939054,-0.17789917,-0.69348717
1614,A,81318135370000,-4.27032,9.354947,-1.1496094,-2.8261466,-8.697885,0.04261058
1614,A,81318155114000,-2.4692652,5.611531,-0.1939966,-2.7611654,-7.0296803,0.14274544
1614,A,81318174963000,-0.7496411,3.3554225,0.613125,-1.3560816,0.10013486,-0.033023197
1614,A,81318194707000,0.76401126,2.0213966,0.62031007,0.5134575,4.321778,-0.18002969
1614,A,81318214531000,1.84177,2.550696,1.5136524,0.9267801,4.1662493,-0.42397526
1614,A,81318234275000,1.3172607,4.9145803,2.3590944,-0.35792887,1.2495552,-0.36325517
1614,A,81318254227000,0.019160157,7.110813,1.6789087,-0.61572284,-0.025566347,0.5113269
1614,A,81318273971000,-0.9580079,9.285491,0.84544194,0.69029135,-0.35473305,0.27483824
1614,A,81318293791000,-1.2981006,11.5823145,-0.50534916,-1.0588728,0.40266997,-0.829841
1614,A,81318313535000,-1.4058765,12.19065,-4.181704,-1.9877834,3.2533176,-0.8543421
1614,A,81318333323000,-1.7435743,11.057806,-5.9037232,1.1664646,-0.56885123,0.111852765
1614,A,81318353067000,-1.4849122,11.029065,-0.6658155,0.38562572,-4.023504,0.15978967
1614,A,81318372899000,-0.9699829,12.250525,5.230723,0.42184472,-1.4636734,-1.0034791
1614,A,81318392643000,-1.1759547,13.34026,6.5407987,2.4980452,1.9867182,-0.22583607
1614,A,81318412463000,-0.9484278,13.390554,3.6548,0.8607337,1.5371766,1.6128104
1614,A,81318432207000,-1.4513819,12.937896,-4.792434,-1.3528858,-1.707619,1.1249193
1614,A,81318451992000,-1.0250684,12.655284,-11.737991,0.0479369,-2.5204158,-1.0354371
1614,A,81318471736000,0.55324954,12.382252,-10.7871685,2.2892532,-0.8543421,-1.2942963
1614,A,81318491565000,-2.1076174,13.828843,-8.871153,1.582983,0.16618125,0.084155895
1614,A,81318511309000,-6.262976,14.595249,-7.3072047,-0.12676647,-0.4676511,-0.05219796
1614,A,81318531121000,-7.436536,14.207256,-5.625901,0.21731395,-1.7108147,-0.041545313
1614,A,81318550865000,-6.962322,13.891114,0.31135255,0.8245147,-1.3624732,0.76272935
1614,A,81318570679000,-7.6329274,13.891114,4.8594947,1.591505,2.2019017,0.87138635
1614,A,81318590423000,-6.365962,12.284056,-1.8082398,1.6468989,5.555354,0.8852348
1614,A,81318610235000,-3.7266505,10.827884,-5.724097,-0.3888215,6.436328,-0.1555286
1614,A,81318629979000,-0.92208254,8.844808,-4.2990603,-1.9504992,-1.9771309,-0.48043427
1614,A,81318649739000,2.9722195,5.527705,-0.47900394,-2.8442562,-8.468852,0.12783173
1614,A,81318669483000,4.2751102,3.68354,1.465752,-3.1031153,-6.6760125,0.16618125
1614,A,81318689297000,2.2129982,4.0356083,0.47181886,-1.3624732,-0.1257012,-0.0958738
1614,A,81318709041000,0.5460645,4.6774735,-0.34488282,0.24927188,5.0205913,-0.45699844
1614,A,81318728905000,0.35925296,5.6450615,0.09580079,-0.24074976,4.6711845,-0.9267801
1614,A,81318748649000,0.7831714,6.5719337,0.9963282,-0.43356264,-0.09267801,-0.19813919
1614,A,81318768458000,-1.1831397,7.0126176,3.166216,-0.10972224,-0.6103965,0.7105314
1614,A,81318788202000,-3.0177248,6.9072366,4.148174,0.60507023,1.24849,0.31957933
1614,A,81318807997000,-3.0799952,7.2185893,3.1398706,-0.80107886,1.6085494,-1.5233282
1614,A,81318827741000,-2.3016138,7.927515,2.7590625,-1.8620822,1.1334413,-1.0812434
1614,A,81318847535000,-1.8202149,8.411309,3.2739918,0.64768076,-2.107093,0.47404268
1614,A,81318867279000,-1.4130616,8.868757,3.767366,-0.054328486,-3.226686,0.2727077
1614,A,81318887085000,0.07903565,10.710527,4.7133985,0.67537767,-0.314253,-0.66152924
1614,A,81318906829000,2.1722827,14.710211,6.444998,2.7132285,3.850931,-0.5230448
1614,A,81318926622000,3.4416432,15.462247,6.840176,1.1334413,4.3856936,0.829841
1614,A,81318946366000,0.1939966,14.001285,-4.406836,-0.92038846,-2.150769,1.2058793
1614,A,81318966148000,-6.0210795,15.500567,-10.289004,0.022370555,-5.527657,-0.18535602
1614,A,81318985892000,-6.567144,14.813196,2.9913795,1.3667343,-3.3704967,-1.139833
1614,A,81319005665000,-8.51669,12.854071,8.626861,1.2112057,0.37603834,-0.22903186
1614,A,81319025409000,-9.754915,8.763377,3.7194655,0.55074173,2.275405,0.06498113
1614,A,81319045204000,-4.6104126,6.0522146,-0.2706372,0.74461985,0.38029942,-0.10652645
1614,A,81319064948000,-0.45744875,7.8436894,-0.011975098,0.35899413,-3.2586439,0.31638354
1614,A,81319084694000,2.088457,9.378897,0.62989014,0.700944,-0.5049353,0.4878911
1614,A,81319104438000,0.97237796,10.063872,-0.7783814,1.8194717,4.38889,0.70840085
1614,A,81319124212000,-1.1543995,10.672208,-2.7662477,-0.04580637,6.66749,0.23435818
1614,A,81319143956000,-2.2177882,11.199112,-2.6225464,-1.9398465,1.5361114,-0.68176925
1614,A,81319163733000,-2.6967921,11.096126,-1.3699512,-2.1166804,-6.4949174,-0.24181503
1614,A,81319183477000,-3.887117,9.999207,-0.8286768,-2.6077673,-7.1362066,0.0628506
1614,A,81319203325000,-4.790039,7.5035963,0.12933107,-1.71188,-1.2144015,0.054328486
1614,A,81319223069000,-3.046465,5.158872,1.8106349,0.36432046,4.342018,-0.10226539
1614,A,81319242878000,-0.39278322,3.9733377,2.572251,0.6775082,4.9172606,-0.608266
1614,A,81319262622000,1.585503,4.679868,2.3016138,-0.3057309,1.0141318,-0.49215218
1614,A,81319282386000,1.5567628,6.5072684,0.6466553,-0.49002165,-0.30999196,0.6114618
1614,A,81319302130000,0.89573735,8.281978,-0.6777906,0.36751625,-0.023435818,0.85966843
1614,A,81319321950000,0.3784131,9.869876,-0.51971924,0.350472,-0.18748654,-0.40053943
1614,A,81319341694000,0.06227051,11.163186,-1.0130934,-2.7856665,2.2370553,-1.2591426
1614,A,81319361654000,-0.1460962,11.55597,-2.2680836,-0.5752428,0.9672601,-0.49747851
1614,A,81319381398000,-0.9268726,11.148816,-1.4274317,0.7584683,-3.9414785,0.4644553
1614,A,81319401220000,-1.705254,10.777588,1.5399976,0.22796659,-2.2967103,-0.44528055
1614,A,81319420964000,-0.8669971,10.765614,2.8548634,2.0687435,2.2903185,-0.8426242
1614,A,81319440763000,0.59156984,10.950029,3.3745828,1.8556907,4.7468185,0.5496765
1614,A,81319460507000,1.1999048,11.306888,3.6452198,-0.8873653,0.52411014,1.551025
1614,A,81319480361000,0.73048097,11.824212,-0.028740235,-0.91612744,-4.321778,0.37390783
1614,A,81319500105000,-0.7927515,12.490027,-5.822293,0.99921805,-3.8562574,-1.3507553
1614,A,81319519959000,-2.304009,13.182188,-7.0245924,2.034655,-1.1685951,-0.9129316
1614,A,81319539703000,-2.4836354,13.036092,-4.806804,0.9214538,1.2740563,0.35473305
1614,A,81319559478000,-4.543352,13.292359,-4.0811133,-0.14061491,2.2295985,-0.029827405
1614,A,81319579222000,-7.436536,13.776153,-7.0341725,0.36218992,-0.8479505,-0.10226539
1614,A,81319599087000,-7.2640944,13.5725765,-8.236472,1.0237192,-2.783536,0.38456047
1614,A,81319618831000,-5.503755,13.371394,-2.8644435,1.7917749,0.96086854,0.6945524
1614,A,81319638650000,-5.0510964,12.542718,3.791316,0.7435546,5.9750686,0.39414784
1614,A,81319658394000,-3.2811768,10.471025,2.684817,-1.9568908,5.953763,-0.7669904
1614,A,81319678244000,-1.9208057,8.859178,-1.3795313,-2.2306638,-3.1009848,-0.5837649
1614,A,81319697988000,-1.4250367,8.361013,-2.2656887,-1.7864485,-8.693624,-0.07989483
1614,A,81319717759000,0.0023950196,8.059241,-0.7879615,-2.31695,-5.1899686,0.42397526
1614,A,81319737503000,1.6094532,7.9802055,-0.6562354,-1.3752564,3.319364,0.572047
1614,A,81319757287000,2.4333398,7.6089773,-2.440525,0.74675035,6.8368673,-0.041545313
1614,A,81319777031000,1.0059083,6.7371902,-2.2393434,0.63702816,3.9713058,-0.6498113
1614,A,81319796897000,-1.7339942,7.0269876,0.18681154,-0.28975195,-1.530785,-0.2876214
1614,A,81319816641000,-3.6140847,7.94428,4.1960745,-0.043675844,-1.8471686,0.47723848
1614,A,81319836467000,-4.129014,8.078402,5.6594315,0.4101268,-0.7669904,0.5209143
1614,A,81319856211000,-3.3530276,7.055728,3.9014869,-0.84581995,1.2825783,-0.8085357
1614,A,81319875982000,-1.9878663,6.559959,2.8476784,-1.6969663,2.3190808,-1.1824435
1614,A,81319895726000,0.021555176,6.809041,1.7148341,0.19068234,-2.4511735,0.37710363
1614,A,81319915538000,1.9567311,7.3096,1.8920655,-0.5230448,-4.08955,1.4828482
1614,A,81319935282000,2.4333398,7.8484793,2.9099488,0.5581986,-0.85540736,1.0333065
1614,A,81319955072000,1.7699195,9.005274,3.4368532,3.2522523,1.562743,0.5944176
1614,A,81319974816000,0.97237796,11.345208,3.1374757,1.1877699,2.6684875,0.3121225
1614,A,81319994588000,0.3161426,14.05637,2.8548634,-1.0034791,0.70840085,-1.0588728
1614,A,81320014332000,0.7879615,15.275435,2.7782228,0.5933523,-1.5425029,-0.78936094
1614,A,81320034117000,-0.07424561,14.521004,1.4082716,2.2253375,-2.122007,-0.55606806
1614,A,81320053861000,-4.0523734,14.777271,-3.2189064,0.5837649,-1.7555559,-0.28655612
1614,A,81320073682000,-8.533455,15.948436,2.1004322,-0.6689861,-1.4956313,0.12144015
1614,A,81320093426000,-8.040081,13.582156,9.333391,0.5784386,-1.5382419,-0.11504856
1614,A,81320113255000,-6.991062,8.739427,2.2201831,1.9004318,-0.47404268,-0.0031957934
1614,A,81320132999000,-4.1864944,4.7804594,-3.4560134,1.9643476,4.240818,0.46871635
1614,A,81320152770000,-1.6286134,4.718189,-2.6297317,1.3273195,5.8067565,0.43888897
1614,A,81320172514000,0.23950197,7.072493,1.3100758,-0.4463458,3.8179078,-0.056459017
1614,A,81320192370000,-0.16046631,9.616004,3.4560134,-1.7960359,-2.340386,-0.2428803
1614,A,81320212114000,-2.4501052,11.838582,1.7699195,-2.1731396,-7.466439,-0.1470065
1614,A,81320231922000,-3.8368216,13.048067,-0.69695073,-3.137204,-6.2765384,0.16937704
1614,A,81320251666000,-3.1255007,12.87802,-4.8906302,-1.8887138,-0.3291667,-0.002130529
