Subject-Id,Activity Label,Time stamp,Accel_x,Accel_y,Accel_z,Gyro_x,Gyro_y,Gyro_z
1603,A,8484762049269,8.482059,7.6464815,1.5041572,-0.020240024,-0.004261058,-0.023435818
1603,A,8484789903905,9.111733,2.6743233,1.0079589,1.0815097,0.7187872,1.1321098
1603,A,8484830046926,7.800309,6.3769565,-2.532467,0.7709851,0.32756883,-0.3054646
1603,A,8484869932967,3.7487214,9.998186,1.3090298,0.7257114,1.5978967,-1.2836437
1603,A,8484910080259,6.025607,8.734048,3.0765493,3.3803504,-0.65034395,-1.191232
1603,A,8484949974061,6.2045736,9.761759,-2.268506,0.1504686,-2.6186864,0.54195327
1603,A,8484989746456,11.298837,5.9322333,3.9025488,0.33609092,-3.4043188,1.485245
1603,A,8485030583903,-0.17178397,-1.0181342,-0.12389994,0.36778256,-5.3859773,1.7702032
1603,A,8485069517863,8.473679,0.91937345,-5.45878,0.55793226,-0.059388492,1.4351776
1603,A,8485109328486,8.346786,-3.441665,0.7350199,-0.06231797,-0.1257012,0.8498147
1603,A,8485149186508,3.4985273,-5.786187,-1.7842789,-0.26897928,0.83223784,-1.0684602
1603,A,8485188971403,13.308768,6.9527617,-3.0573955,-1.1720573,1.2596753,-2.2855248
1603,A,8485230256091,15.548544,7.643489,-1.2850877,-1.0066749,-0.32037827,-0.845021
1603,A,8485271183748,14.584878,10.011354,1.9578584,-1.6293219,2.0248015,-0.561927
1603,A,8485310125154,7.6428905,9.229648,-0.3549404,-0.7454188,2.3262713,-1.1555456
1603,A,8485349970935,10.96305,9.118916,-0.4429273,-0.23409186,1.824798,-0.24980451
1603,A,8485389916768,10.030508,7.743447,0.97982705,-0.8367652,-1.154214,-1.3121395
1603,A,8485428406508,10.01315,3.074155,1.6639702,-1.6458336,-0.262854,-1.3203954
1603,A,8485468255935,4.9667716,5.313332,-1.2120646,-0.6125271,-0.8745821,0.58243334
1603,A,8485507913331,-0.25318682,9.050082,0.26396075,0.53742594,1.1829761,-1.4871092
1603,A,8485548046977,4.3861775,2.5809495,4.644751,1.2564794,4.0996704,0.61838603
1603,A,8485590196768,3.0172927,4.755483,-0.4441244,1.716141,2.5683527,-0.15153387
1603,A,8485627832966,3.7481227,5.3282957,2.3199813,1.4993597,1.732919,-0.18162759
1603,A,8485668841143,1.751957,12.026075,5.2875943,1.8010958,0.31798145,-0.5430186
1603,A,8485707963695,5.9771247,8.278551,5.617396,1.2338426,-1.372327,-0.5550028
1603,A,8485749026872,8.234857,7.9996266,5.0374002,-0.9358348,-1.1667309,0.18402444
1603,A,8485788953956,8.070255,13.280038,-0.8343793,-2.087652,-2.1739385,0.45912898
1603,A,8485828827706,6.047155,7.231686,-0.7074866,-0.14647387,-1.241832,-0.12330436
1603,A,8485867600726,4.0839095,1.9237411,-1.7256209,-0.1933455,-0.7342335,-1.4234596
1603,A,8485907298435,4.348469,4.5406036,-1.9572599,-0.74089146,-2.398443,-2.96543
1603,A,8485949357810,1.590947,5.542577,-6.8450227,1.7757958,1.1930962,-2.186189
1603,A,8485988433801,8.409634,7.9984293,2.7281928,4.245345,3.1489217,-1.7872474
1603,A,8486028378330,5.245696,11.276092,-1.4520833,3.1481228,0.06018744,-2.0482373
1603,A,8486068782394,3.8379054,8.325238,-0.11791443,0.047137953,1.0982877,-2.2120216
1603,A,8486106752810,-1.6705543,9.70789,-3.7792473,1.3946975,0.9606022,-1.1270498
1603,A,8486148052133,1.9243397,8.498817,0.6955156,0.6716492,1.6460999,-0.5267733
1603,A,8486187766352,0.2112883,14.894329,1.9865888,0.6897587,-0.73583144,-0.8404937
1603,A,8486226396352,0.908001,9.709685,-2.5025394,0.66339344,-2.3409185,-0.35952675
1603,A,8486267762446,5.6646814,13.484144,3.7630866,-0.13795175,-0.7222493,-0.8652611
1603,A,8486307705413,4.7524905,14.528614,-6.1303535,-2.9348035,-0.54648066,0.25246766
1603,A,8486346081195,0.5805939,12.326548,-0.31064767,-3.3483925,1.2740563,1.2751216
1603,A,8486386088435,1.7022774,15.50066,1.3024458,-3.7100499,-1.1121361,0.6562029
1603,A,8486425770727,-3.5063083,14.490307,0.065242,-2.437325,-1.4911039,0.42583945
1603,A,8486465581717,1.602918,6.597223,-3.90614,-1.4695324,2.784335,0.2580603
1603,A,8486505534373,0.55246204,4.9601874,0.7044938,-1.2024173,2.7281423,0.09161274
1603,A,8486545618747,1.7298107,5.0062757,-0.736217,-0.5864281,2.8652952,0.32277513
1603,A,8486585559737,-1.6130934,5.6030307,-0.16101007,-0.45247108,1.8900454,0.24740767
1603,A,8486625535049,-2.1745336,4.2850223,0.7044938,0.72917354,0.7888283,0.26498455
1603,A,8486665351404,-1.4036007,3.0418332,5.6545057,1.6801884,-0.46978164,0.25752768
1603,A,8486705596351,-1.7561469,8.456321,9.540894,2.6357305,-1.9379823,-0.13582122
1603,A,8486745465830,7.6734166,19.612701,7.301717,1.1808456,-0.6066681,0.27563718
1603,A,8486785130101,1.2988545,16.253637,0.95468795,-0.6926882,0.111852765,-0.1041296
1603,A,8486824980571,-3.3399115,11.09473,-2.4259248,-0.4498079,-0.5547365,0.3549994
1603,A,8486864863642,-0.74639237,0.31483752,0.23642741,-0.6583334,-3.9273636,-0.5137238
1603,A,8486906518174,-3.1238346,4.238934,-4.385579,0.75127774,-5.93592,-1.6058862
1603,A,8486944939998,-0.58777654,16.366165,-14.466365,0.97897804,0.025300032,-1.3534185
1603,A,8486984805310,3.0873232,11.057621,18.830397,1.865278,1.9603529,-1.3401027
1603,A,8487026493329,6.4224463,6.766014,10.995371,4.261058,-1.4748586,-0.5747102
1603,A,8487066264789,5.006874,9.860519,-3.6978445,1.1182613,-4.4570665,-0.029827405
1603,A,8487105635988,1.3850456,7.7332716,-2.6354175,0.34594464,0.46392268,0.2828277
1603,A,8487146059840,0.7380127,8.00621,2.1003134,0.22610238,0.8825716,0.12170646
1603,A,8487184552913,0.9163807,11.385028,0.45549688,0.56911755,-0.6085323,0.18535602
1603,A,8487225872602,0.032920275,12.8293295,0.23882163,0.50360376,0.6016081,-0.6346313
1603,A,8487265733383,5.0463786,12.904747,2.136825,-1.6402409,-1.1704593,-0.8375642
1603,A,8487305629839,2.5600002,16.31409,-1.5741876,-2.3670175,2.5068336,0.37923414
1603,A,8487345581193,0.9576807,11.643601,-4.4639893,-3.8195057,1.7054884,2.1941786
1603,A,8487385434113,2.1535845,19.612701,7.6285253,-3.1350732,-1.3859091,1.1574098
1603,A,8487425196715,-2.8042088,10.5045595,-7.9828672,-1.0546118,0.5110606,1.2431636
1603,A,8487464772705,3.0059202,4.805163,-3.1723173,-1.6000272,3.0836742,0.34647727
1603,A,8487505026247,-0.94570965,6.6241574,-2.0919337,-1.3869743,4.1127195,0.7254451
1603,A,8487544161766,-1.1139023,3.946243,-0.88525605,-0.968858,3.813913,0.9155948
1603,A,8487584880937,-5.4234653,5.4486046,-1.7088615,-0.023169503,2.427205,0.58269966
1603,A,8487626175985,-2.7443538,3.208829,1.8680758,1.4183996,0.81066626,0.32623723
1603,A,8487666301088,-2.1140802,4.3281183,7.627927,2.9142973,-0.43995422,0.17257284
1603,A,8487704384011,1.5179238,19.612701,12.509704,1.5640745,0.3139867,-0.4607269
1603,A,8487744350098,3.888782,9.112331,3.8576574,-0.659665,-0.27350664,0.67191553
1603,A,8487783034581,-4.1222167,16.703148,-5.4246626,-0.81945467,0.52863747,0.28522456
1603,A,8487824140516,-2.5965118,6.803723,-1.5233108,-1.6732641,-2.4690168,-0.3717773
1603,A,8487864055622,-3.3195608,1.5699978,1.9363106,-0.26418558,-4.4754424,-0.9672601
1603,A,8487903958642,-3.6643257,9.706693,-6.156091,1.9901804,-4.276238,-1.9049592
1603,A,8487942390984,0.7380127,13.682264,-9.293094,1.5390408,0.1222391,-0.8815063
1603,A,8487982499531,4.6160207,8.814254,6.3500214,2.3390543,1.1978899,-0.5552691
1603,A,8488022176766,8.535928,8.034941,8.446744,5.7798586,0.7350325,-0.15659387
1603,A,8488061826402,1.316811,10.619482,-12.334329,1.0074738,-7.3995934,0.22716765
1603,A,8488101695361,2.0649989,8.777742,1.4760253,-0.44900897,1.2767195,-0.26818034
1603,A,8488141605569,2.2014685,8.307879,-0.587178,-0.0031957934,-0.35766253,-0.0010652645
1603,A,8488181557548,-1.0726024,11.926117,1.95307,0.9683254,0.26658243,0.37284255
1603,A,8488221418694,1.9255368,12.287044,3.5625722,-0.7813715,-0.4247742,-0.6623282
1603,A,8488261560934,3.1441853,14.384364,0.5614403,-1.9198729,-0.5211806,-0.35792887
1603,A,8488301593330,2.2092497,12.167333,-4.285621,-3.260242,1.0322412,1.7646105
1603,A,8488341346663,5.121796,19.612701,1.6777369,-3.3414683,2.3385217,2.6357305
1603,A,8488381189215,-5.81372,16.889297,-0.85532856,-1.4767228,-3.4527884,0.57577544
1603,A,8488421458173,-0.88286185,5.647922,-2.7269957,-1.6996294,2.796053,0.7078682
1603,A,8488461400205,1.7603368,2.333748,-4.6040497,-1.6226641,3.9076564,0.015180019
1603,A,8488501113278,0.5710171,4.867412,-2.2559366,-1.3102753,3.7667751,0.45380265
1603,A,8488541295101,-3.1789012,5.5102553,-1.7794905,-0.6266418,2.775014,0.5174522
1603,A,8488580849215,-4.2419267,3.6218286,0.05327099,0.86685896,1.3126721,0.597347
1603,A,8488620999163,-2.594716,2.8257565,3.5212722,1.8815234,-0.51452273,0.133957
1603,A,8488661815413,-3.4991257,8.343194,7.472902,3.3611758,-1.2293152,-0.42344263
1603,A,8488701838225,9.141062,19.612701,10.497976,0.040746365,0.16618125,0.60906494
1603,A,8488740642548,-2.6527755,13.627197,-0.12868834,-0.9936254,1.0327739,0.5605954
1603,A,8488782892964,-5.3821654,12.403162,-4.8901567,-2.1789985,0.16937704,-0.7954862
1603,A,8488821981611,-0.32321724,1.146224,5.3318872,-0.28575718,-1.7811222,-0.96299905
1603,A,8488861931089,-2.7497406,6.7588315,-4.999093,-0.47004795,-5.3947654,-1.3414342
1603,A,8488934920726,1.8770541,17.001825,-9.193734,2.4117587,-0.82824314,-0.89375687
1603,A,8488939892861,2.5258827,10.269928,-1.5676036,3.0895333,0.7803062,-0.30786142
1603,A,8488980771038,3.7181952,6.439804,4.754286,5.083975,0.09267801,-0.1667139
1603,A,8489019571142,-1.5993267,9.809643,3.5930982,2.2295985,-6.9676285,0.67005134
1603,A,8489060818589,3.0765493,9.321824,-1.5711949,0.6058692,-0.7470167,-0.35153726
1603,A,8489101074891,1.0534488,9.988609,2.319383,0.13821806,-0.38722363,-0.7619304
1603,A,8489140979944,1.9806033,12.269087,1.0163386,0.5571333,0.05539375,-0.41065946
1603,A,8489180923432,2.5510218,11.92492,-0.40701428,-0.41252366,-0.4463458,-0.32943302
1603,A,8489221026976,3.357868,12.064383,1.9267339,-1.6365125,-1.2104068,-0.10759171
1603,A,8489260977028,2.0129251,13.626599,-1.1258733,-2.9822078,0.94515586,1.2170646
1603,A,8489302280725,2.1984756,12.090718,-4.187459,-2.9366677,2.582201,2.5664885
1603,A,8489339287860,8.734048,19.612701,7.765593,-2.7939224,-0.27377295,1.4666028
1603,A,8489379118017,-5.467758,10.482413,-2.9191303,-1.593103,-0.6175871,0.9685917
1603,A,8489419051766,1.5951369,4.4220905,-2.4552538,-1.0671287,3.8799596,0.7571367
1603,A,8489458693539,0.7870938,5.354632,-2.5863364,-1.0309097,3.4067156,0.51319116
1603,A,8489498825985,0.25917232,4.0282445,-2.0853498,-0.9731191,3.6778255,0.68869346
1603,A,8489538735933,-6.2351,5.5120506,-1.5568297,-0.076166406,2.4333303,0.5094627
1603,A,8489578685153,-3.9516299,2.867655,1.4173675,1.3627396,0.6556703,0.55287224
1603,A,8489618641089,-3.0759506,3.3620577,6.8348475,2.646117,-1.005876,-0.0026631611
1603,A,8489658190986,7.138911,19.612701,15.67005,1.7811222,0.09667275,-0.68389976
1603,A,8489698356194,3.918111,7.9583263,3.9109285,-0.5768407,0.042077947,0.69721556
1603,A,8489739421559,-4.336498,17.260998,-5.501277,-1.5222629,0.69029135,0.02743056
1603,A,8489780484734,-5.366603,6.247071,2.641403,-1.0508834,-0.619185,-0.8697884
1603,A,8489819584839,-1.1947067,2.8191724,0.31603462,-0.1603223,-3.9939427,-1.2855079
1603,A,8489859527131,-1.5622166,13.618219,-12.217611,1.0351708,-2.8549087,-1.2966932
1603,A,8489899391506,2.0009542,12.551003,-4.36044,2.201369,0.22716765,-0.47723848
1603,A,8489939403746,4.3305125,7.0024414,6.666056,4.0924797,0.30386668,-0.45167214
1603,A,8489977666506,5.905897,7.7087307,11.121067,4.0820932,-1.6498283,-0.21624869
1603,A,8490019106455,2.0667946,9.989806,-5.2061915,1.361408,-7.097857,0.40293628
1603,A,8490059020725,2.9113493,7.3418193,-0.24839842,-0.08841695,0.087618,-0.695884
1603,A,8490098873225,3.3859997,8.9842415,-1.079785,0.18002969,-0.24607609,-0.43862265
1603,A,8490137138537,2.1853075,11.850101,1.9027919,0.37390783,0.047404267,-0.096939065
1603,A,8490177158953,2.681506,11.612476,1.9835961,-0.9438243,-0.70174295,-0.04660532
1603,A,8490218629475,1.8261774,15.10023,2.9161377,-2.5712821,0.16618125,0.02956109
1603,A,8490258524058,2.006341,11.321581,-4.0144777,-3.1816785,1.3044163,2.0469058
1603,A,8490298478693,6.979098,17.596785,2.1589713,-3.0360036,3.5079157,2.7931235
1603,A,8490338103954,-6.3697734,19.612701,1.2120646,-1.3864417,-3.5747612,0.9305085
1603,A,8490378591662,-0.038307227,5.075109,-2.3930047,-1.2913668,2.407764,0.95447695
1603,A,8490417906245,1.9835961,2.4540567,-3.9097314,-0.54648066,3.282346,0.30253512
1603,A,8490457920256,0.8050503,4.573524,-2.4127567,-0.7890946,3.840811,0.7123956
1603,A,8490497829475,-4.9003325,4.71119,-0.8996213,-0.47217846,3.0248184,0.44341633
1603,A,8490537637859,-5.1607018,4.3221326,1.4748282,0.99921805,1.2721921,0.56459016
1603,A,8490577759528,-3.1974564,3.9683893,4.8979383,2.247708,-0.50147325,0.30253512
1603,A,8490617777444,0.5530606,17.487848,11.671135,2.3315976,0.18748654,-0.5472796
1603,A,8490657565568,9.657013,13.02745,5.98311,-0.30333406,-0.757403,0.706004
1603,A,8490697514683,-2.0925324,13.849858,-2.2655134,-0.80560625,1.4732608,0.4359595
1603,A,8490737391351,-5.3701944,13.812748,-5.861604,-1.5433019,-0.23861924,-0.8434231
1603,A,8490777397444,-0.7314286,3.1304188,3.0005333,0.49321744,-1.5078819,-0.6514092
1603,A,8490817178641,-3.1956608,6.1165867,-3.8295257,-0.68203557,-6.243515,-1.32945
1603,A,8490855423954,0.21308395,15.686211,-10.445304,1.3693974,-1.2282499,-1.1134677
1603,A,8490895229423,2.3080103,10.492589,-1.5334862,2.706837,0.9664612,-0.5020059
1603,A,8490935224163,4.697424,6.811504,2.497751,4.8176584,0.120907515,-0.46552056
1603,A,8490975439474,1.821389,10.205285,8.210915,2.9196236,-5.622732,0.05486112
1603,A,8491015135309,4.679467,7.6147585,-5.673061,0.50387007,-2.896454,-0.06578008
1603,A,8491056611870,1.174356,10.143634,1.5275006,-0.24847293,0.29987195,-0.932639
1603,A,8491096517809,2.4540567,10.017939,-2.0907366,0.24474451,0.59628177,-0.46365637
1603,A,8491135046975,1.6190789,11.818378,0.92057055,0.13928333,0.3800331,0.083889574
1603,A,8491176362755,2.9095535,10.674548,1.8555063,-1.2077435,-0.46046057,-0.022370555
1603,A,8491216188588,0.48961425,14.252683,2.2242134,-2.6415896,0.61838603,0.11638014
1603,A,8491256135726,2.5917234,12.565968,-7.000047,-3.306847,1.8082864,2.031992
1603,A,8491295997236,9.037513,19.612701,8.498817,-3.1641018,0.30466563,2.1835258
1603,A,8491335947235,-6.51163,16.143503,-2.4426842,-1.5012239,-1.2434299,0.7795073
1603,A,8491374052704,1.9752164,5.16968,-0.24839842,-0.73343456,3.4032536,1.0237192
1603,A,8491414928590,3.3961751,3.6583402,-4.148553,-0.7459514,3.717773,0.85700524
1603,A,8491454380620,-0.0700304,5.355231,-3.2662897,-1.149953,4.760667,0.7033408
1603,A,8491494629319,-6.6325374,5.6790466,-0.6859388,-0.64341974,3.4637074,0.40400153
1603,A,8491535420776,-5.439626,2.6821043,1.353921,1.1345067,0.86499476,0.567786
1603,A,8491574634265,-3.6750996,3.1453824,4.3634324,2.3592944,-1.4495586,0.32330775
1603,A,8491615008018,-2.9454668,12.956223,6.997653,3.1438618,-1.1089402,-0.72943985
1603,A,8491654952441,11.967417,17.637486,8.996213,-0.08841695,-1.0953581,0.50600064
1603,A,8491694860308,-1.863886,16.903065,-3.063381,-0.82557994,0.6431534,0.3720436
1603,A,8491735877340,-3.1028855,10.474632,-6.3566055,-1.7997643,0.39760995,-0.644485
1603,A,8491774947912,-0.623091,1.2090719,1.541866,-0.1587244,-0.71159667,-0.7459514
1603,A,8491814511817,-2.815581,9.499594,-5.5204306,0.27696875,-5.140167,-1.1052119
1603,A,8491854501663,1.3694834,14.525621,-10.045472,1.799498,-1.1691277,-0.763262
1603,A,8491894343535,1.5005659,10.183139,-0.4997896,1.9803267,-0.30493194,-0.5006743
1603,A,8491936352549,4.0503907,7.0952168,-0.504578,4.400075,-0.68389976,-0.44528055
1603,A,8491974655411,2.2744915,10.507553,3.681085,2.5672874,-5.516206,-0.029028457
1603,A,8492014304319,3.7193923,7.211934,-3.855862,0.4993427,-3.5065842,-0.23329292
1603,A,8492052702495,1.8435353,10.228628,-0.09995792,0.01784318,-0.3584615,-0.9190569
1603,A,8492094109943,2.6300306,10.567408,-1.5149311,0.3502057,0.2809635,-0.46205845
1603,A,8492132378588,2.267309,11.419744,0.12389994,-0.30253512,0.041012682,-0.031158986
1603,A,8492176545776,3.3716345,11.715427,2.1679497,-1.4098775,-0.62238073,0.20985709
1603,A,8492213825983,1.1587936,13.734937,-1.8267759,-2.9036446,0.94275904,0.9600696
1603,A,8492253773746,1.8309658,11.153987,-5.449203,-2.89459,2.4684842,2.2668827
1603,A,8492293689837,7.5614877,19.612701,7.666234,-2.8977857,0.5454154,1.5600798
1603,A,8492333531301,-6.9767036,13.694235,-2.8215668,-1.9145465,-1.1821772,0.6013418
1603,A,8492373441452,1.210269,5.6084175,-0.8643068,-1.1976236,2.6985812,0.7459514
1603,A,8492413149523,1.2970588,5.403115,-1.9189527,-0.91799164,2.3094933,0.71319455
1603,A,8492452999585,-0.026934769,5.0583496,-3.3812113,-0.8018778,3.0996532,0.845021
1603,A,8492493153270,-3.8031895,4.06715,-1.7154455,-0.33076462,2.7941887,0.25353295
1603,A,8492533055625,-3.8827965,2.4941597,0.480636,1.0410297,1.1438277,0.26711506
1603,A,8492573005718,-3.028665,4.5046906,3.9097314,2.3582292,-0.7257114,0.057257965
1603,A,8492612864959,0.038307227,19.612701,12.249334,2.3491745,0.6426208,-0.61439127
1603,A,8492652767425,11.156382,9.547478,6.4565635,-0.03914847,-1.0396981,0.6215818
1603,A,8492692714303,-1.4383167,14.50946,-0.8936358,-0.48522797,0.92012215,0.47564057
1603,A,8492732590433,-4.6686935,14.370597,-6.569091,-1.1576761,0.47617322,-0.64395237
1603,A,8492772479201,-1.0516531,2.8604724,1.6980876,-0.0793622,-0.6327671,-0.91373056
1603,A,8492812380961,-2.1559787,6.88752,-2.657564,0.2974751,-2.44638,-1.1241204
1603,A,8492852397497,2.023699,14.015656,-9.148245,1.1566108,-1.6138756,-0.63915867
1603,A,8492891958234,1.6711528,10.565612,-0.24061728,1.778459,-0.2724414,-0.3853594
1603,A,8492933943786,2.8933928,6.881534,-2.4624364,4.0914145,-0.75154406,-0.2031992
1603,A,8492971433686,3.0855274,9.486425,6.510433,2.819755,-2.8344023,-0.17283916
1603,A,8493011665575,2.730587,8.643666,-4.5459905,0.9917612,-4.3952813,0.26338664
1603,A,8493051541557,2.0937295,8.455123,-0.89782566,0.08628642,0.48735848,-0.7326356
1603,A,8493091713274,2.8700492,9.4295635,-0.22984336,0.15180019,0.04474111,-0.4101268
1603,A,8493131895263,1.2437878,11.203667,0.54288524,0.8612663,0.9603359,-0.1717739
1603,A,8493171520303,2.4809916,10.572196,0.682946,-0.6668556,-0.3587278,-0.3022688
1603,A,8493211466667,3.655946,13.941437,1.2401965,-1.8959044,-0.28842035,-0.29481193
1603,A,8493251330623,2.070386,12.0093155,-0.6907272,-3.0213563,0.9395633,1.2695289
1603,A,8493291296034,4.557363,15.173852,-1.9512744,-2.9033782,2.4722126,2.3475766
1603,A,8493329385516,-4.219182,18.962675,2.088941,-2.1630194,-3.5084486,0.6356966
1603,A,8493369188016,-1.3210008,7.9565306,-2.0739772,-1.5616777,1.969674,0.8644621
1603,A,8493411407130,2.4720132,5.111022,-2.156577,-1.0428939,2.6237464,0.4282363
1603,A,8493451313899,0.109534726,6.6480994,-1.982399,-1.1888351,2.3965788,0.82877576
1603,A,8493490677236,-1.6208745,5.029619,-1.1234791,-0.81732416,3.2639704,0.7139935
1603,A,8493530619056,-5.768829,5.341464,0.19752164,0.09560748,1.968875,0.39760995
1603,A,8493570471452,-2.6952724,3.0969,1.7262194,1.4703313,0.3006709,0.2796319
1603,A,8493610433431,-3.0579941,5.140351,6.089652,2.524943,-1.0823087,-0.09640643
1603,A,8493650293536,5.2564697,19.612701,13.823522,2.07913,-0.60959756,-0.3965447
1603,A,8493690299422,6.1112,10.572196,4.8141413,-0.2066613,-0.45859635,0.5049353
1603,A,8493730195151,-3.5715504,17.16463,-4.0982747,-1.0655308,0.9387643,0.20746025
1603,A,8493770129942,-5.0810947,8.72507,-1.1384429,-1.5121429,0.58030283,-0.9619338
1603,A,8493809991557,0.17298107,2.2990322,0.19871874,0.24154872,-2.0754015,-0.9896307
1603,A,8493849929109,-2.2379801,10.901998,-8.262989,0.2548645,-3.9968722,-1.2503542
1603,A,8493889796764,2.6132712,14.05995,-7.241862,1.5997609,0.114782244,-0.42850262
1603,A,8493929738379,2.5073278,9.643845,10.108319,2.307629,-0.19307919,-0.21411815
1603,A,8493969602389,3.5583823,6.988076,-1.049259,3.588077,-1.3201289,-0.08948222
1603,A,8494009021036,1.9261353,9.673173,3.5942953,2.6573021,-4.1729074,0.31292143
1603,A,8494047689630,4.4544125,8.817844,-1.4041992,0.13422333,-1.8722023,-0.38482678
1603,A,8494089304733,1.1174936,10.742783,2.2050598,-0.07590009,0.16325177,-0.9531454
1603,A,8494129258121,2.7287915,10.477625,-1.8243817,0.33768883,0.59867865,-0.30120352
1603,A,8494167632650,1.8920178,11.459248,0.56563014,0.13741912,0.54248595,0.021837922
1603,A,8494207306297,2.1703439,11.088745,1.632247,-0.96299905,-0.13768543,0.04261058
1603,A,8494247202755,1.0073603,14.065935,1.400608,-2.3164175,0.39707732,0.20746025
1603,A,8494286895255,1.7860745,10.914567,-2.4127567,-3.2360072,0.98750013,1.3419669
1603,A,8494326725516,6.8162923,15.737686,1.3293805,-2.8362665,2.4594293,2.1659489
1603,A,8494366624787,-4.132991,15.890317,0.49200845,-1.3566142,-2.8399951,0.94568855
1603,A,8494406571089,-0.6733692,7.5926123,-0.3561375,-1.4269217,2.3398533,0.8213189
1603,A,8494446430099,2.6168625,5.1996074,-2.0961237,-0.7368967,2.5329325,0.5539375
1603,A,8494486360099,1.0109516,6.595427,-2.0123265,-0.82371575,2.6557043,0.9321064
1603,A,8494526265047,-2.2319946,5.1463366,-1.3838485,-0.49827746,3.3292177,0.639425
1603,A,8494566145516,-6.242881,5.697003,-0.4950012,0.40266997,1.8234664,0.42424157
1603,A,8494606028589,-2.907758,3.6176388,2.5803509,1.6290556,0.13582122,0.35926044
1603,A,8494645943380,-3.3997664,7.0329676,6.0501475,2.5220137,-0.94755274,-0.1736381
1603,A,8494688732026,10.132261,19.612701,13.71698,1.262871,-0.22423817,-0.12703279
1603,A,8494727266504,1.8130093,8.457518,4.276643,-0.22397186,-0.04580637,0.45034054
1603,A,8494765878900,-2.7180176,15.593435,-4.4304705,-0.9076053,-0.0010652645,-0.09960223
1603,A,8494805687130,-4.413711,7.032369,1.2814964,-0.70147663,-0.18402444,-0.7888283
1603,A,8494846818692,-1.2066777,4.6896424,-2.4756045,0.13768543,-2.6876621,-1.0562097
1603,A,8494885725827,-0.20410569,12.0571995,-7.357382,1.0594054,-1.6426378,-0.89375687
1603,A,8494926109525,2.1260512,11.841123,-4.941034,1.4889734,-0.012516857,-0.39361522
1603,A,8494965537598,2.618658,8.194754,6.9557543,2.3694146,-0.7254451,-0.033289514
1603,A,8495005578848,4.5316253,8.752603,1.8590976,3.0490532,-1.030377,-0.09880328
1603,A,8495045640619,2.3971944,10.202292,0.15741876,1.3888385,-6.902115,0.3336941
1603,A,8495085245932,3.1256304,7.73387,-1.3581109,0.1470065,-0.06364955,-0.42290998
1603,A,8495126823327,2.0697873,8.973468,-0.8283938,0.070307456,0.37444046,-0.3749731
1603,A,8495166728275,2.7647045,9.231443,-0.7942764,0.36298886,0.98590225,-0.19414444
1603,A,8495206731349,1.1150994,11.791444,1.6891093,0.6034723,0.88869685,0.040213734
1603,A,8495246524890,2.1745336,10.885837,0.17298107,-0.973918,-0.72917354,-0.21571605
1603,A,8495286649889,2.3720553,14.664485,2.0919337,-2.181129,0.15020229,-0.11797804
1603,A,8495326335202,2.0392613,11.572374,-1.5981296,-3.414439,0.50786483,1.2096078
1603,A,8495366238432,6.809708,16.432604,0.2717419,-3.1135018,1.5507587,1.9092202
1603,A,8495405431296,-3.031658,14.194025,1.2036849,-1.1933625,-2.5656893,1.0974888
1603,A,8495446086558,0.66738373,7.33763,1.9632454,-1.4950987,2.7348,0.76485986
1603,A,8495485708223,3.0442274,4.6818614,-2.3415294,-0.94994956,2.6269422,0.619185
1603,A,8495525719316,0.0724246,6.867768,-3.2082303,-0.73343456,3.1790154,0.9920275
1603,A,8495565509108,-2.396596,6.26802,-1.4449008,-0.5539375,3.0535805,0.4263721
1603,A,8495605454890,-6.2063694,5.213374,-0.6985083,0.42717105,1.9632823,0.35579833
1603,A,8495645573901,-2.6964695,3.1519666,2.8119898,1.6160061,-0.16085494,0.2412824
1603,A,8495685466712,-2.617461,6.1237693,6.25964,2.8967204,-1.3536848,-0.14008227
1603,A,8495725392077,8.812458,19.612701,13.797785,1.4053501,-0.02743056,-0.21917816
1603,A,8495765322235,5.5060654,7.1371155,5.246893,-0.5355617,-0.14567491,0.59202075
1603,A,8495803878900,-1.982399,15.28997,-3.6876693,-0.8048073,0.60267335,0.16058862
1603,A,8495845125825,-2.996942,9.361927,-2.15538,-1.0096043,-0.1025317,-0.63862604
1603,A,8495884987285,-0.82240826,4.50888,0.019752163,0.25193503,-2.2037659,-0.82611257
1603,A,8495925015777,-1.5837644,8.841188,-4.1653123,0.25086978,-2.801113,-1.2138689
1603,A,8495964354782,0.31364042,13.513473,-7.1909847,1.2895026,-0.46578687,-0.7299725
1603,A,8496003043484,2.9083564,9.787497,3.6421793,1.6146746,-0.05539375,-0.17816548
1603,A,8496045914941,3.894169,8.174403,-2.9460652,3.5116444,-0.39254996,-0.19680761
1603,A,8496084584108,2.345719,9.639654,3.4003649,2.4133565,-4.261324,0.2034655
1603,A,8496124597443,2.9460652,7.402273,-4.297592,0.5249091,-2.954511,0.20532973
1603,A,8496164323638,1.5777789,10.114903,0.84694886,-0.13821806,0.43036684,-0.8295747
1603,A,8496204222129,2.2140381,9.791088,-1.4814123,0.2809635,0.5139901,-0.47643954
1603,A,8496244232805,2.2810757,11.571177,0.17657238,0.4079963,0.56459016,0.09827065
1603,A,8496284028900,3.459023,10.978013,0.29508537,-0.5515407,-0.4495416,-0.022104237
1603,A,8496323939263,3.5087025,15.253459,0.24361002,-1.4666028,0.7203851,-0.283893
1603,A,8496363887910,1.2252327,10.823587,0.8343793,-2.898052,1.485245,0.8109326
1603,A,8496402061035,1.9668367,12.70124,-2.791639,-3.180347,1.4745923,1.7598169
1603,A,8496444370304,-2.6204538,19.402012,3.9318779,-2.5715485,-2.7662256,0.71825457
1603,A,8496484174423,-2.285864,9.546281,-1.7393875,-1.7166736,0.40187103,0.6426208
1603,A,8496524036398,3.0735564,4.984728,-1.6095021,-0.6993461,1.7827201,0.474309
1603,A,8496561982911,2.3038206,5.879561,-1.122282,-0.73130405,2.150769,0.7976168
1603,A,8496603890930,0.34117374,6.1243677,-1.8495208,-0.6961503,3.1103058,0.89508843
1603,A,8496643747544,-5.2702365,6.4817023,-1.1839328,-0.16831179,2.5454495,0.5502091
1603,A,8496683707339,-3.5691562,3.1310172,1.620276,1.026116,0.55766594,0.48389637
1603,A,8496727383742,-2.7647045,4.4155064,5.734113,2.299906,-0.932639,0.14594123
1603,A,8496761168014,3.1507695,19.612701,11.737574,2.2658174,-0.03568636,-0.6897587
1603,A,8496801358587,9.379285,11.129447,5.6700683,-0.10439592,-0.53263223,0.51691955
1603,A,8496842481399,0.44831428,13.337499,-0.42916065,-0.6985472,0.78083885,0.42663842
1603,A,8496882006660,-4.979341,12.468404,-7.5189905,-1.2072109,-0.660464,0.025300032
1603,A,8496922253847,-1.9536686,3.810372,5.66109,0.7946873,1.0889666,-0.32384038
1603,A,8496962193170,-2.5893292,7.2747817,-4.9972973,-0.06471482,-3.9707732,-1.005876
1603,A,8497003023534,-0.8912416,12.432491,-6.6564794,1.3899038,-1.6796558,-1.0764498
1603,A,8497042790357,1.0319009,11.700463,-3.764882,1.1430287,-0.45193845,-0.4263721
1603,A,8497082691347,5.734113,6.7612257,2.944868,3.4812841,0.41172472,-0.3549994
1603,A,8497122635669,3.8504748,10.961254,5.1660886,2.5438516,-3.2296154,-0.221575
1603,A,8497162506817,2.099715,8.006809,-1.3126211,1.2607405,-5.2011538,0.70200926
1603,A,8497202405877,2.6437972,7.6530657,-0.073621705,-0.2298308,-0.6990798,-0.60533655
1603,A,8497242357494,3.402759,9.503783,-2.2493525,0.2612561,0.4000068,-0.44581318
1603,A,8497282211035,2.8209682,10.761338,-0.415394,0.51718587,0.9555422,-0.17283916
1603,A,8497322148742,2.4277205,11.434109,1.2324153,0.32463935,0.23062976,0.109988555
1603,A,8497362010514,1.9686323,11.451467,2.9137435,-1.3688648,-0.34434673,-0.3965447
1603,A,8497401974004,2.15957,13.055582,0.35254622,-2.4200146,0.008255799,-0.09960223
1603,A,8497441827597,3.0214825,11.932103,-3.6469676,-3.370763,1.2871058,1.7156084
1603,A,8497481734316,7.5584946,18.532318,4.720767,-2.6828685,0.50120693,1.5875103
1603,A,8497521681920,-5.157709,13.906122,-0.7870938,-2.1102889,-1.6548884,0.60080916
1603,A,8497561538533,2.0260932,6.10701,0.08738836,-0.9105348,2.6951191,0.6279734
1603,A,8497601479107,2.9759927,5.395334,-1.8411411,-0.72491246,2.0831246,0.58243334
1603,A,8497641405671,-0.020350715,6.546346,-3.3913867,-0.8900285,3.1931303,0.85487473
1603,A,8497681284836,-3.5009215,5.0403934,-0.7009025,-0.6101302,2.94519,0.49534798
1603,A,8497720806242,-4.646547,3.9653966,0.5518635,0.6990798,1.0695255,0.4327637
1603,A,8497761110097,-2.0566192,3.8863878,2.9753942,2.077532,-0.74435353,0.17283916
1603,A,8497800967493,-1.8297687,9.968858,5.602432,2.9039109,-1.2546152,-0.43888897
1603,A,8497840871086,12.978369,19.612701,13.112444,0.5182512,-0.66845345,0.24421188
1603,A,8497880823847,2.2230163,14.787189,2.6288335,-0.47351006,0.16831179,0.42876893
1603,A,8497920676244,-4.921282,12.827534,-3.9671922,-1.3888385,0.49135324,-0.19734024
1603,A,8497960627494,-4.68246,3.5116954,2.5923219,-1.0644655,0.5856291,-0.6831008
1603,A,8497999699629,-0.79966336,5.0517654,0.8110358,0.35233623,-3.0525153,-1.0953581
1603,A,8498040142805,-1.4083891,13.324331,-9.0315275,0.8202536,-3.2176313,-1.1214571
1603,A,8498078202440,1.0528502,12.537836,-4.7578773,1.3121395,-0.3336941,-0.4876248
1603,A,8498120100409,5.813122,7.0545154,5.861604,3.609915,0.2282329,-0.47217846
1603,A,8498159974472,5.903503,10.135853,5.109226,2.7164245,-2.5363946,-0.44554687
1603,A,8498199870670,1.9806033,8.6712,-0.46267948,1.9363844,-4.6272426,0.6988135
1603,A,8498239822909,2.0177135,8.215105,1.2503718,0.16271915,-0.46685216,-0.26551718
1603,A,8498279687908,3.05141,9.163208,-1.5209166,0.304133,0.33502567,-0.4777711
1603,A,8498319587285,2.6479871,10.387842,-0.9744401,0.44208476,0.56432384,-0.3438141
1603,A,8498359590617,2.1679497,11.994352,0.7134721,0.44474792,0.3009372,-0.01571265
1603,A,8498399380305,3.2465374,13.543401,0.11492168,-1.0447581,-0.37364152,-0.34780884
1603,A,8498439343428,4.0276456,14.117411,0.46806642,-1.9310582,0.9400959,0.23036344
1603,A,8498479319318,0.7015011,9.297882,-4.358644,-3.0961912,1.330249,1.28391
1603,A,8498519152702,5.363012,17.435774,4.681263,-3.1944618,0.72251564,1.3518206
1603,A,8498558325355,-3.3955765,14.295778,0.22924481,-1.2801815,-2.0271983,1.0844392
1603,A,8498598137910,1.3515269,6.5708866,-0.45310268,-1.6085494,2.428004,0.6708503
1603,A,8498638292024,3.1256304,4.9733553,-1.0199299,-1.0418286,2.1957765,0.55793226
1603,A,8498676529576,0.6314707,5.8945246,-3.2986114,-0.8876316,2.753176,1.164334
1603,A,8498717255722,-2.8341362,6.1399302,-0.4890157,-0.33662358,2.8344023,0.46152583
1603,A,8498757573272,-4.9027267,4.119224,-0.480636,0.3174488,1.2631373,0.25379926
1603,A,8498796499942,-2.03148,3.2800562,2.7006595,1.5281218,-0.23782028,0.006657903
1603,A,8498837581657,-1.8028339,7.307702,6.55293,2.8216193,-1.0130665,-0.37071204
1603,A,8498877455461,11.184513,19.612701,12.71381,1.27379,-0.1073254,-0.18269286
1603,A,8498917396294,3.6469676,10.298658,4.341286,-0.61439127,0.21385184,0.45859635
1603,A,8498957263951,-3.429694,15.660473,-2.1559787,-1.0980214,0.73796195,0.06657903
1603,A,8498997160618,-5.1265845,6.0441623,2.292448,-1.0282465,-0.010386328,-0.56432384
1603,A,8499035709471,-0.61770403,4.264672,-0.4357447,0.30040458,-2.6357305,-1.0010823
1603,A,8499075507805,-1.6801311,11.823765,-6.4020953,0.64341974,-3.3262882,-1.1243867
1603,A,8499116877857,1.4000094,12.935273,-6.1524997,1.2684636,-0.55100805,-0.5472796
1603,A,8499155462858,4.935647,8.264186,7.9852614,2.28659,0.35579833,-0.19973709
1603,A,8499194977233,6.2045736,7.2364745,2.3463178,3.3686326,-1.2096078,-0.3371562
1603,A,8499234968535,2.142212,9.642648,3.5859156,2.4016387,-4.3316317,0.31931302
1603,A,8499275141294,2.9562407,8.02297,-1.2539631,-0.022370555,-1.197091,-0.37896782
1603,A,8499314930982,3.3303347,10.1544075,-0.95708215,0.19627498,0.068176925,-0.613326
1603,A,8499354802805,2.1841104,10.453683,-0.5919664,0.49401638,0.9965549,-0.23915187
1603,A,8499394601399,2.3535004,11.923124,0.45190558,0.16484967,0.3821636,0.20692763
1603,A,8499434598951,1.9728222,14.4053135,0.2861071,-1.4093449,-0.53982276,0.109988555
1603,A,8499475419888,3.413533,13.067553,1.6412252,-2.813097,0.3683152,0.40719733
1603,A,8499516652544,1.4155718,11.075577,-4.9135003,-3.2328112,1.4921691,1.8583539
1603,A,8499554887649,6.941988,19.566614,4.9943047,-2.4434505,0.3581952,1.0591391
1603,A,8499596746087,-4.6740804,11.312603,-2.4833858,-1.6972326,-1.433047,1.0351708
1603,A,8499637839992,2.156577,5.5778913,-0.62249243,-1.1510183,2.2841933,0.63223445
1603,A,8499676501711,1.2336124,5.5820813,-1.7956513,-0.89615375,2.1624868,0.5717807
1603,A,8499716646346,2.5157075,4.653131,-1.2617443,-0.613326,2.793656,0.92970955
1603,A,8499756624627,-4.425083,5.796961,-2.3002293,-0.101999074,2.3425164,0.34115094
1603,A,8499796187960,-4.313154,2.9640217,1.1150994,0.99256015,0.88203895,0.3057309
1603,A,8499836065669,-2.8999767,3.8654387,4.3999443,2.4224114,-0.79042625,0.015180019
1603,A,8499876227387,1.9153614,19.612701,9.762956,2.9129655,-0.11984225,-0.7526093
1603,A,8499915861346,11.081563,14.903307,7.6369047,-0.19201392,-1.4863102,0.56885123
1603,A,8499955812024,-2.5905263,19.422363,-4.4783545,-1.381648,0.62238073,0.6295713
1603,A,8499995678638,-4.3077674,3.1591492,-1.9560628,-2.2365227,1.9531624,-0.40719733
1603,A,8500033332803,-0.7284359,2.35769,3.5511997,0.19947077,-0.79708415,-0.655404
1603,A,8500073547596,-3.743933,10.62008,-5.445013,0.299073,-5.4943676,-1.0064086
1603,A,8500115396241,-0.60573304,12.977172,-8.2169,2.1153488,-1.2282499,-0.85700524
1603,A,8500153451085,2.0081367,10.18254,-2.493561,1.4737934,-0.3073288,-0.4383563
1603,A,8500194674160,8.746617,6.403891,2.6443958,4.3667855,0.13528858,-1.081776
1603,A,8500235140042,3.2674868,11.088745,2.0709844,2.7635622,-3.788613,5.326322E-4
1603,A,8500275001869,4.381389,6.871359,-3.9917328,0.5496765,-3.8962047,0.2444782
1603,A,8500314967234,2.1015105,10.362105,0.38367084,-0.20080236,-0.5813681,-0.67271453
1603,A,8500354824364,2.8179753,9.799467,0.17597382,0.4327637,0.43063316,-0.33316147
1603,A,8500394777449,2.918532,11.661558,0.81642276,-0.0029294773,0.14088123,-0.04261058
1603,A,8500434633474,3.9133227,11.781268,3.4739866,-1.2849753,-0.8926916,-0.11744541
1603,A,8500474581993,2.0045455,13.420099,1.287482,-2.851713,0.007190535,0.35766253
1603,A,8500514460078,1.1953052,10.691906,-6.6486983,-3.1068437,1.5603461,2.1446438
1603,A,8500553610389,12.015302,18.598757,4.650737,-2.5369272,2.655438,1.8386464
1603,A,8500593420342,-6.1243677,13.893553,-0.86251116,-0.6844324,-2.705239,1.0639329
1603,A,8500634145030,0.29029694,5.433042,-1.3964181,-0.96779275,2.18539,1.0037454
1603,A,8500674093644,0.717662,6.4350157,-1.127669,-1.0516824,2.6620958,0.48655954
1603,A,8500716607851,3.7576995,4.6926355,-2.2918496,-0.07190535,3.286341,1.0085391
1603,A,8500756573452,-4.84347,6.220136,-1.8207904,-0.21837921,2.8607676,0.23995082
1603,A,8500793755427,-4.381389,3.0107086,1.7585411,1.0053433,1.195493,0.14913702
1603,A,8500833712017,-2.9257145,3.3452983,5.6646814,2.4578314,-0.5052017,-0.14753912
1603,A,8500873575616,2.0446482,18.959085,9.7402115,2.5321336,-0.30040458,-1.0527476
1603,A,8500913463743,11.844116,12.064383,6.637924,-0.42184472,-1.4399712,0.6556703
1603,A,8500953487438,-0.58298814,17.228077,-2.9041667,-0.81732416,0.7022756,0.5254417
1603,A,8500992663328,-1.2808979,9.070433,-8.854357,-1.7773937,0.4293016,-0.23462449
1603,A,8501033173063,-1.8872294,1.7824832,2.5492263,-0.48975533,0.16538231,-0.6061355
1603,A,8501071143585,-3.2980127,8.401853,-0.7356185,0.25566345,-3.8988678,-0.96406436
1603,A,8501112993326,-1.6537948,13.474567,-8.760384,2.1334584,-1.6884441,-0.660464
1603,A,8501152896084,1.2372037,10.320207,-3.6086605,1.7033578,-0.85993475,-0.31691617
1603,A,8501192801867,6.14831,7.0132155,4.907515,1.8684739,-0.13795175,-0.14301175
1603,A,8501232739626,4.777031,10.64043,4.4957123,3.6581182,-1.8346517,-0.7576693
1603,A,8501272607648,2.5198972,8.2169,-3.043629,0.77391464,-5.1620054,0.35926044
1603,A,8501312512179,2.2056582,8.99322,0.9295488,0.011717909,-0.71985245,-0.8042747
1603,A,8501352446814,2.510919,10.204087,0.24001873,0.35952675,0.23515713,-0.44394895
1603,A,8501391923532,3.5541923,10.366894,-0.59735334,-0.10066749,-0.52624065,-0.08735169
1603,A,8501432268690,4.829105,11.210251,2.919729,-1.4010891,-1.0684602,-0.10945592
1603,A,8501472126189,2.7018566,14.709975,0.1340753,-2.788596,0.04660532,0.8540758
1603,A,8501512064522,1.7657237,12.016499,-6.9820905,-2.7965856,2.0085561,2.6746128
1603,A,8501551926397,8.977059,19.612701,7.1155677,-2.54252,2.3539681,1.7246631
1603,A,8501589605252,-8.21271,13.764266,-1.7178397,-1.5678029,-1.0096043,0.60240704
1603,A,8501631748846,1.0642227,4.734534,-0.7733272,-1.0620687,2.6439865,0.6282397
1603,A,8501671694575,0.8559271,4.4633904,-1.9812019,-0.7235809,2.091114,0.44315
1603,A,8501711613637,0.7170634,3.3626564,-1.834557,-0.84209156,1.9944414,0.7566041
1603,A,8501751466085,-4.2143936,4.669292,-0.9235633,0.06684534,1.6405072,0.0013315806
1603,A,8501791574887,-3.288436,3.482965,0.88046765,1.2913668,0.046072688,-0.2197108
1603,A,8501833483482,-1.7310078,4.247314,3.6631286,2.3829966,-1.3960291,-0.3225088
1603,A,8501870354209,5.9585695,19.612701,9.941922,2.5411885,-0.4463458,-1.0327739
1603,A,8501911119937,11.874043,11.247959,7.909844,-0.52597433,-1.525725,0.58909124
1603,A,8501950979837,-3.6858735,19.575592,-3.954024,-1.1744541,0.62371236,0.7773767
1603,A,8501988779420,-2.983774,6.397307,-6.0285997,-2.0162792,2.0426445,-0.46685216
1603,A,8502030785407,-1.4616601,1.7196354,3.6224272,-0.15020229,0.1355549,-0.6069344
1603,A,8502069444679,-2.0626047,9.43076,-2.343325,0.35792887,-4.3529367,-1.2652678
1603,A,8502110592074,-1.6238673,13.676279,-9.630077,2.0322583,-2.0309267,-0.93663377
1603,A,8502150533637,1.7884687,10.177752,-2.3774424,1.0759171,-1.0612698,-0.42876893
1603,A,8502190386346,7.571663,6.8408327,5.9867015,2.7718182,-0.3371562,-0.5683186
1603,A,8502228163794,6.7785835,9.1255,2.8868086,3.0402648,-1.3813816,-0.6825682
1603,A,8502269728846,5.4264584,7.9505453,-0.46208093,1.3837786,-4.527374,0.13156016
1603,A,8502308234784,2.2451627,9.129091,0.5386954,-0.5153217,-0.56725335,-0.484429
1603,A,8502347862804,3.0101101,8.920197,-1.6232687,0.06844324,1.4429007,-0.5834986
1603,A,8502387498273,2.4809916,11.473015,0.16460137,0.41039312,1.2982911,0.116912775
1603,A,8502427693169,3.459023,10.815806,1.6843209,-0.33609092,-0.13635385,-0.01304949
1603,A,8502467311294,4.0677485,15.330672,2.1212628,-2.3534355,0.7984157,0.10972224
1603,A,8502507208638,2.742558,10.80623,-3.441665,-3.4450653,1.176052,1.5172029
1603,A,8502547066606,5.945401,16.551117,5.201403,-3.1973913,0.5342301,1.6615462
1603,A,8502587048794,-3.4249055,15.817892,-1.3623008,-1.2532836,-2.8495824,1.1302456
1603,A,8502628593585,1.6831238,6.5068417,-0.45190558,-0.7717841,2.3888555,0.83916205
1603,A,8502668660304,2.956839,4.529231,-2.8688521,-0.36139098,2.5800705,0.7347662
1603,A,8502707194939,2.2212207,4.532822,-3.3979707,-0.5653891,3.2876725,1.0474212
1603,A,8502748518167,-3.193865,6.2674217,-1.5358804,-0.10705908,3.6501286,0.4745753
1603,A,8502788366918,-5.503671,4.3879733,0.5823896,0.871919,1.9744676,0.3584615
1603,A,8502829004678,-3.4087446,3.4745853,3.6721067,1.9995013,-0.2775014,0.0628506
1603,A,8502868815669,-2.8401217,10.600926,5.2624555,3.0644996,-0.9768475,-0.5797702
1603,A,8502906433689,15.231313,19.612701,13.466786,0.24021713,-1.1994878,0.059388492
1603,A,8502948786188,2.0368671,17.126923,1.3359646,-0.95261276,-0.24421188,0.6002765
1603,A,8502988709733,-2.1972785,10.423756,-12.103288,-2.1427794,1.1779162,0.062051654
1603,A,8503028371188,-3.9911342,1.9494787,3.8007953,-1.0924287,0.16405073,-0.4415521
1603,A,8503066346398,-2.0506337,6.6971807,-1.5155296,-0.6215818,-5.668272,-1.0562097
1603,A,8503108183168,-3.0053217,15.321693,-13.262082,2.8842034,-0.8940232,-1.5480956
1603,A,8503147322439,0.7637503,11.234193,-2.1679497,0.9968212,-0.38109836,-0.3834952
1603,A,8503185863065,7.2646065,6.084265,6.969521,3.3768883,0.90041476,-0.556867
1603,A,8503227089573,5.1882353,10.912771,5.8783636,3.6559875,-1.9379823,-0.4596616
1603,A,8503267579626,3.8672342,6.3578024,-4.119224,0.9472864,-4.3292346,-0.08229168
1603,A,8503305873586,2.337938,9.059061,1.5041572,-0.2034655,0.1107875,-0.6918893
1603,A,8503345457284,3.9953241,9.725247,-1.1168951,0.23009712,0.41731736,-0.6064018
1603,A,8503386924679,2.0841527,11.575367,1.6089035,0.64768076,0.6644587,-0.112918034
1603,A,8503425073012,4.5238442,11.476605,1.316811,-1.0191917,-0.221575,-0.48149952
1603,A,8503465286241,3.9240966,16.348806,0.87208796,-2.1739385,1.066596,0.35952675
1603,A,8503504923845,1.3575124,9.737218,-1.7238252,-2.9449236,1.7749969,1.6482304
1603,A,8503544526449,4.494515,16.378735,2.954445,-3.5582497,0.7275756,1.4639397
1603,A,8503584444314,-1.9099745,16.564285,-0.16938977,-1.8479675,-3.3393378,1.2032162
1603,A,8503624682751,0.8194155,7.237672,0.24061728,-0.9222527,3.0975227,0.8016115
1603,A,8503664307230,2.2643163,3.7972038,-2.3870192,-0.24234766,2.263687,0.72464615
1603,A,8503704185355,1.6130934,5.1200004,-3.1376014,-0.43888897,3.0285468,0.92012215
1603,A,8503744058792,-2.0709844,6.2404866,-1.2533646,-0.26818034,3.8131142,0.6671219
1603,A,8503785706917,-5.3462524,4.9667716,0.0,0.75447357,2.3643544,0.58030283
1603,A,8503824329158,-3.8534677,2.9909565,3.728969,1.901497,-0.21438447,0.44528055
1603,A,8503865824626,-2.765303,11.584944,4.221576,2.9220204,-0.1818939,-0.7819041
1603,A,8503905745197,14.347254,19.216461,11.7860565,0.30306774,-1.6245283,-0.28575718
1603,A,8503945582752,-0.3537433,19.612701,0.47764325,-0.7107977,-0.16005598,0.5139901
1603,A,8503986262438,-0.89603,8.169615,-12.212823,-2.428004,0.62078285,-0.053263225
1603,A,8504025977697,-3.7535098,-0.0017956513,3.6098576,-0.94808537,0.7440872,-0.43382895
1603,A,8504063651450,-1.620276,6.260239,-1.2725182,-0.10759171,-4.7681236,-0.84581995
1603,A,8504104517282,-1.553837,15.203181,-13.043611,1.7520937,-2.206429,-1.3430321
1603,A,8504145708270,0.1448492,11.932701,-1.4550761,1.2468921,-0.010120012,-0.39920786
1603,A,8504185607908,4.9524064,5.852626,4.471172,3.972371,0.63250077,-0.41971418
1603,A,8504225556238,5.704784,9.856929,7.608773,3.5894086,-1.3347764,-0.504669
1603,A,8504265420096,5.66947,7.8248496,-1.9273324,1.6783241,-4.090882,0.23782028
1603,A,8504302916241,1.3934253,10.035895,4.299388,-0.34274885,0.104928546,-0.8383631
1603,A,8504343303636,3.4997244,9.093777,-0.47046062,0.36964676,0.13635385,-0.6218481
1603,A,8504382928792,1.0474633,11.484985,0.9056068,0.6668556,0.44528055,-0.20080236
1603,A,8504424997594,5.4486046,11.45865,0.7260417,-0.5107943,-0.19707392,-0.48363006
1603,A,8504464922752,4.490924,16.482283,0.8655039,-1.9750003,0.53929013,0.13315806
1603,A,8504504894676,1.3928268,9.152434,-1.9620483,-2.817092,1.835717,1.4002901
1603,A,8504544752549,4.7285485,14.97214,0.10175357,-3.2027175,2.2096248,1.9885824
1603,A,8504584705873,-4.3957543,17.592594,1.9829975,-2.676477,-3.6834183,0.8085357
1603,A,8504624561294,-0.0053869537,7.1407065,-3.3243492,-1.4993597,2.7822044,0.763262
1603,A,8504664636814,0.82360536,4.3023806,-0.4914099,-0.566987,2.3622239,0.43702474
1603,A,8504702405875,2.7377696,5.0038815,-2.7814639,-0.54621434,2.7686224,1.0104034
1603,A,8504744269990,-1.3221979,6.057929,-1.738789,-0.52624065,3.128149,0.7089335
1603,A,8504784170772,-4.899135,4.6166196,-0.42916065,0.63915867,2.181928,0.567786
1603,A,8504824067595,-3.663727,2.2319946,4.009091,1.6839168,-0.3174488,0.3539341
1603,A,8504863944939,-2.541445,9.074623,7.015011,3.4344127,-0.25220135,-0.6229134
1603,A,8504903875978,11.121665,19.612701,11.35091,0.5294364,-1.1299793,0.13342437
1603,A,8504943783849,0.36990416,14.596251,0.018555064,-0.773382,-0.28149614,0.5542038
1603,A,8504981564518,-4.7524905,12.4229145,-4.8722005,-1.6615462,-0.4990764,-0.023169503
1603,A,8505023586502,-1.3958195,1.572392,2.72939,-0.69721556,-1.3347764,-0.6383597
1603,A,8505061536968,-1.3742718,5.305551,-0.83018947,-0.4889564,-5.320197,-1.1025487
1603,A,8505101286865,-1.5580268,15.262437,-12.780848,1.6839168,-1.9904467,-1.4607439
1603,A,8505142008792,2.4235306,11.701062,-2.4881742,1.427987,0.6101302,-0.5209143
1603,A,8505182738636,6.6085954,5.897517,6.8360443,4.0280313,0.9912286,-0.48709217
1603,A,8505223145041,4.4119153,9.588778,3.8905778,3.4746263,-1.4106765,-0.17390442
1603,A,8505262995980,4.502895,8.244433,-0.40821138,1.2511531,-5.4698668,0.74089146
1603,A,8505301729103,2.1158757,9.812635,3.3554738,-0.63862604,0.014913702,-0.7869641
1603,A,8505342870407,3.9618053,8.762778,-1.7663223,0.09134643,-0.051665325,-0.4892227
1603,A,8505382724469,2.5007436,11.532271,-0.13347675,0.59148806,0.71585774,-0.087618
1603,A,8505422628480,3.0262709,11.872248,2.8520927,-0.30173615,-0.1818939,-0.13369069
1603,A,8505461909000,3.5685577,14.298771,0.98581254,-2.0074909,0.10173275,2.663161E-4
1603,A,8505502429365,3.1615434,10.88823,-2.89459,-3.178749,0.8924253,1.34463
1603,A,8505542343114,8.1720085,16.228498,1.5987282,-2.9446573,2.3987093,2.1824605
1603,A,8505582291917,-4.6621094,17.543512,-0.44532153,-2.1084247,-3.7145772,0.6375608
1603,A,8505622152126,0.005985504,7.047333,-1.6897079,-1.4905713,2.1750038,0.81013364
1603,A,8505659962021,1.7992426,4.8907557,-2.0207062,-0.55553544,2.8618329,0.5613944
1603,A,8505701135719,1.721431,5.7496753,-3.2597055,-0.7070693,2.8216193,1.0737866
1603,A,8505741736449,-2.2391772,5.593454,-1.5981296,-0.56911755,3.1150997,0.6737798
1603,A,8505781676448,-5.7215433,5.0661306,-0.7212533,0.54674697,2.1321268,0.4857606
1603,A,8505821541760,-3.3626564,2.9484594,3.567959,1.8951055,-0.0396811,0.21225394
1603,A,8505859757750,-2.0829554,7.9529395,6.7893577,3.1401334,-0.6018744,-0.43303
1603,A,8505899517542,12.42052,19.612701,13.136985,0.784301,-1.063134,0.024501082
1603,A,8505941481604,3.2465374,12.964602,3.3530796,-0.5696502,-0.5121259,0.57151437
1603,A,8505981162176,-4.4167037,16.147095,-6.353014,-1.6751283,-0.0743022,-0.015446335
1603,A,8506021244574,-3.093907,2.9364884,4.449624,-1.0053433,0.090014845,-0.5611281
1603,A,8506059146918,-1.8082209,4.26946,0.08140286,-0.16751283,-4.6147256,-0.8000136
1603,A,8506098874834,-1.834557,13.116634,-9.669582,1.7132115,-2.983273,-1.5608788
1603,A,8506140769780,1.6687586,12.303204,-5.228338,1.0756508,0.350472,-0.7139935
1603,A,8506178841814,7.1700354,6.4817023,8.374319,2.2652848,0.566987,-0.37950045
1603,A,8506219555822,5.134964,9.14585,3.8959646,3.5060515,-0.44847634,-0.55100805
1603,A,8506260747333,4.4538136,8.930971,2.0751743,1.835717,-5.0224557,0.75154406
1603,A,8506298252699,1.4808137,10.147225,3.9785647,-1.0077401,-0.2511361,-0.9337043
1603,A,8506341637803,4.8638206,9.057265,-0.9576807,0.056459017,0.007190535,-0.464189
1603,A,8506378151084,2.496554,11.19409,2.0745757,0.55074173,0.37124467,0.0396811
1603,A,8506417635043,3.2812533,11.850101,2.2056582,-0.7257114,-0.16271915,-0.26418558
1603,A,8506457827438,5.329493,14.932037,0.45370123,-1.8530275,0.38402784,0.020506341
1603,A,8506497431241,2.1242554,9.631873,-0.038307227,-3.0445259,1.3337111,1.4841797
1603,A,8506537543011,6.251859,15.164275,-1.460463,-2.834136,2.6322684,2.2178805
1603,A,8506577453635,-3.0621839,19.612701,2.268506,-2.2556975,-3.4253578,0.6601977
1603,A,8506617199572,-0.6859388,7.1987658,-2.2062569,-1.3281184,1.940113,1.0154634
1603,A,8506657398636,0.9923966,4.9081135,-1.70946,-1.0162623,2.0996363,0.48070058
1603,A,8506697029730,2.0153193,5.3043537,-1.483208,-0.48203218,2.5331988,1.1009508
1603,A,8506736932750,-0.91099375,5.765238,-1.6310499,-0.44181845,3.1470575,0.6609966
1603,A,8506777028636,-5.153519,5.3821654,-0.9792285,0.29241508,2.08419,0.39734364
1603,A,8506816895563,-3.2267854,2.5767596,2.5366566,1.5070829,0.09827065,0.07882957
1603,A,8506856656292,-2.4049757,7.240066,6.4032927,2.94013,-0.8359663,-0.44315
1603,A,8506896553271,12.674904,19.612701,15.835849,1.099353,-0.42211103,-0.29933932
1603,A,8506936460615,3.520075,6.1112,4.2066126,-0.43409526,-0.45167214,0.55074173
1603,A,8506976664052,-3.342904,18.66819,-4.554969,-1.2607405,-0.08229168,0.33848777
1603,A,8507016694625,-1.9536686,6.0363812,4.320337,-1.442368,-1.7132115,-0.26977822
1603,A,8507057658322,-1.5867572,2.3259668,-0.9235633,0.1107875,-3.803793,-0.9491506
1603,A,8507096398063,-1.9405005,11.667543,-6.8851256,1.0016149,-3.3428,-1.6002935
1603,A,8507136446813,3.4237084,12.499529,-4.5896845,0.63383234,0.6218481,-0.6487461
1603,A,8507176331605,3.7594953,8.86513,3.268684,1.8482338,0.7568704,-0.43995422
1603,A,8507216899885,6.6971807,7.555502,-1.9788077,3.5630434,0.25166872,-0.4673848
1603,A,8507255787437,3.2495303,8.79091,6.101623,3.3459957,-1.9702066,0.16405073
1603,A,8507295566239,0.98341835,7.724293,-6.0405707,-0.5118596,-3.0088394,-0.63436496
1603,A,8507335356239,3.934272,10.439917,-1.3036429,0.1949434,-0.16298546,-0.6266418
1603,A,8507375301396,3.1094694,11.071986,0.14604631,0.34834146,0.4809669,-0.2793656
1603,A,8507415210302,3.193865,11.256339,2.0368671,0.007989483,-0.40080574,-0.046871636
1603,A,8507455088010,2.9173348,12.987946,3.1974564,-2.0727384,-0.3821636,-0.14514229
1603,A,8507494952437,2.6420016,12.022484,-0.7715315,-2.9872677,0.61705446,1.220793
1603,A,8507534867437,4.881179,14.691421,-1.9536686,-2.9166942,2.3281355,2.7158918
1603,A,8507575068323,0.41060558,19.612701,5.9268465,-2.2876554,-2.9808762,0.91160005
1603,A,8507614864468,-3.4584243,9.61691,-0.9900024,-1.5813851,2.123871,0.78536624
1603,A,8507655177593,2.0266917,3.3363202,-2.9340942,-0.8996158,2.4732778,0.4711132
1603,A,8507695048843,2.1254525,4.7746367,-1.1988965,-0.82611257,2.2546322,0.76246303
1603,A,8507735216812,-0.5859809,5.305551,-1.9351135,-0.69481874,2.9313414,0.7451525
1603,A,8507777178895,-5.507861,5.2145715,-1.0684125,0.1073254,1.9060245,0.42770368
1603,A,8507814671917,-3.09271,2.1769278,3.3901896,1.5334482,0.33848777,0.20373182
1603,A,8507856782956,-1.5340848,7.560889,8.142081,3.007774,-0.24314661,-0.6151902
1603,A,8507894552438,13.703812,19.612701,12.965799,0.6511429,-1.427987,0.33316147
1603,A,8507936392021,2.348712,9.24102,1.2318168,-0.66206187,0.46685216,0.5363607
1603,A,8507974066395,-5.1583076,16.34342,-3.8067808,-1.3454291,-0.28122982,-0.032490566
1603,A,8508013746500,-2.858677,5.6365495,4.289212,-0.8338358,-1.6996294,-0.6676545
1603,A,8508053632385,-1.5502456,3.840898,-0.054468088,-0.28842035,-4.76839,-1.0990866
1603,A,8508093752229,-1.9788077,13.162723,-10.78528,0.89828426,-3.2671661,-1.6447684
1603,A,8508133551031,3.5464113,12.588713,-4.2078094,0.808802,0.7699199,-0.7568704
1603,A,8508173433427,5.917868,6.747459,10.933721,3.2807481,1.0562097,-0.66179556
1603,A,8508215356863,6.855198,7.9086466,1.234211,2.9499836,-0.59202075,-0.1603223
1603,A,8508253783062,2.4432828,9.248202,5.167286,2.6980486,-3.2629051,0.40719733
1603,A,8508293409260,1.5071499,7.836222,-2.303222,-0.7137272,-1.6088157,-0.8748484
1603,A,8508333073062,4.420295,9.816227,-1.1695676,0.20639499,0.09134643,-0.65007764
1603,A,8508372920510,2.8299465,11.219229,0.55126494,0.5954828,0.5070659,-0.24421188
1603,A,8508412811760,3.003526,12.385205,2.4265234,-0.4527374,-0.3520699,-0.2593919
1603,A,8508452843010,4.7141833,13.878589,1.6891093,-1.9856529,-0.47351006,-0.21571605
1603,A,8508492742645,3.3039982,11.127052,0.54408234,-2.9734194,1.0402308,1.293231
1603,A,8508532694468,3.2052376,14.147338,-1.9500773,-2.7214844,3.0128343,2.6056368
1603,A,8508572526916,-0.51235914,19.612701,4.8817773,-2.7297401,-1.6061525,0.56938386
1603,A,8508612739989,-1.5855601,7.475296,-2.867655,-1.1683288,1.1488878,1.1896341
1603,A,8508654152020,1.6226702,4.4424415,-1.8746599,-0.989897,2.9166942,0.5211806
1603,A,8508693324260,1.1587936,5.643732,-1.3156139,-0.6000102,2.7095,0.8743158
1603,A,8508732660509,-1.2539631,4.0934863,-1.7232267,-0.44341633,2.8373318,0.7142598
1603,A,8508772531811,-5.4713492,5.257667,-1.5221137,0.3787015,2.1217406,0.47058058
1603,A,8508813917697,-3.6164417,2.9939492,2.4720132,1.7531589,0.24021713,0.31771514
1603,A,8508854457332,-3.4763808,7.713519,6.5505357,3.0964575,-0.40959418,-0.3818973
1603,A,8508894277749,14.189835,19.612701,15.902886,0.6085323,-1.0181265,0.13981596
1603,A,8508933269988,0.9840169,16.124949,3.210026,-0.6780408,-0.4596616,0.5249091
1603,A,8508973948841,-3.715801,12.423512,-7.2508397,-2.2120216,0.52650696,-0.33262882
1603,A,8509013831138,-2.633622,1.483208,5.313332,-0.8633968,-0.57284594,-0.8359663
1603,A,8509054233787,-1.7441759,4.606444,-2.2481554,0.022370555,-5.422196,-1.0759171
1603,A,8509091839835,1.5263035,15.736489,-14.132973,1.0940266,-1.041296,-1.114533
1603,A,8509132135248,2.5270798,12.357074,-0.39384618,1.5022892,1.4879081,-0.54461646
1603,A,8509171535300,4.23235,6.9886746,-3.0478187,5.7782607,0.5478122,-0.19387813
1603,A,8509211224104,2.9604304,8.887876,4.3777976,2.6317358,-2.828277,0.21438447
1603,A,8509252465144,3.1824925,7.012018,-1.875857,1.8085527,-3.2565134,0.27403927
1603,A,8509292428266,0.90859956,10.4249525,3.5194764,-0.5368933,-0.35340148,-0.9800433
1603,A,8509332259941,4.1012673,9.808446,-0.8439561,0.30333406,-0.24687503,-0.49135324
1603,A,8509372242490,1.1366472,11.446678,1.7411832,0.5605954,0.10972224,-0.076166406
1603,A,8509412101445,5.061941,11.84651,3.0484173,-0.4098605,-0.27004454,-0.2559298
1603,A,8509452047854,2.4678235,14.248493,2.0560207,-2.402704,-0.21118867,-0.18801917
1603,A,8509491910041,2.9221232,9.651027,-4.292804,-2.9308088,1.1203918,1.5369103
1603,A,8509531697384,5.1361613,15.9022875,1.91596,-2.829076,2.6863306,2.6354642
1603,A,8509571752227,-3.6739025,19.612701,4.407127,-2.777677,-3.7196372,0.43303
1603,A,8509610212594,-0.33758244,6.845621,-3.5344403,-1.5355787,1.902296,0.93157375
1603,A,8509650055039,1.3204023,3.9827545,-2.0967221,-0.88896316,2.271144,0.3616573
1603,A,8509689984676,1.9285295,4.695628,-2.4534583,-0.53103435,2.309227,0.9102685
1603,A,8509729696968,-2.0123265,4.6142254,-1.903989,-0.35633096,2.5398567,0.59415126
1603,A,8509769491916,-4.4699745,4.0737343,0.002992752,0.7257114,1.6785904,0.39494678
1603,A,8509809617176,-3.9085343,3.0992942,3.4757824,2.1062942,-0.25699505,0.047137953
1603,A,8509849296551,1.8531121,16.54154,12.8532715,2.3931167,1.005876,-0.80134517
1603,A,8509889201968,10.005369,14.325108,7.5028296,0.34487936,-1.784318,0.44394895
1603,A,8509929091760,-1.7968484,17.302298,-3.25791,-0.6402239,0.06551377,0.31265512
1603,A,8509973070197,-3.156755,8.27496,-5.663484,-1.7137442,0.41625208,-0.5997439
1603,A,8510010016343,-1.1420342,2.8856115,2.939481,-5.326322E-4,-1.882056,-0.753142
1603,A,8510051276759,-1.5705963,7.8092875,-4.905121,-0.054328486,-5.8152785,-1.2660668
1603,A,8510089094311,1.8124107,13.2985935,-10.948685,1.1227888,-0.3549994,-0.9195895
1603,A,8510128718061,1.3946224,10.263344,-0.24061728,1.6548884,1.0644655,-0.47004795
1603,A,8510168635717,5.6844335,6.7648168,-4.353257,4.785701,0.6165218,-0.1470065
1603,A,8510208482071,2.5875335,10.827777,7.043143,3.1103058,-2.1672804,0.06791061
1603,A,8510248401759,2.236783,7.697957,-6.057929,-0.13448964,-1.8074875,-0.4048005
1603,A,8510288301863,2.8287494,9.627085,1.5131354,0.0479369,0.3054646,-0.6037386
1603,A,8510328562487,2.6144683,8.90643,-1.4927847,0.3898868,0.0026631611,-0.26551718
1603,A,8510368493009,0.7308301,11.03727,-2.1021092,0.5161206,0.108124346,-0.03781689
1603,A,8510409460666,3.560178,11.555614,2.6276364,-0.48309743,0.011717909,-0.4498079
1603,A,8510448484310,3.5835214,14.684836,1.5975311,-1.4937671,0.15632756,-0.6644587
1603,A,8510492397332,5.1726727,11.100118,-1.644218,-2.742257,1.0056096,0.83729786
1603,A,8510528306655,4.3023806,13.818135,-1.4293385,-3.0610373,2.1385183,2.1595573
1603,A,8510570332905,0.032920275,17.286137,3.7535098,-2.5110946,-2.540123,0.7028082
1603,A,8510607701394,-1.271321,9.085996,-2.1918917,-1.262871,2.006692,0.8996158
1603,A,8510647454624,1.6633717,4.56694,-1.4053963,-0.716923,2.5742116,0.51665324
1603,A,8510687627228,0.40222588,6.4721255,-1.532289,-0.49215218,2.8554413,0.9470201
1603,A,8510728325925,0.533907,4.996699,-0.8122329,-0.47697216,3.4173684,0.95128113
1603,A,8510769537073,-4.799776,6.830059,-0.04369418,0.29933932,2.4647555,0.49321744
1603,A,8510809479311,-3.127426,3.2028434,1.6214731,1.4165354,0.64821345,0.49721217
1603,A,8510849346603,-4.0066967,5.927445,6.343437,2.6993802,-0.85354316,0.025832662
1603,A,8510888551289,9.607931,19.612701,16.99584,1.4234596,0.1784318,-0.39254996
1603,A,8510928421342,4.396353,11.766903,4.9188876,-0.6372945,-0.80347574,0.5949502
1603,A,8510968363842,-4.3544545,15.637729,-6.7199254,-1.9390476,0.2796319,0.015180019
1603,A,8511007107020,-3.2561142,4.334702,4.563947,-1.6876452,-0.6101302,-0.5885586
1603,A,8511048187227,-2.6246436,4.4125137,-1.2497733,-0.041279,-5.53325,-0.98377174
1603,A,8511088077226,-1.9662381,13.51467,-11.534067,1.4932344,-2.808836,-1.4807175
1603,A,8511126733166,2.645593,12.370241,-4.6297874,1.1805793,0.8697884,-0.6764429
1603,A,8511167884204,7.391499,6.7133417,12.119449,3.1619713,0.9824402,-0.40852892
1603,A,8511207745248,5.194819,7.9972324,4.098873,3.3824809,-1.6223978,-0.23595607
1603,A,8511246248843,3.8175547,8.157643,1.650802,2.2136195,-3.994209,0.52837116
1603,A,8511287587175,1.4215573,9.792285,2.9221232,-0.8631305,-1.1291803,-0.92518216
1603,A,8511326021655,4.9536033,9.038112,-0.27353755,0.28522456,-0.34328148,-0.56885123
1603,A,8511365921655,1.7052702,11.748946,2.7102363,0.4857606,0.21065605,-0.25220135
1603,A,8511406249884,5.228338,12.384607,3.3171666,-0.5811018,-0.5933523,-0.32410672
1603,A,8511445514103,3.2597055,13.643358,3.311181,-2.3891218,-0.15765914,-0.0644485
1603,A,8511485461810,2.5983074,9.928156,-4.3568487,-3.0349383,1.0532802,1.638643
1603,A,8511525648216,7.318476,16.446968,0.9756372,-2.7153592,3.2341428,2.9744847
1603,A,8511566881916,-1.6567876,19.612701,5.805939,-2.2666163,-3.4754252,0.69109035
1603,A,8511606824205,-1.3371617,6.4122705,-4.7746367,-1.1635351,1.965413,1.27885
1603,A,8511646686447,0.8583213,3.4560301,-2.834735,-0.8956211,2.9830067,0.5747102
1603,A,8511686629728,0.7074866,5.297171,-1.4329298,-0.6106629,2.8615665,0.9443569
1603,A,8511726510092,-1.4957775,5.129577,-1.6807296,-0.4679174,2.9734194,0.5536712
1603,A,8511766404935,-4.794389,3.9444473,0.39564183,0.60507023,2.0847225,0.32756883
1603,A,8511806342019,-3.514688,2.3277626,3.9653966,1.9859192,-0.1784318,-0.0396811
1603,A,8511846210196,-0.36391866,14.031817,9.81084,2.7140274,0.82850945,-1.2101405
1603,A,8511886153007,11.407773,16.335638,6.7725983,-0.011185277,-1.6487631,0.53929013
1603,A,8511926132072,-0.6871359,14.7824,-2.3517046,-0.95447695,-0.032490566,0.5992113
1603,A,8511965951654,-4.547188,13.742718,-4.023456,-1.8905782,-0.5861618,0.040213734
1603,A,8512005823633,-1.7046716,2.4779987,1.6430209,-0.4993427,-2.513225,-0.8117315
1603,A,8512045764311,-1.417966,7.0048356,-1.5131354,-7.9894834E-4,-5.103682,-1.5126755
1603,A,8512085630196,-1.0809821,13.815741,-13.2513075,1.5054849,-0.6314355,-1.0506171
1603,A,8512125455664,1.9231426,10.8948145,-0.6302736,1.4349113,0.6508766,-0.531567
1603,A,8512164905091,3.9043443,7.61835,2.2900538,4.6373625,0.56459016,-0.6098639
1603,A,8512205342851,5.2702365,9.324817,4.7004166,3.2943304,-2.392584,-0.31372038
1603,A,8512247505299,4.238934,7.0287776,-3.229778,1.3153353,-4.0221725,-0.14407702
1603,A,8512285152488,1.9955671,9.630077,2.3959973,-0.386691,-0.41252366,-0.9483517
1603,A,8512325098268,3.244742,10.204686,-1.3293805,0.28016454,0.09960223,-0.4133226
1603,A,8512364958373,2.3229742,11.303026,0.89423436,0.46046057,0.23036344,2.663161E-4
1603,A,8512405588841,4.264672,12.175713,3.8031895,-1.0524813,-0.937699,-0.33955306
1603,A,8512444761706,4.4502225,14.3418665,0.5674258,-2.5387914,-0.16245283,0.330232
1603,A,8512484722176,2.813187,10.012551,-5.4049106,-2.9052424,1.866876,2.241849
1603,A,8512524571913,11.005547,18.96088,2.473809,-2.5092304,2.7297401,2.2937808
1603,A,8512564528635,-7.839813,15.65389,-3.8762126,-2.0423782,-3.5571842,0.6245113
1603,A,8512604380194,0.8110358,4.3718123,-3.352481,-1.0407634,2.594718,1.0913634
1603,A,8512644289362,0.30945057,4.4993033,-2.1679497,-0.67697555,3.4181674,0.603206
1603,A,8512684391341,1.4371196,3.555988,-1.7998412,-0.479369,3.3587787,0.94568855
1603,A,8512724095038,-5.005677,5.6760535,-2.2876596,-0.122771725,2.7433224,0.49721217
1603,A,8512764002853,-4.5202527,3.0490158,0.533907,1.1627362,1.1110709,0.41172472
1603,A,8512803947434,-3.502717,3.7511156,5.3265004,2.6442528,-0.42850262,-0.14141385
1603,A,8512842574467,6.5241995,19.612701,16.800713,1.8543591,1.1084076,-0.742223
1603,A,8512882461133,7.872135,9.838373,5.194819,-0.28336033,-1.2713932,0.6127934
1603,A,8512923733424,-2.183512,19.612701,-4.683657,-1.3901701,0.13901702,0.3089267
1603,A,8512963555873,-2.906561,4.9003325,-0.014963761,-2.1699438,0.2828277,-0.6178534
1603,A,8513002032903,-1.6627731,2.156577,0.91338795,0.165116,-3.0288131,-0.6359629
1603,A,8513043320091,-1.340753,9.928755,-7.3328414,0.5629923,-5.274124,-1.4298512
1603,A,8513082082799,2.1763294,13.515268,-9.552266,0.8271778,0.100933805,-1.0381002
1603,A,8513121773372,2.219425,10.14543,3.0615854,1.784318,1.0351708,-0.47244477
1603,A,8513163037540,6.4421983,6.749853,-5.9962783,4.545217,0.2711098,-0.33848777
1603,A,8513203078060,2.4875755,9.537302,5.819107,3.2895367,-3.2506545,0.2692456
1603,A,8513243023892,0.74639237,8.898649,-3.6182373,-0.7123956,-2.0735373,-0.87564737
1603,A,8513282890144,4.4885297,9.2308445,0.36032736,0.2130529,0.24820662,-0.7145261
1603,A,8513322790923,2.088941,11.537658,0.18614918,0.6087986,0.10279802,-0.3749731
1603,A,8513362732227,4.1240125,12.069769,2.0362685,-0.3123888,-0.13502227,-0.42211103
1603,A,8513402600454,4.453215,12.163742,2.0566192,-2.0045614,-0.83516735,-0.44900897
1603,A,8513442507176,3.472191,11.234193,-3.7457285,-2.8583708,0.8250473,1.2961606
1603,A,8513482446028,5.1529207,15.9735155,-1.4383167,-2.8285434,2.9742184,2.9675605
1603,A,8513522306913,3.1310172,19.612701,5.3755813,-2.3616912,-2.3257387,0.7680557
1603,A,8513560711914,-4.477157,9.950302,-4.462792,-0.44368264,2.4610271,1.4274544
1603,A,8513600365456,0.98461545,3.0963013,-2.6593595,-0.7326356,2.441586,0.6671219
1603,A,8513640473998,-0.12749124,4.751293,0.05925649,-0.74461985,3.068228,0.655404
1603,A,8513680320196,0.02932897,3.0693667,-3.7978024,-0.35606465,3.6775591,0.6783071
1603,A,8513720358373,-5.9717374,5.427057,-0.6793547,0.19014971,2.469283,0.30599722
1603,A,8513761096446,-4.472967,3.6314054,2.379238,1.6040219,0.009321064,0.32170987
1603,A,8513801483162,-3.2040405,8.459313,5.6826377,2.917493,-0.39601207,-0.36112466
1603,A,8513841196966,14.580688,19.612701,15.427038,0.5550028,-1.3464943,0.4045342
1603,A,8513879952435,3.0484173,9.902418,3.2154129,-0.6109292,-0.19441076,0.6498113
1603,A,8513921471287,-4.3179426,17.612946,-6.8905125,-1.9550266,-0.124902256,-0.0018642128
1603,A,8513961292125,-4.6058455,4.7901993,6.3991027,-0.7022756,0.021837922,-0.5496765
1603,A,8513999962800,-1.1976994,4.172495,-1.0779893,-0.022370555,-5.2075453,-0.96805906
1603,A,8514041053579,-1.270124,13.512276,-11.665748,1.5443672,-2.8101676,-1.4860439
1603,A,8514080999312,3.3393128,12.354679,-3.4793737,1.0697918,0.81039995,-0.81705785
1603,A,8514119596392,7.4932528,6.1824274,12.184691,3.597398,1.0045444,-0.5946839
1603,A,8514160770717,5.405509,8.871116,4.793192,3.551858,-1.010137,-0.21491711
1603,A,8514200670612,3.2573113,6.1740475,-0.8936358,2.0197413,-5.2160673,0.60533655
1603,A,8514240621288,1.5837644,11.185112,3.3051953,-0.49188587,-0.30386668,-0.98856544
1603,A,8514280541132,3.5637693,10.33517,-2.7162218,0.37550572,-0.4990764,-0.6173208
1603,A,8514320425924,3.0131028,12.2798605,2.8006175,0.09986854,0.4463458,-0.49055427
1603,A,8514360356341,5.7041855,11.3880205,4.497508,-0.99229383,-0.6263755,-0.50600064
1603,A,8514400240716,3.7205894,13.672089,-0.66738373,-2.485262,0.32277513,0.5632586
1603,A,8514440224778,2.2798786,11.149199,-3.3967736,-2.8565066,2.1787322,2.3451798
1603,A,8514480044830,9.610924,19.612701,2.3762453,-2.7816718,1.4426343,2.1885858
1603,A,8514519905143,-10.132261,17.94933,1.0540473,-2.4493093,-3.191266,0.3653857
1603,A,8514559854153,0.34117374,5.075109,-2.098518,-1.1185277,2.8234835,0.9571401
1603,A,8514598239153,1.3479356,2.6928782,-2.1284454,-0.38748994,2.8530445,0.50173956
1603,A,8514638268893,0.9900024,3.445855,-3.5745432,-0.3901531,3.2937977,0.8929579
1603,A,8514678178997,-3.7541082,4.8105497,-2.5103204,-0.09427591,3.0325415,0.4878911
1603,A,8514717836549,-4.8907557,4.3299136,0.16759412,1.0306433,1.0066749,0.61865234
1603,A,8514757841445,-4.2036195,5.032612,5.3223104,2.6674223,-0.56645435,0.100933805
1603,A,8514797928111,11.83813,19.612701,19.612701,1.5246598,0.11984225,-0.38748994
1603,A,8514837693372,5.8747725,8.84478,4.171298,-0.46365637,-0.41625208,0.509729
1603,A,8514877519674,-2.7126305,14.302961,-4.2838254,-0.9853696,-0.14940333,0.31638354
1603,A,8514917502643,-3.7792473,10.096947,0.26156655,-2.3654196,-1.1899004,-0.6468818
1603,A,8514957069570,-2.6234465,2.4361002,1.5161282,0.084155895,-2.5925875,-0.7454188
1603,A,8514996966965,-1.6502035,10.128671,-4.088698,1.1166635,-4.265053,-1.635181
1603,A,8515037112955,1.7202339,13.722367,-8.170812,0.92278534,0.5430186,-0.6423545
1603,A,8515078009778,2.0440497,9.136273,-0.47046062,1.7510284,0.9105348,-0.59095544
1603,A,8515117076445,7.6267295,6.736685,-1.3485341,4.437093,0.8021441,-0.48869008
1603,A,8515156793737,3.1304188,9.354745,7.890092,3.7454698,-2.4570324,0.252734
1603,A,8515196937331,-0.0011971008,9.4774475,-1.8914193,-1.4974955,-2.1435783,-1.0279802
1603,A,8515236963320,4.9308586,8.89446,-0.6691794,0.24927188,-0.21864553,-0.57391125
1603,A,8515276541706,1.7226281,12.184691,0.26994625,0.5294364,0.19414444,-0.25832662
1603,A,8515316495871,4.606444,11.326968,2.9909565,-0.6018744,-0.330232,-0.391751
1603,A,8515356541081,4.11683,12.679692,3.3782187,-2.3475766,-0.32490566,-0.35899413
1603,A,8515396995142,3.292626,10.985196,-4.805163,-2.9574404,0.8655274,1.7196032
1603,A,8515436101965,6.1626754,16.585234,0.18435353,-2.9438584,2.9358687,3.0112362
1603,A,8515475942070,-2.2972364,19.612701,4.9972973,-2.2594259,-3.8005972,0.37923414
1603,A,8515515731861,-3.2016463,9.043498,-5.3061495,-1.0266486,1.768339,1.3278521
1603,A,8515556240090,2.0099323,1.5610195,-1.6274586,-0.33422673,2.4719462,0.6348976
1603,A,8515595562799,0.24959552,5.3660045,-1.4012065,-0.36911413,2.8565066,0.72464615
1603,A,8515635567434,-0.9068039,3.0969,-1.264737,-0.4247742,3.5268242,0.4596616
1603,A,8515675372174,-5.771822,4.4568067,-0.4249708,0.3784352,1.9497002,0.39068574
1603,A,8515715224101,-4.0078936,3.5625722,2.368464,1.7193369,-0.27324033,0.23755397
1603,A,8515755146236,0.95827925,15.920244,12.487557,2.7867317,0.61226076,-0.7190535
1603,A,8515795200351,12.354679,13.445238,5.6305637,0.08335695,-2.312689,0.6535397
1603,A,8515835050976,-0.46507367,15.662269,-1.8171991,-0.69481874,0.14993598,0.6178534
1603,A,8515875419049,-6.7342906,11.334151,-9.577405,-2.2807312,-1.1832424,-0.00958738
1603,A,8515914861497,-1.0169371,3.1789012,3.083732,0.19813919,-1.3630059,-0.58935755
1603,A,8515954735820,-1.7393875,6.1524997,-1.9895816,-0.12436963,-6.231797,-1.6431705
1603,A,8515994735455,-1.4981717,15.286379,-14.799159,1.4689997,-1.3435647,-1.4002901
1603,A,8516034846392,2.3594859,10.534488,-1.2743138,0.8396947,1.1209245,-1.0114686
1603,A,8516074535924,5.306748,8.06008,3.775656,4.577708,1.3113406,-0.7952199
1603,A,8516114599830,5.704784,8.889671,5.498883,3.5739622,-1.1177287,-0.19228023
1603,A,8516154649674,3.767875,6.3548098,-1.9800048,1.587244,-5.4070163,0.3339604
1603,A,8516194220194,0.4830302,11.383232,4.5046906,-0.75633776,-0.8828379,-1.1060108
1603,A,8516234098632,4.12102,10.478224,-2.2571337,0.28362668,0.088150635,-0.66658926
1603,A,8516273955454,3.7523127,12.12723,1.127669,0.072171666,0.039947417,-0.38242993
1603,A,8516313889100,4.4017396,12.404958,3.406949,-1.3230585,-0.7536746,-0.26977822
1603,A,8516353986340,2.7132292,13.183672,-0.47884035,-2.6202843,0.17550232,0.8375642
1603,A,8516394213579,1.3862427,10.056246,-3.1681273,-3.0578415,1.7062874,2.448244
1603,A,8516434110610,11.238382,19.612701,2.8042088,-3.0037794,1.2658005,1.8983012
1603,A,8516475532538,-6.817489,16.282368,-0.427365,-1.3576796,-3.5191011,0.8692558
1603,A,8516513832694,0.91099375,4.56694,-3.9228995,-0.871919,2.422944,1.180313
1603,A,8516553727172,0.52732295,3.4105403,-2.8221653,-0.77897465,3.0389333,0.6085323
1603,A,8516594964206,1.4143747,3.040636,-2.5971103,-0.48203218,2.8647625,1.0223875
1603,A,8516633632225,-5.052963,5.734113,-2.1942859,0.013848438,2.7379959,0.44181845
1603,A,8516673520662,-3.779846,3.2662897,1.1402385,1.1978899,1.0910971,0.16751283
1603,A,8516713417068,-2.4552538,5.2265425,6.9222355,2.6450517,0.044208474,-0.29987195
1603,A,8516753222018,10.344149,19.612701,16.558298,1.3424995,0.4825648,-0.7347662
1603,A,8516794508424,4.3424835,9.542689,5.1876364,-0.4511395,-0.5001417,0.6085323
1603,A,8516832939308,-2.9879637,19.504364,-3.70802,-1.4144049,-0.6154565,0.4396879
1603,A,8516872896340,-1.851915,3.9725792,1.5496471,-1.9347866,-0.9893644,-0.5613944
1603,A,8516914288840,-1.6687586,2.992752,-0.25139117,-0.004527374,-2.595517,-0.9930928
1603,A,8516952717485,-0.9223662,12.710816,-6.782175,1.0040118,-3.1220238,-1.7403758
1603,A,8516993117226,1.9452889,13.527838,-6.613384,1.0088054,0.5515407,-0.8615326
1603,A,8517034060193,4.9015293,7.9810715,7.856573,2.154231,0.8375642,-0.3520699
1603,A,8517073722746,5.8586116,8.310873,-0.8984242,3.7478666,-0.28122982,-0.5070659
1603,A,8517112611704,1.8680758,8.219295,6.053739,3.0983217,-2.8575718,0.5201154
1603,A,8517152298944,0.39683893,10.023924,1.3970166,-0.8857674,-0.5653891,-1.0279802
1603,A,8517192226965,4.72376,9.144054,0.9995792,0.29880667,-0.4412858,-0.68842715
1603,A,8517233740973,0.82121116,10.419566,-2.1098902,0.49827746,-0.056991648,-0.5227785
1603,A,8517273488320,5.7963624,12.272678,1.6112977,-0.15925704,-0.29188246,-0.41758367
1603,A,8517313450452,5.149329,14.147937,1.5897499,-1.9499665,-0.18908444,-0.32037827
1603,A,8517352611706,2.4343045,9.713276,-1.5520413,-2.8455877,0.97924435,1.504686
1603,A,8517392861130,3.3267434,15.745467,-0.82719666,-2.876214,2.4016387,2.796053
1603,A,8517433165353,1.1043255,19.612701,4.947019,-2.4383903,-2.6474485,0.36432046
1603,A,8517473024463,-2.132635,9.132683,-4.4340615,-1.1424961,-0.08442221,1.6008261
1603,A,8517512933738,1.7567455,3.4249055,-0.8834604,-0.3387541,2.6964507,1.0183928
1603,A,8517552873836,0.1340753,4.8907557,-2.235586,-0.43675843,2.8533108,1.0785803
1603,A,8517592743950,-0.17357962,4.301183,-2.2397757,-0.22237396,3.9257658,0.7571367
1603,A,8517632783677,-6.623559,5.361216,-0.24720132,-0.010918961,2.5904567,0.5411543
1603,A,8517672590365,-4.4017396,2.3756466,2.4145525,1.4375744,0.045007423,0.19281286
1603,A,8517712444665,-2.3008277,7.3897038,5.307347,2.9121666,-0.48735848,-0.59574914
1603,A,8517752369164,16.045341,19.612701,15.195399,0.93663377,-0.60720074,-0.30466563
1603,A,8517792310048,4.5358152,8.459911,4.9559975,-0.56459016,-0.24580978,0.598146
1603,A,8517832163462,-3.5326445,17.587208,-5.5940523,-1.526524,-0.6607303,0.5251754
1603,A,8517872066921,-7.401076,7.443573,11.417948,-1.5121429,-0.76565886,-0.43915528
1603,A,8517912011179,-1.541866,4.5753193,-1.3790601,0.26738137,-3.4602454,-1.0649981
1603,A,8517951877695,-1.8369513,9.895236,-5.0918684,0.89828426,-3.538276,-1.9430424
1603,A,8517991904982,1.3694834,13.508086,-8.228871,1.0524813,0.04261058,-0.82344943
1603,A,8518031692541,3.606865,8.810063,-0.7182605,1.6727315,1.1683288,-0.7339672
1603,A,8518071587535,6.88752,7.711724,-1.9267339,4.060788,0.6498113,-0.6828345
1603,A,8518111493216,3.9893386,8.7771435,7.5590935,3.6405413,-2.2706113,0.42876893
1603,A,8518150797225,0.75357497,9.816227,-0.6254852,-1.2615395,-2.6485138,-1.0327739
1603,A,8518189970610,4.887164,9.000402,-1.3730747,0.1504686,0.031158986,-0.7550062
1603,A,8518231206390,2.9053638,11.347918,0.2813187,0.4348942,0.56672066,-0.22423817
1603,A,8518269474621,3.4757824,12.522273,3.4488475,-0.4394216,0.12250541,-0.25885928
1603,A,8518310991600,4.683657,15.485697,2.468422,-1.907356,-0.1222391,-0.09560748
1603,A,8518350967638,2.5863364,9.022549,-0.8451532,-3.1132355,0.89988214,1.5984293
1603,A,8518390870874,3.6343982,15.239693,0.19692309,-2.8192225,2.4812672,2.8453214
1603,A,8518430763787,-0.17896658,19.612701,4.2664676,-2.354767,-3.86691,0.67031765
1603,A,8518470627066,-0.0053869537,7.963713,-2.5330653,-0.89535475,2.1675467,1.1920309
1603,A,8518510573894,1.9800048,3.7565024,-2.5713725,-0.86685896,2.4141555,0.79229045
1603,A,8518550427590,0.65900403,4.7147818,-2.1535845,-0.64102286,3.3393378,1.0396981
1603,A,8518588577226,-1.7292122,4.533421,-1.9351135,-0.55979645,3.6932719,0.5946839
1603,A,8518628982485,-6.4565635,4.152743,-0.825401,0.2974751,1.9062908,0.5406217
1603,A,8518671828266,-3.2788591,1.9871874,2.896984,1.7773937,-0.109988555,0.23622239
1603,A,8518708384982,-1.1731589,8.185776,7.294534,2.9854035,0.11318435,-0.6287723
1603,A,8518749915926,14.474745,19.612701,11.965622,0.62557656,-1.4444987,0.24394555
1603,A,8518789858160,1.8261774,9.227253,2.4522612,-0.7030745,0.39894155,0.5701828
1603,A,8518829723111,-5.412093,18.430565,-4.1138372,-1.4058827,-0.7342335,0.22370553
1603,A,8518869626650,-3.2549171,5.419874,3.098097,-0.7171893,-1.5773903,-0.5049353
1603,A,8518909632433,-2.0560207,4.4807487,-0.78290397,0.36458677,-4.3023367,-1.1222562
1603,A,8518949480870,-2.2038627,13.805566,-11.060614,1.0740529,-3.717773,-1.9742013
1603,A,8518989487120,3.3566709,12.366651,-2.7311857,0.8644621,1.0018812,-0.87058735
1603,A,8519059687745,6.643311,6.4697313,9.970653,2.6397252,0.80400836,-0.5318333
1603,A,8519067382329,6.891111,8.110957,1.3814543,3.4056504,-0.5965481,-0.48842376
1603,A,8519107440037,3.7193923,7.891887,5.4917,3.0027142,-3.1318774,0.31451932
1603,A,8519147420973,0.6745663,10.401609,3.9193082,-1.2887037,-1.8069549,-1.1100056
1603,A,8519187345038,4.6142254,10.125677,-2.92751,0.034088463,-0.29694247,-0.7595336
1603,A,8519228805818,4.177882,11.137228,1.2120646,0.4889564,0.25832662,-0.1123854
1603,A,8519270932589,3.9396589,12.325949,3.7241807,-0.92784536,-0.7616641,-0.23009712
1603,A,8519306961287,3.4632127,13.5457945,0.6183026,-2.2272017,-0.10759171,0.4295679
1603,A,8519348562848,1.4951789,9.711481,-3.9935284,-3.0189595,1.2551478,1.9534287
1603,A,8519388501598,7.699753,18.451513,0.91458505,-2.4999094,2.4003072,2.8810077
1603,A,8519428362328,-3.9354692,19.612701,4.132991,-2.2897859,-3.588876,0.4788364
1603,A,8519468293318,-0.80086046,6.089652,-4.3023806,-1.1211908,1.7568874,1.2301141
1603,A,8519508170141,0.99538934,3.4823663,-3.0184898,-0.83942837,2.9814088,0.6556703
1603,A,8519548030401,0.6853402,4.3783965,-1.7968484,-0.5113269,2.8535771,0.93903065
1603,A,8519587981026,-3.0340521,4.381389,-2.2744915,-0.30786142,2.8434572,0.43010053
1603,A,8519627844672,-5.2720323,3.7205894,-0.35553896,0.7749799,1.7092168,0.29454562
1603,A,8519667750817,-3.6104562,2.7329812,3.6236243,2.1816616,-0.37124467,-0.035153728
1603,A,8519707695037,3.5835214,19.612701,14.62558,2.9683595,0.5115933,-0.8492821
1603,A,8519747647901,11.083957,11.716624,5.6096144,-0.020240024,-2.328668,0.71159667
1603,A,8519787498734,-1.7369933,19.612701,-5.400122,-1.2865732,-0.15499598,0.7174556
1603,A,8519827364568,-5.5419784,9.012972,0.23223756,-2.808037,-0.31265512,-0.5139901
1603,A,8519867260714,-1.9422961,1.6711528,1.5867572,-0.083889574,-2.122007,-0.8519452
1603,A,8519906830400,-2.1284454,8.911818,-4.6698904,1.0759171,-4.817126,-1.7872474
1603,A,8519946714463,-0.16879122,14.855423,-14.952987,1.1917646,-0.5659217,-1.1126688
1603,A,8519987024413,2.4552538,10.778097,-0.2160767,1.220793,0.41571945,-0.68389976
1603,A,8520026883421,7.9427643,6.7869635,-3.8193502,4.381699,0.23702134,-0.6993461
1603,A,8520066784256,4.3035774,9.401431,7.3472066,3.9201732,-2.467419,-0.012516857
1603,A,8520105328997,0.34596214,10.105926,-2.066196,-1.282312,-2.163552,-1.0064086
1603,A,8520145066910,4.6351743,9.1590185,-0.2124854,0.18775286,0.111852765,-0.4958806
1603,A,8520184952278,1.2910733,11.728596,1.1055226,0.4926848,0.2724414,-0.3853594
1603,A,8520226404723,4.5016975,11.162966,1.4760253,-0.46924898,-0.34408042,-0.44421527
1603,A,8520266350816,4.613028,13.763667,1.8890251,-2.0562267,-0.2330266,-0.23382555
1603,A,8520306211339,2.779668,11.830948,-1.2378023,-2.7747476,1.2311794,1.6943032
1603,A,8520347962692,4.669292,15.4084835,-1.977012,-2.7662256,3.3451967,2.9651637
1603,A,8520386020192,1.3569138,19.612701,6.377555,-2.5742116,-2.7856665,0.47803742
1603,A,8520426032796,-5.0421886,10.037092,-6.6846113,-1.2620721,0.8050736,1.504686
1603,A,8520465823421,0.99419224,2.6288335,-1.6065093,-0.7520767,2.3331954,0.84635264
1603,A,8520505781650,-0.2681506,4.1814733,-0.6027403,-0.4263721,3.2431977,0.813862
1603,A,8520545632796,-0.91937345,3.764882,-2.1625626,-0.4460795,3.6948698,0.5209143
1603,A,8520585719098,-6.2446766,5.6185927,-0.39863458,0.4788364,1.7971011,0.3536678
1603,A,8520625484463,-3.90614,3.1771057,2.9203274,1.8469023,-0.5174522,0.18375812
1603,A,8520664938475,-2.1481974,11.101315,7.3567834,3.0099046,0.376571,-0.77897465
1603,A,8520704830452,15.51742,16.906057,10.812814,0.19281286,-2.1353226,0.5866944
1603,A,8520743446443,-0.83018947,17.97447,-0.599149,-0.7142598,-0.19121496,0.5486112
1603,A,8520785165296,-2.7539306,7.8422074,-10.508151,-2.3624902,-0.17976338,-0.10652645
1603,A,8520824721028,-2.7150247,1.6801311,4.4442368,-0.45327002,-0.94968325,-0.57550913
1603,A,8520863043890,-2.6611552,6.987478,-3.6870706,0.7952199,-4.8994174,-1.1531488
1603,A,8520903169515,-1.9746178,13.355455,-13.5697365,1.259409,-2.6011095,-1.3443637
1603,A,8520943142900,1.8860323,12.061988,-1.3946224,0.88949585,0.37071204,-0.78323567
1603,A,8520984768889,6.23091,7.4465656,4.7830167,4.137221,0.8434231,-0.81705785
1603,A,8521024485666,6.7827735,9.46009,3.38181,3.4535873,-1.4013554,-0.57284594
1603,A,8521064561125,3.9953241,7.3831196,1.4909891,2.0450413,-4.0754356,0.12463594
1603,A,8521103701356,-0.58298814,11.339538,5.1062336,-1.0942929,-1.1896341,-1.0934939
1603,A,8521142594189,4.1461587,10.45069,-2.52289,0.14594123,-0.14993598,-0.73796195
1603,A,8521184099488,3.9905357,10.7356,1.1402385,0.37470677,0.04181163,-0.25007084
1603,A,8521224040542,5.2486887,11.948263,3.4009635,-1.124653,-0.47510794,-0.26977822
1603,A,8521263425420,3.309984,13.151949,-0.9636662,-2.420281,0.3549994,0.6945524
1603,A,8521302146792,2.2499511,11.644798,-1.6825253,-2.9004488,2.3185482,2.3638217
1603,A,8521343696397,10.3932295,19.612701,3.256713,-2.8514466,1.7028252,2.1941786
1603,A,8521383659348,-11.091738,16.569672,0.7009025,-1.9800603,-2.6000443,0.6825682
1603,A,8521423521564,1.2611457,4.473566,-3.0843303,-1.0394318,2.6780748,0.97738016
1603,A,8521463422202,0.53809685,3.7415388,-1.30484,-0.6937535,2.9387984,0.62078285
1603,A,8521503375213,1.1121067,2.3756466,-3.6523547,-0.18508969,3.1294806,1.0205233
1603,A,8521543227375,-4.9763484,4.26946,-1.4814123,-0.04660532,2.6288064,0.47643954
1603,A,8521583133333,-5.0930657,3.376423,0.5626374,1.1922972,0.53955644,0.3920173
1603,A,8521623084429,-3.839701,7.1395097,5.109825,2.7710192,-0.24501082,-0.3304983
1603,A,8521662945879,14.809335,19.612701,18.504187,1.2042814,-0.5360943,0.040480047
1603,A,8521702844306,4.2155905,14.55914,4.5914803,-0.53982276,-0.7163904,0.47564057
1603,A,8521742769039,-4.5316253,17.492037,-5.3528366,-2.095908,-0.48336375,-0.008522116
1603,A,8521782706029,-5.744887,3.2848446,7.0168066,-1.8785939,-0.48948902,-0.5640575
1603,A,8521822549754,-2.343325,4.469376,-0.09636662,0.345412,-5.2450957,-0.7600662
1603,A,8521862447503,-2.9532478,14.172477,-12.774263,1.3528858,-3.5436022,-1.8687402
1603,A,8521902347767,2.3259668,12.793417,-4.7261543,0.7323693,1.0013486,-0.989897
1603,A,8521942280907,7.271789,5.6179943,12.516887,3.9135153,1.7129452,-0.86366314
1603,A,8521982230495,8.951322,7.240066,4.262876,3.88209,-0.47723848,-0.6173208
1603,A,8522022083686,3.151368,7.513005,2.0691888,2.1875205,-4.9231195,0.30306774
1603,A,8522061260753,-0.16460137,10.260351,3.899556,-1.019458,-0.3323625,-0.89801794
1603,A,8522100316373,4.3514614,9.1668,-2.6791117,0.18216023,-0.05352954,-0.5422196
1603,A,8522140199738,2.0488381,12.3594675,-1.1976994,0.77125144,0.43436158,0.020240024
1603,A,8522180122063,3.9851487,12.576741,2.4157495,-0.67670923,-0.16458336,-0.4215784
1603,A,8522219923581,3.1387985,13.979145,2.2637177,-2.1145499,0.10333065,0.11611383
1603,A,8522260061545,3.1944637,8.107366,-5.3737855,-3.0482543,1.0495518,1.5973641
1603,A,8522299823110,6.606201,18.19294,1.5298948,-2.5217474,1.8692728,2.7382622
1603,A,8522339794409,-2.087744,19.612701,3.6182373,-2.245844,-2.637062,0.57577544
1603,A,8522379374984,-1.1845313,7.5968018,-3.17531,-1.2916331,2.4636903,1.1630025
1603,A,8522419407952,0.8834604,2.6880898,-2.284667,-0.98137486,2.1702101,0.77205044
1603,A,8522459341182,0.07182605,3.8983588,-1.572392,-0.5515407,3.018427,0.8881642
1603,A,8522499319462,-2.208651,4.2640734,-1.8974048,-0.3518036,2.7057717,0.47324374
1603,A,8522539234202,-4.3400893,3.9318779,-0.65242,0.66206187,1.496164,0.4079963
1603,A,8522579133525,-3.6463692,3.4769795,3.039439,1.9105518,-0.55313855,0.13475595
1603,A,8522618923212,2.8862102,13.740922,14.135366,2.662362,1.0809771,-0.86872315
1603,A,8522658704098,10.370484,15.128961,7.751827,0.06551377,-1.4106765,0.6069344
1603,A,8522698649411,-4.1796775,19.612701,-3.9618053,-1.0908308,0.36245623,0.6777745
1603,A,8522738717900,-3.7235823,3.684078,-4.5962687,-2.470082,0.17283916,-0.7166567
1603,A,8522778662328,-2.2822728,2.9071593,2.2170308,0.17257284,-2.4791367,-0.8202536
1603,A,8522818562484,-2.005144,8.489241,-5.482722,0.47297743,-5.8744006,-1.463407
1603,A,8522858375401,0.20051439,14.367006,-12.7497225,1.4082797,-0.9291769,-1.2016183
1603,A,8522898124723,3.3955765,10.604518,-0.8631097,1.6279904,1.3038837,-0.6764429
1603,A,8522938032848,3.8379054,7.0952168,1.021127,5.4427023,0.5153217,-0.9984191
1603,A,8522978078265,3.2992098,9.011177,4.753089,3.501258,-2.2602248,0.033023197
1603,A,8523017844619,1.3503298,7.6452847,-3.0621839,0.2862898,-4.391819,-0.50999534
1603,A,8523057975869,4.1425676,9.656414,-0.9127894,-0.29481193,-0.82611257,-0.8338358
1603,A,8523097886650,3.3369186,11.508329,-0.5859809,0.18562233,0.9579391,-0.29667616
1603,A,8523137855088,3.6936548,12.592304,2.6821043,0.52171326,0.06098639,0.3289004
1603,A,8523177718421,2.9921536,12.952033,3.3871968,-2.0386498,-0.14008227,-0.26844665
1603,A,8523217617900,3.7684734,11.475409,-3.0388405,-3.0828753,0.29454562,0.7965515
1603,A,8523257614932,4.0922894,13.199833,-1.2258313,-2.670618,2.772617,2.52734
1603,A,8523297333734,8.878897,19.612701,2.4277205,-2.7981834,-0.58269966,0.8857674
1603,A,8523337077900,-8.393473,12.330737,1.0432734,-0.95421064,-0.056459017,1.4468955
1603,A,8523376981441,0.9307459,3.537433,-3.2920272,-1.3195963,2.9372003,0.6785734
1603,A,8523416881025,1.6944963,4.132991,-1.0319009,-0.59787965,3.3334787,0.7203851
1603,A,8523456783004,-0.7637503,2.7581203,-1.7938557,-0.66152924,3.1915324,0.5949502
1603,A,8523496715660,-5.827487,4.947618,-2.345719,0.13608754,2.639459,0.37310886
1603,A,8523536598681,-4.71957,2.92751,2.0895395,1.6474315,0.38722363,0.4708469
1603,A,8523576639931,-2.8287494,8.465299,9.48882,2.9193573,0.29960564,-0.33822146
1603,A,8523616645660,14.52622,19.612701,11.558009,0.6695187,-1.9504992,0.36005938
1603,A,8523656340297,1.2318168,13.347075,0.45130703,-0.7163904,-0.28788772,0.5834986
1603,A,8523696233838,-7.6800003,14.668675,-10.501567,-2.0466394,-0.04181163,-0.41225734
1603,A,8523736162276,-1.8106151,4.5034933,2.3331497,-0.3355583,-1.30415,-1.0338391
1603,A,8523777338369,-1.8118122,5.3863554,-3.3393128,-0.16591494,-5.5154066,-1.3667343
1603,A,8523815725713,4.107253,14.213179,-14.499884,1.468467,-0.9105348,-0.86233157
1603,A,8523855636442,2.870648,11.04565,0.8924387,1.8983012,1.8983012,-0.7105314
1603,A,8523895779775,5.1241903,6.3111157,-5.077503,5.828328,-0.09986854,-0.0974717
1603,A,8523935708942,1.6992847,8.748413,7.827244,3.3627737,-2.798716,0.32011196
1603,A,8523975727326,0.2681506,10.681731,0.5686229,-1.0652645,-1.568602,-1.1158645
1603,A,8524015478525,4.711789,7.9062524,-1.1731589,0.13102753,-0.0793622,-0.7126619
1603,A,8524055344462,2.8113914,13.88637,-2.191293,0.6263755,0.06764429,-0.43888897
1603,A,8524095575973,2.7874494,12.32116,5.2265425,-0.2806972,-0.1222391,-0.4527374
1603,A,8524135208264,5.641338,11.304822,2.8275523,-1.9118834,-0.54142064,-0.500408
1603,A,8524175072275,3.7379475,11.048044,-5.1996074,-2.7041738,0.7752462,1.0367687
1603,A,8524214968785,3.7241807,15.180436,-0.08259996,-2.8916605,2.8674257,2.735599
1603,A,8524254905139,7.065289,19.612701,3.788824,-2.8234835,-1.7212011,0.7571367
1603,A,8524294869983,-7.1993647,11.553819,-3.1741128,-0.8314389,1.0812434,1.4524881
1603,A,8524334768525,2.0284874,3.0669725,-1.3024458,-0.9443569,2.3728766,0.88230526
1603,A,8524374691806,0.2801216,3.970185,-1.411382,-0.68176925,3.2370725,0.7912252
1603,A,8524414579723,-0.16579847,2.2906525,-2.3834279,-0.45992792,4.031227,0.71505874
1603,A,8524454525400,-6.683414,4.300585,-2.3930047,0.034621093,2.5451832,0.34940675
1603,A,8524494334774,-4.8189297,3.558981,1.7118542,1.4636734,0.16458336,0.41385525
1603,A,8524534193837,-3.8145618,8.161834,6.96593,3.1033816,-0.053795855,-0.052996907
1603,A,8524574098264,15.354015,19.612701,13.986926,0.6812366,-1.9164108,0.4013384
1603,A,8524614058993,1.3180081,12.237962,0.9564836,-0.58722705,-0.0892159,0.6130597
1603,A,8524653946805,-7.2107368,11.943475,-10.296863,-1.9877834,-0.39947417,-0.10839066
1603,A,8524694047534,-1.6286557,3.775656,1.6490064,-0.33529198,-0.9078716,-0.8253136
1603,A,8524733962743,-2.0416555,5.6030307,-2.767697,0.5925534,-4.0911484,-1.2285162
1603,A,8524773796754,0.36870706,12.790424,-15.515624,1.8362496,-2.3140206,-1.1938951
1603,A,8524813516962,2.9322984,11.853094,-2.2762873,1.3763217,0.8855011,-0.8423579
1603,A,8524853682795,6.6415157,5.777209,10.749966,3.7920752,-0.15020229,-0.51958275
1603,A,8524893646285,4.5561657,8.166023,4.2898107,3.4602454,-2.0325246,0.0063915867
1603,A,8524933549982,3.7750576,6.0345855,-3.095703,1.6152072,-5.54337,0.2591256
1603,A,8524973456753,2.8161798,10.597335,2.5330653,-0.5297027,-0.91985583,-1.1265172
1603,A,8525014957744,3.4542346,11.323377,-0.770933,0.108124346,0.30599722,-0.6831008
1603,A,8525053820451,4.1024647,11.40897,2.4384944,0.15686019,-0.034621093,-0.112918034
1603,A,8525092676493,6.043564,13.3386965,2.3834279,-1.8873823,-0.47564057,-0.22050974
1603,A,8525132565868,3.4356794,11.604695,-1.0720038,-2.875415,0.9057411,1.32439
1603,A,8525172488993,2.9520507,14.350246,-1.6687586,-2.5859294,3.0011163,2.7678235
1603,A,8525212360503,7.080253,19.612701,4.396353,-2.808037,-0.8743158,0.80747044
1603,A,8525252421545,-7.2047515,10.450092,-0.5895722,-0.36325517,1.0657971,1.531584
1603,A,8525292463420,1.2449849,2.8042088,-2.0093338,-1.2642026,3.2133703,0.6631271
1603,A,8525332442535,-0.3573346,4.177882,-0.9516952,-0.77258307,3.319364,0.660464
1603,A,8525372438576,-0.24420857,3.0831332,-2.556409,-0.47484162,3.9832902,0.7978831
1603,A,8525412449565,-6.4416,6.287772,-1.2366052,0.18908444,2.6852653,0.45593318
1603,A,8525452265816,-5.059547,3.2315738,2.4366987,1.474326,0.21358553,0.5581986
1603,A,8525492198159,-2.4552538,10.070611,10.648212,3.2423987,-0.070307456,-0.2231729
1603,A,8525531783316,13.008296,19.612701,8.473679,0.5685849,-2.21575,0.41385525
1603,A,8525572935920,-0.79487497,19.612701,-1.0133458,-1.194694,-0.29214877,0.47990164
1603,A,8525612724462,-3.2483332,4.669292,-7.4896617,-2.4517062,0.40426785,-0.5685849
1603,A,8525651734618,-2.4690206,2.3343468,2.707842,0.16724652,-1.7896442,-0.81013364
1603,A,8525691504201,-1.9416976,7.2125325,-6.9611416,0.7235809,-4.837632,-1.1843078
1603,A,8525732642170,1.0761937,12.813169,-13.666702,1.5678029,-1.1552793,-1.1100056
1603,A,8525772547587,2.3930047,10.687118,-0.64463884,1.650361,1.0476876,-0.74461985
1603,A,8525812490035,4.957195,7.2382703,2.634819,4.51246,-0.07190535,-0.65220815
1603,A,8525851360086,3.9618053,8.769362,5.626374,3.7191045,-2.2884543,0.0793622
1603,A,8525891016857,-0.320823,7.6590514,-5.8747725,0.46046057,-4.7476172,-0.5254417
1603,A,8525932198732,3.5140896,11.221623,0.3549404,-0.11424961,-0.4609932,-0.8633968
1603,A,8525972066389,2.582745,12.893973,-0.1352724,0.30599722,0.272974,-0.5278385
1603,A,8526011965555,3.915717,12.838906,4.0276456,-0.58483016,-0.09054748,-0.38562572
1603,A,8526051905241,4.4184995,11.918935,1.4401124,-2.433863,-0.43702474,-0.22264028
1603,A,8526090531702,2.6928782,11.699266,-7.1706343,-2.9055088,1.3342438,1.6967
1603,A,8526131677638,5.9442043,17.25561,1.3826514,-2.681537,2.813097,3.2213597
1603,A,8526170494461,-0.14844051,19.612701,0.98102415,-2.3097596,-2.2900522,0.55100805
1603,A,8526211265399,-2.8688521,7.321469,-3.7565024,-1.2282499,1.6223978,1.503887
1603,A,8526251427950,2.042254,2.393603,-3.177704,-1.1406319,2.9121666,0.69029135
1603,A,8526292140866,-1.1827357,5.243302,-1.3455414,-0.8159926,3.2783513,0.8567389
1603,A,8526331199931,-3.8259344,3.9193082,-2.6324248,-0.6511429,3.260242,0.4788364
1603,A,8526371104723,-5.6401405,3.2034419,-0.15322891,0.41944787,1.4197313,0.41305628
1603,A,8526411039930,-3.8899791,3.6541502,4.0916905,2.2567627,-0.38402784,0.2910835
1603,A,8526450916490,8.197148,19.612701,19.284697,2.0357203,1.0849719,-0.64341974
1603,A,8526490851285,8.197148,10.813412,4.7267528,0.11611383,-0.9672601,0.67990506
1603,A,8526530721803,-3.0137014,18.938135,-3.8420951,-1.2261194,0.17257284,0.51665324
1603,A,8526570660709,-6.7983356,7.957728,-0.4381389,-2.2748723,-1.1345067,-0.8695221
1603,A,8526610688265,-0.86729956,3.9773676,1.0390835,0.30280143,-2.7406592,-1.0229203
1603,A,8526652161022,-1.7196354,7.730279,-5.0745106,0.60507023,-4.509797,-1.6564863
1603,A,8526691227224,2.1853075,13.883976,-13.509283,1.5883093,-0.350472,-0.89855057
1603,A,8526729028732,2.9119477,10.09994,0.4985925,1.6823189,0.9965549,-0.6713829
1603,A,8526770181022,5.3624134,7.162853,-3.353678,4.545217,-0.77231675,-0.69535136
1603,A,8526810051338,3.6224272,8.868722,4.912902,3.302586,-2.8485172,0.021837922
1603,A,8526849989514,0.56682724,7.1371155,-5.889736,0.15739283,-3.8123152,-0.58483016
1603,A,8526889858419,4.184466,10.408792,-0.30705637,-0.0127831735,-0.041279,-0.7640609
1603,A,8526929885660,2.3535004,12.718598,0.33997664,0.35153726,0.4327637,-0.31478566
1603,A,8526968676076,3.493739,12.80479,3.2393548,-0.57151437,-0.05832323,-0.20612867
1603,A,8527009830138,5.6257753,14.884752,2.247557,-2.1443772,-0.19787288,-0.07163903
1603,A,8527049770086,2.7688942,8.604162,-2.806603,-2.9904637,1.2591426,1.8066885
1603,A,8527089638107,4.063559,15.975909,-0.8631097,-2.677276,2.9441247,2.7923245
1603,A,8527130105138,-0.87089086,19.612701,4.7680526,-2.4114923,-2.9217541,0.5057343
1603,A,8527169210397,-0.12090719,6.109404,-4.8428717,-1.2543489,1.9550266,1.2599416
1603,A,8527208085764,1.0821792,3.1106665,-2.7419596,-1.3805827,2.3073628,0.5174522
1603,A,8527249020555,-0.01436521,3.8594532,-1.3868413,-0.721184,2.8866003,0.85993475
1603,A,8527289410398,-2.4768016,4.3448777,-2.586935,-0.41065946,2.9084382,0.45540056
1603,A,8527329362898,-5.3342814,4.829105,-1.1372458,0.44847634,1.32439,0.4295679
1603,A,8527367411232,-4.179079,3.268684,4.6178164,1.8186728,-0.5544701,0.24687503
1603,A,8527407459043,4.0037036,14.407108,14.746487,2.7731497,0.5230448,-0.56645435
1603,A,8527449127377,10.14124,14.942213,5.6748567,0.37230992,-1.6820526,0.43782368
1603,A,8527488927273,-1.7130513,19.612701,-1.7717092,-1.1592741,0.23782028,0.4359595
1603,A,8527528875450,-4.300585,4.1922474,-5.9825115,-2.111354,0.09614012,-0.5856291
1603,A,8527567072326,-1.2814964,2.9712043,2.6384103,0.5030711,-1.2799152,-0.68816084
1603,A,8527608683314,-1.5813702,7.9032598,-4.9398365,1.1089402,-3.6898098,-1.2804478
1603,A,8527648541595,-0.3309984,13.343485,-10.819398,1.2490226,-1.8072212,-1.2466258
1603,A,8527688516441,2.3762453,10.559627,-0.84096336,1.4823155,0.1454086,-0.5925534
1603,A,8527728367794,6.215348,6.9527617,0.6679823,4.0594563,-0.47510794,-0.9624664
1603,A,8527768300449,5.1840453,9.4295635,4.076727,3.4602454,-1.9726034,-0.3254383
1603,A,8527808163942,3.453636,7.0126166,-3.5164838,1.5009576,-5.0919642,0.15978967
1603,A,8527846457689,1.1055226,11.038467,1.4850036,-0.8527442,-1.1757857,-0.99282646
1603,A,8527887960189,3.2878375,10.926538,-2.0147207,0.1784318,1.2618058,-0.4428837
1603,A,8527928087585,3.5087025,12.449849,1.2455834,0.5547365,0.5406217,0.30599722
1603,A,8527967769044,3.2620997,12.369044,3.4302924,-1.9837887,-0.551807,-0.2724414
1603,A,8528007673315,3.3207579,11.920731,-3.8337154,-2.8059065,0.008522116,0.41199103
1603,A,8528047627168,4.767454,13.953407,-0.94690675,-2.8554413,2.4051008,2.5766084
1603,A,8528087492377,7.6213427,19.612701,1.0366893,-2.1004353,-0.32304144,1.3390374
1603,A,8528127395243,-6.963536,11.028292,0.75357497,-1.6655409,-0.1933455,1.1840415
1603,A,8528165917428,1.602918,3.5661635,-2.7371712,-0.8748484,2.3686156,1.005077
1603,A,8528207820970,0.7565677,3.5122938,-1.5209166,-0.7206514,3.0828753,0.6332997
1603,A,8528245262222,-0.11552023,3.2369606,-2.0266917,-0.5811018,3.5193675,0.7126619
1603,A,8528285178522,-5.1367598,4.8309007,-2.3828292,0.13981596,2.359028,0.45087317
1603,A,8528326957378,-4.19943,3.8073792,1.4634558,1.4772555,0.51691955,0.29614353
1603,A,8528368484981,-3.9558198,7.902063,7.0467343,2.8618329,-0.072171666,-0.09853696
1603,A,8528406713783,16.897078,19.612701,14.132973,0.7685883,-1.6721989,0.3720436
1603,A,8528446668106,2.6659436,7.5985975,4.31076,-0.633566,-0.020240024,0.6114618
1603,A,8528486525190,-2.0231004,18.390461,-8.536526,-1.5140071,-0.37444046,0.023435818
1603,A,8528526473105,-3.638588,6.605004,5.005677,-0.13262543,-0.009321064,-0.4777711
1603,A,8528566329773,-2.9616275,3.9234982,-2.8018146,0.06977482,-3.8916774,-1.2615395
1603,A,8528606282222,0.051475335,10.978612,-6.090849,1.8037591,-2.0703416,-1.7395768
1603,A,8528646142325,2.6473885,14.107235,-6.139332,1.0924287,0.13209279,-1.052215
1603,A,8528686045450,4.9482164,8.569447,2.3080103,2.4682178,0.7688546,-0.6079997
1603,A,8528725953418,6.1782374,8.2833395,1.7729063,4.0360208,-1.3004216,-0.6988135
1603,A,8528765889928,2.5719712,7.8386164,0.9876082,2.8623655,-5.4645405,0.54435015
1603,A,8528805756232,0.34835634,11.312603,3.1184478,-1.3946975,-1.6897757,-0.97951066
1603,A,8528845705867,3.5033157,10.666767,-0.480636,0.5001417,0.7850999,-0.49801114
1603,A,8528885561075,4.088698,12.117055,0.65900403,-0.017310547,0.07749799,-0.34621096
1603,A,8528925508001,5.6580973,12.943653,0.97264445,-2.1268005,-1.1837751,-0.31025827
1603,A,8528965376178,2.942474,11.727997,-2.6862943,-2.7859328,0.97285277,1.4114754
1603,A,8529005325762,2.8939912,14.993689,-1.7447745,-2.6282737,2.713761,3.0021815
1603,A,8529045183991,6.801927,19.612701,0.45908818,-2.5675538,-0.25646242,1.1374362
1603,A,8529085150866,-7.053917,10.617686,-0.6314707,-1.3717943,-0.12756541,1.1547467
1603,A,8529123326804,1.6394296,2.1092918,-2.5031378,-1.3036174,2.416286,0.75580513
1603,A,8529164389927,0.12449849,4.222773,-2.0931308,-0.7366304,3.624296,0.649545
1603,A,8529204641649,-0.65780693,3.5110967,-1.79206,-0.6127934,3.6173718,0.6263755
1603,A,8529244215033,-6.5265937,4.31495,-1.1803415,0.11265171,1.7425064,0.56911755
1603,A,8529284658365,-3.5541923,3.072958,1.3054385,1.6437031,-0.34621096,0.43809
1603,A,8529324515451,-0.50517654,8.723872,9.527127,2.8165593,0.7139935,-0.45193845
1603,A,8529364598887,12.790424,19.612701,11.6855,0.35766253,-1.3693974,0.330232
1603,A,8529404312740,-0.5895722,14.101848,1.5053543,-0.7643272,-0.06231797,0.6854977
1603,A,8529444329722,-7.578247,13.685257,-12.664728,-2.0133498,-0.80773675,-0.32517198
1603,A,8529484126644,-1.6801311,3.067571,0.30406362,-0.21065605,-0.7640609,-0.7600662
1603,A,8529524095558,-2.3110032,6.3404446,-5.378574,1.0274476,-2.2093585,-1.514806
1603,A,8529563977424,-0.0712275,13.256096,-9.482835,1.4737934,-2.1054952,-1.1046792
1603,A,8529603838489,3.4290953,12.08593,-2.3475149,1.6631441,-0.041012682,-0.7518104
1603,A,8529643807456,7.7183075,5.81372,4.758476,3.2953956,-1.2405005,-0.7028082
1603,A,8529683637805,3.809175,8.880095,4.174889,3.8490667,-2.1260016,-0.073236935
1603,A,8529723541115,1.376666,6.567894,-5.771223,1.2431636,-6.4160876,0.17097494
1603,A,8529763450682,1.1432313,11.984177,0.8379706,-0.3568636,-0.66552395,-1.1124024
1603,A,8529803355493,3.489549,11.552622,0.682946,0.3768373,0.48149952,-0.53130066
1603,A,8529843300922,4.111443,12.881404,1.5280992,-0.28549087,-0.51292485,-0.30360037
1603,A,8529883161019,4.709395,11.7303915,2.8119898,-2.2985744,-1.212271,-0.2130529
1603,A,8529923071131,2.208651,10.839748,-6.344036,-2.8189561,0.7384946,1.2306467
1603,A,8529963008101,4.741118,15.928624,0.007182605,-2.7041738,2.6684875,3.455984
1603,A,8530001107639,8.286332,19.612701,4.0258503,-2.7374632,-0.49135324,1.099353
1603,A,8530040999876,-9.266159,10.362105,-2.2481554,-1.2665994,0.20612867,1.5249261
1603,A,8530080750449,1.7669208,2.2870612,-3.3201592,-1.4144049,3.1068437,0.664725
1603,A,8530120892792,1.3018472,4.312556,-0.825401,-0.9219864,3.1917987,0.5302354
1603,A,8530160996856,-3.2477345,4.222773,-2.8628666,-0.8024104,3.0791469,0.6045376
1603,A,8530200600762,-5.4737434,2.8868086,-2.3391352,0.18482338,1.6761936,0.45034054
1603,A,8530240726543,-3.2237926,2.5635915,2.360683,1.9270633,0.20186761,0.27643612
1603,A,8530280511179,0.30585927,11.000758,14.4107,2.6514432,0.98883176,-0.536627
1603,A,8530320572012,11.851298,18.953098,6.7444663,0.60240704,-1.4064153,0.6823019
1603,A,8530362176333,-0.9283517,12.935273,-4.8877625,-1.3222595,0.25672874,0.6783071
1603,A,8530402035295,-11.84232,14.489709,-1.1438298,-1.7046895,-0.30146983,-0.7669904
1603,A,8530441920138,-0.19153613,3.7612908,-2.042254,-0.37736994,-2.5920548,-1.288171
1603,A,8530481708208,-0.84694886,8.560468,-4.4238863,1.3776532,-1.7467674,-1.6575515
1603,A,8530521768470,3.5751417,13.392566,-10.146626,1.8945729,-0.4495416,-0.64821345
1603,A,8530561577377,3.6062663,10.761338,3.1603463,2.3686156,0.0013315806,-0.64528394
1603,A,8530601433105,4.0258503,6.885724,-8.163031,3.818973,-2.936135,-0.5864281
1603,A,8530641387323,2.8161798,8.665813,5.1984105,3.088468,-3.0597057,0.025566347
1603,A,8530681244253,0.7721301,8.176797,-3.2441432,0.58935755,-3.361442,-0.45193845
1603,A,8530720662064,2.184709,10.42196,-0.521936,-0.10173275,0.08655274,-1.0181265
1603,A,8530760929824,3.5535939,12.092514,1.3694834,0.35233623,0.8130631,-0.35100463
1603,A,8530800807271,3.0334535,12.027871,2.1278467,-0.36618465,-0.50786483,0.038615838
1603,A,8530840607429,3.8953662,12.178705,3.0735564,-2.3281355,-0.49774483,0.11132014
1603,A,8530880551907,1.75076,11.623251,-3.2842462,-3.0410638,0.8412926,1.7619474
1603,A,8530920439561,4.860828,16.989853,-1.4317327,-2.270345,2.7806065,3.468501
1603,A,8530960709150,2.3774424,19.612701,2.8844144,-1.783519,-1.3350427,0.9893644
1603,A,8531000522377,-4.554969,8.282741,-4.2730513,-1.2407668,1.0697918,1.3688648
1603,A,8531040378782,1.5765818,3.164536,-3.5571852,-0.97285277,2.8996499,0.60746706
1603,A,8531080330762,0.4842273,3.9755719,-2.2810757,-0.99495703,3.1656997,0.5227785
1603,A,8531118810189,-3.4326868,4.019266,-2.4768016,-0.70147663,3.3380063,0.39627838
1603,A,8531160198313,-6.7306995,4.1240125,0.04129998,0.5355617,1.2695289,0.3571299
1603,A,8531199513314,-3.537433,3.0992942,2.7611132,2.0282636,-0.5834986,0.21758026
1603,A,8531239421699,6.927623,18.883667,16.971298,2.531601,0.53982276,-0.5267733
1603,A,8531278273991,10.148422,11.192893,5.957372,0.17044231,-1.717739,0.56219333
1603,A,8531319769407,-2.2068555,19.612701,-2.9759927,-1.3957628,0.00479369,0.62744075
1603,A,8531359656021,-7.5082164,6.95336,0.320823,-1.9989687,0.24048345,-1.0125339
1603,A,8531399518160,-0.43035775,3.514688,-1.7812861,0.09773801,-1.3086774,-1.0005497
1603,A,8531439466747,-2.1978772,9.985018,-3.5643678,1.5912387,-2.6474485,-1.4618092
1603,A,8531479128210,2.5288756,11.621455,-10.272323,1.4263891,-1.5294534,-0.67271453
1603,A,8531519267480,2.1535845,10.545261,-0.7170634,1.9417108,-0.09427591,-0.70200926
1603,A,8531559133886,6.3829417,6.2105594,3.6254199,3.0322752,-1.8128138,-0.75101143
1603,A,8531599033053,4.5777135,9.309854,3.9534256,3.3894053,-2.0157466,-0.28016454
1603,A,8531639049875,2.8209682,7.796119,-1.5634137,1.4460965,-6.083193,-0.08042747
1603,A,8531678843313,2.0536265,12.211626,1.0217255,-0.42663842,-0.66179556,-1.1233214
1603,A,8531717096542,4.2036195,12.170326,1.0324994,0.18668759,0.03195793,-0.4098605
1603,A,8531758653573,4.373608,11.795633,1.483208,-1.1867046,-0.8924253,-0.28975195
1603,A,8531798550657,3.9911342,14.780005,0.007182605,-2.6474485,-0.011717909,0.6101302
1603,A,8531838569511,1.4389153,10.064027,-4.4143095,-2.8314729,1.6716663,2.748116
1603,A,8531878369146,7.697957,17.930176,1.6166847,-2.515622,2.9901974,3.1699607
1603,A,8531918263261,-5.5587378,19.612701,3.1950622,-1.1206582,-2.3896544,0.6516755
1603,A,8531958213157,-1.6579847,5.763442,-7.523779,-1.2085425,2.1076257,1.4479607
1603,A,8531998062844,0.6386533,2.747945,-4.0587707,-0.9997507,3.1939292,0.35766253
1603,A,8532037979355,-0.6847417,3.3752258,-2.697667,-0.8293084,2.8245487,0.49428272
1603,A,8532076479615,-4.4538136,3.9552212,-1.3060371,-0.15446335,2.9593046,0.48363006
1603,A,8532118639094,-5.043386,3.083732,-0.22146365,1.1973573,0.1403486,0.38056573
1603,A,8532157685865,-3.5817258,4.6441526,4.1701007,2.428004,-0.6988135,0.031158986
1603,A,8532197103991,15.530588,19.612701,19.612701,1.2958943,0.31132352,-0.54195327
1603,A,8532237018418,4.132991,7.814076,6.8264675,-0.2543319,-0.17789917,0.57391125
1603,A,8532275736281,-4.015076,16.90905,-7.9870567,-1.2964269,-0.3043993,0.7054714
1603,A,8532317297688,-7.373543,11.391612,7.351396,-1.6069515,-0.37577203,-0.88709897
1603,A,8532357253104,-1.3634979,5.1397524,-5.0667295,0.0015978967,-2.1928468,-1.3829796
1603,A,8532397290969,-1.0498575,9.941922,-3.7547069,1.6660736,-1.154214,-1.310009
1603,A,8532437070866,3.426701,12.616844,-6.353014,1.8780613,-0.75820196,-0.5094627
1603,A,8532476922427,4.336498,9.101558,3.8013937,2.4847293,-0.38376153,-0.68203557
1603,A,8532516870655,5.391742,8.048708,-4.644751,2.9414616,-2.2034996,-0.7099988
1603,A,8532556732480,3.4991257,8.274361,4.3915644,3.1726239,-2.5545042,0.039414786
1603,A,8532596682741,-1.0097545,6.872556,-6.8569937,0.6034723,-4.2818303,-0.5632586
1603,A,8532636539563,2.855684,11.419744,-2.7694929,-0.21198763,-0.6098639,-0.93184006
1603,A,8532675071282,4.5196543,12.19307,1.073201,0.39121836,0.44501424,-0.29028457
1603,A,8532716350918,3.5661635,12.33792,2.9221232,-1.0274476,-0.8759137,-0.19068234
1603,A,8532756245812,2.7814639,14.355035,1.0528502,-2.513225,-0.1768339,0.5289038
1603,A,8532796197739,1.6801311,9.81922,-2.6779146,-2.9222867,1.4604776,2.4596956
1603,A,8532836061543,7.6369047,17.471687,0.092176765,-2.442119,2.6636937,3.3332124
1603,A,8532875968156,-6.771401,19.612701,1.9273324,-1.3182647,-2.0799289,0.6942861
1603,A,8532915972791,-0.46148238,4.899135,-6.033987,-0.94755274,1.9374497,1.4791197
1603,A,8532955763886,0.22146365,3.6577415,-2.4762032,-0.91346425,3.1270838,0.5616607
1603,A,8532995854564,-0.20470424,3.8259344,-2.0667946,-0.77631146,3.174488,0.76459354
1603,A,8533035621281,-4.322731,4.176685,-2.7623103,-0.15233281,2.698315,0.54914385
1603,A,8533075479926,-4.602853,2.645593,-0.75716627,1.0519487,1.0088054,0.2580603
1603,A,8533116494771,-3.8684313,3.9456444,5.535394,2.2407837,0.10040118,-0.18961707
1603,A,8533155297740,13.515867,19.612701,19.612701,1.4650049,0.03542004,-0.48016796
1603,A,8533194344874,4.2143936,14.105439,6.0160303,-0.2790993,-0.26418558,0.68336713
1603,A,8533234611699,-2.1021092,17.122133,-10.609905,-2.8242824,0.737163,0.040213734
1603,A,8533275040760,-5.369596,2.4157495,6.862979,-1.330249,-0.050333746,-0.71505874
1603,A,8533314722012,-1.4137762,5.026028,-2.6084828,0.42397526,-3.2330775,-1.5198661
1603,A,8533355042845,-2.3840263,13.430274,-10.751761,2.0916467,-2.9555762,-1.3156016
1603,A,8533394941542,2.4881742,13.600263,-5.7389016,1.5270566,-0.6127934,-0.8839032
1603,A,8533434625969,4.3143516,9.569026,2.670732,2.364887,-0.023169503,-0.6263755
1603,A,8533473987896,5.7203465,8.746617,-3.9444473,3.6724992,-2.4426515,-0.98803276
1603,A,8533518590760,4.4382515,7.633912,5.4887075,3.721235,-2.2740734,0.052464273
1603,A,8533554328521,-2.132635,10.0748005,0.272939,0.03914847,-3.3952641,-0.67511135
1603,A,8533594204926,2.1140802,11.5633955,-3.104681,-0.107858025,0.28815404,-0.93796533
1603,A,8533634133052,5.8783636,11.87524,0.23283611,0.11664646,0.29507825,-0.1784318
1603,A,8533673030866,2.653374,11.779472,3.5230677,-1.4168017,-1.2125373,0.023435818
1603,A,8533716627894,3.0657754,11.856087,-1.3796587,-2.7342675,-0.18695392,0.62717444
1603,A,8533756490396,2.3511062,12.999318,-3.6487634,-2.6666234,2.4354608,2.7774107
1603,A,8533796664980,11.766304,19.612701,2.6521769,-2.6128273,1.5859125,2.352903
1603,A,8533833833781,-12.243349,18.072033,-1.0851719,-1.2279836,-2.553439,0.96299905
1603,A,8533873553469,0.23702596,3.4799721,-4.018069,-1.3973607,2.6690202,1.0538129
1603,A,8533913505916,0.11791443,3.9983168,-1.1019313,-0.85487473,3.2887378,0.36645097
1603,A,8533953363936,-0.20949265,2.861071,-2.3391352,-0.7685883,3.4205642,0.6490124
1603,A,8533993276387,-4.867412,4.3329067,-2.8419175,-0.27723506,2.726278,0.34088463
1603,A,8534033240603,-4.545392,2.7192147,0.16160862,1.1664646,0.86606,0.3225088
1603,A,8534073120811,-4.4113164,5.895123,6.8623805,2.7505128,0.060453758,-0.014114754
1603,A,8534112980762,14.528016,19.612701,17.407043,0.9510148,-1.3299826,0.24074976
1603,A,8534151132999,2.521693,6.30513,6.1357403,-0.3075951,0.350472,0.57577544
1603,A,8534191160448,-3.5972881,15.841235,-6.4906807,-1.1225225,0.26232138,0.42557314
1603,A,8534231225551,-4.972757,13.189657,9.8994255,-0.64075655,-0.62344605,-0.7866978
1603,A,8534272665031,-2.5983074,2.5701754,-1.8309658,-0.31185618,-3.4823494,-1.0439591
1603,A,8534310990917,0.8218097,8.808268,-5.2995653,1.520665,-2.0088224,-1.346228
1603,A,8534353027374,2.956839,13.305776,-7.9128366,1.4980282,0.02956109,-0.8996158
1603,A,8534392903782,3.5434184,8.6712,0.019153614,2.2447786,0.18402444,-0.5877597
1603,A,8534432809196,6.4751186,7.1407065,1.922544,3.7755635,-0.8522116,-0.9217201
1603,A,8534472747011,3.752911,7.81647,3.1615434,3.7630467,-2.2756712,0.1555286
1603,A,8534512606905,-1.027711,9.363124,-2.6611552,-0.11851067,-3.1864724,-1.0897655
1603,A,8534552510447,5.068525,10.409989,-2.3948002,0.118776985,-0.26551718,-0.82344943
1603,A,8534592460866,4.0934863,11.5616,1.050456,0.3616573,-0.21385184,-0.25300032
1603,A,8534632305341,5.539584,13.071144,2.2415714,-1.4317155,-0.91639376,-0.21198763
1603,A,8534672215032,3.8552632,14.5567465,-1.9117701,-2.6248116,0.33955306,1.0713897
1603,A,8534712175914,1.5765818,12.356475,-1.6879122,-2.747317,2.2897859,2.5811357
1603,A,8534752041023,9.235035,19.45648,2.0081367,-2.9305425,2.1521006,2.20563
1603,A,8534792155759,-11.297041,19.062035,0.9008184,-1.2687299,-1.5100124,0.7528756
1603,A,8534831891073,0.075417355,3.678691,-3.9606082,-1.634382,2.2863238,0.95474327
1603,A,8534871730396,0.17178397,2.7042508,-1.7465701,-1.0317086,2.6272085,0.43755737
1603,A,8534911697790,1.270124,2.3948002,-3.292626,-0.48336375,2.9784794,0.79628515
1603,A,8534951549562,-4.156334,4.309563,-2.6102784,-0.11717909,2.3467777,0.5001417
1603,A,8534991489041,-4.565144,3.5458126,-0.7116765,1.0404971,0.6745787,0.31691617
1603,A,8535031356593,-5.3259015,6.4140663,6.3272767,2.443983,0.105727494,-0.19228023
1603,A,8535071307947,13.11005,19.612701,19.472042,1.0879014,-1.4069481,0.13369069
1603,A,8535111341906,1.8142064,7.7667904,4.1479545,-0.34621096,-0.13315806,0.64395237
1603,A,8535151058365,-4.687847,18.247408,-6.569091,-1.5560851,0.20586236,0.06551377
1603,A,8535189010135,-4.7896004,6.569091,4.8877625,-0.6348976,-0.83996105,-0.9669938
1603,A,8535228604875,-1.9716251,5.7790046,-3.8600516,0.7235809,-2.8413267,-1.201352
1603,A,8535268567322,0.362123,11.14441,-7.9942393,1.7369137,-3.0061762,-1.1789814
1603,A,8535308351906,3.8241386,13.075334,-5.595249,1.2884374,-0.07137272,-1.0247844
1603,A,8535349643103,6.6079965,6.8408327,15.476718,2.8956552,-0.62078285,-0.7089335
1603,A,8535389560343,6.5445504,7.216124,2.285864,3.1739554,-1.0905645,-0.5123922
1603,A,8535430394563,3.2441432,8.145074,6.4966664,3.2565134,-2.6458507,0.40932786
1603,A,8535470346019,1.1234791,10.0269165,3.9552212,-1.2032162,-2.188852,-1.034638
1603,A,8535510203729,4.9164934,11.176133,-1.7615339,0.080960095,0.2231729,-0.7451525
1603,A,8535550153312,3.9067385,12.000338,2.1888988,0.41252366,0.11930962,-0.111852765
1603,A,8535590008885,4.584896,12.039244,3.8983588,-2.1901836,-1.0234529,-0.2695119
1603,A,8535629957843,3.2333694,12.018294,-2.0626047,-2.973952,0.2082592,0.9603359
1603,A,8535670044145,3.281852,14.203003,-3.851672,-2.5166874,3.1587753,3.0136333
1603,A,8535707552479,10.899005,19.612701,2.7192147,-2.744654,1.325189,1.4258565
1603,A,8535748710968,-10.5680065,12.293029,3.1172507,-0.8918927,-1.3747238,1.2926984
1603,A,8535789532582,0.53091425,2.72939,-3.5110967,-1.3736585,3.0839405,0.8042747
1603,A,8535829469196,0.88525605,2.5025394,-2.6258407,-0.76565886,3.4967306,0.29188246
1603,A,8535869406281,-1.4760253,3.072958,-2.585738,-0.72624403,3.0932617,0.5107943
1603,A,8535909294040,-5.146935,4.6740804,-1.7890673,0.07829694,2.144111,0.42424157
1603,A,8535949156855,-4.329315,4.144363,0.66020113,1.361408,0.1784318,0.38615838
1603,A,8535989051176,-3.5727475,7.78355,7.8853035,2.6911244,-0.02956109,0.044208474
1603,A,8536029002322,15.307328,19.612701,14.817715,0.65726817,-1.7406421,0.30306774
1603,A,8536068856436,0.6147113,14.426262,3.0190883,-0.5917544,-0.07643273,0.49508166
1603,A,8536107861124,-5.6425347,13.3225355,-12.915521,-2.267948,0.076166406,-0.267914
1603,A,8536147801958,-2.8119898,2.80361,1.9548657,-0.6668556,-0.9243832,-0.83916205
1603,A,8536188580082,-2.1218612,5.971139,-2.566584,1.1025487,-2.3526366,-1.5678029
1603,A,8536228523416,0.7128736,12.363658,-13.46918,1.8684739,-1.9041603,-0.8005462
1603,A,8536268367322,2.789245,12.732964,-0.91219085,1.3725933,0.24980451,-0.9129316
1603,A,8536306405812,5.6407394,6.5804634,6.537368,4.150803,-1.3161342,-0.79069257
1603,A,8536348232373,4.5005007,7.7787614,6.697779,3.9484026,-1.1193266,-0.2479403
1603,A,8536388080709,1.2186487,6.8970966,-6.577471,1.8381138,-5.458149,-0.018642128
1603,A,8536426346333,0.83976626,12.203246,2.0428526,-0.33981937,-0.2031992,-1.0077401
1603,A,8536467929873,2.9005754,12.386402,0.6931214,0.2775014,0.7052051,-0.4775048
1603,A,8536507793105,3.2369606,11.976994,2.8963854,-0.34887412,-0.015978966,-0.2428803
1603,A,8536546954144,4.9919105,11.013328,1.0941502,-2.2700787,-0.70014507,-0.262854
1603,A,8536586665497,2.7395654,11.96203,-6.715736,-2.9851372,1.4008228,1.4202639
1603,A,8536626631386,4.6645036,16.797121,0.4297592,-2.6141589,3.1212249,3.2192292
1603,A,8536667448155,3.7948096,19.612701,2.6755204,-2.8418593,-1.062335,0.5819007
1603,A,8536707385186,-5.531803,7.680599,-4.437653,-0.5563344,0.4348942,1.9715382
1603,A,8536747246228,1.6711528,3.0041246,-2.4492683,-1.4956313,3.0439932,0.5121259
1603,A,8536787363623,0.24540567,3.9989154,-0.94570965,-0.8580705,3.711914,0.55340487
1603,A,8536827038727,-3.4745853,2.8119898,-3.3967736,-0.6378271,3.4605117,0.5227785
1603,A,8536865658051,-6.0381765,2.8431146,-0.9427169,0.2463424,1.5933694,0.47484162
1603,A,8536904658051,-4.732738,3.0472202,3.071761,1.7473,-0.22876555,0.3898868
1603,A,8536946052894,4.3329067,15.951369,19.214666,2.2394521,1.190433,-0.5115933
1603,A,8536985741436,9.083003,13.478158,6.0663085,0.21837921,-1.0255834,0.67324716
1603,A,8537025602321,-2.8538885,16.195578,-3.3794158,-0.9528791,0.022104237,0.4575311
1603,A,8537065544509,-8.062474,13.1238165,-0.48362875,-2.1030984,-0.5451491,-1.1416972
1603,A,8537105884614,-0.57161564,3.4153287,-3.0963013,-0.20692763,-2.7989824,-1.2133362
1603,A,8537146260655,-0.7930793,9.633071,-6.5379663,1.6040219,-2.667156,-1.3755227
1603,A,8537185262998,5.130774,11.493964,-9.274539,1.2474247,-0.43542686,-0.63250077
1603,A,8537226064094,2.5833437,10.638636,2.6360161,2.07407,0.3110572,-0.74488616
1603,A,8537265974978,4.2036195,7.701548,-7.6770077,4.27464,-2.020274,-0.52464277
1603,A,8537305995654,2.966416,8.838196,7.007828,3.6424055,-2.4967136,0.054328486
1603,A,8537345790030,0.53570265,9.682152,-2.746748,-0.8945558,-2.8269455,-0.94755274
1603,A,8537388418102,4.9655743,9.785701,-0.9211691,0.14913702,0.31691617,-0.6428871
1603,A,8537424658416,1.1617863,12.400169,1.7890673,0.63383234,0.7781757,-0.2444782
1603,A,8537465548414,3.8145618,12.591106,4.150947,-0.6812366,-0.2580603,-0.2873551
1603,A,8537503406229,3.9731777,12.210428,0.8619126,-2.696717,-0.6202502,-0.08282431
1603,A,8537545353987,3.0322564,11.099519,-5.158906,-3.0067089,1.6988305,2.1268005
1603,A,8537585291955,6.101623,17.237654,0.7978677,-2.4109597,3.163303,3.4176347
1603,A,8537625161542,-2.6767175,19.612701,0.94211835,-2.3584955,-2.6911244,0.30146983
1603,A,8537665017636,-0.8439561,4.8386817,-5.381567,-0.46978164,1.5899072,1.932656
1603,A,8537704931906,0.41359833,3.0945058,-2.6689363,-1.2599416,3.1909997,0.59601545
1603,A,8537744886956,-0.7517793,2.983774,-1.6639702,-0.62078285,3.5310853,0.8612663
1603,A,8537784749875,-4.0025067,3.4464533,-2.8999767,-0.43569317,2.979811,0.37577203
1603,A,8537823690654,-5.2498856,4.2981906,-0.44532153,0.6921556,1.3038837,0.41518682
1603,A,8537865534977,-4.420295,4.337695,3.1675289,2.0634172,-0.28549087,0.15632756
1603,A,8537903554195,5.2181625,19.612701,19.240404,2.2319953,1.7443706,-0.7126619
1603,A,8537944161489,6.2434793,8.741829,6.2123547,-0.07137272,-1.7054884,0.62238073
1603,A,8537984242321,-2.468422,19.612701,-2.9891608,-1.5659387,-0.5813681,0.55100805
1603,A,8538024157373,-8.174403,5.057751,7.6105685,-2.3667512,-0.7214503,-0.79681784
1603,A,8538064108311,-2.5390508,3.5170822,-0.0053869537,0.45247108,-3.7555897,-1.1672635
1603,A,8538103962686,-1.6280571,11.058219,-11.640609,1.9877834,-4.111921,-1.4583471
1603,A,8538143869614,4.091092,11.824963,-9.8515415,0.36778256,-0.0026631611,-1.3283848
1603,A,8538181817529,2.5013423,10.820595,3.4051533,2.1038973,1.372327,-0.819721
1603,A,8538221711488,8.292317,7.7949224,-3.3087866,4.4040694,0.06471482,-0.47217846
1603,A,8538262614040,2.4953568,8.222287,10.42196,3.9185753,-3.5268242,0.2559298
1603,A,8538302568727,-0.047884032,11.606491,5.1648917,-1.7920412,-2.0730047,-1.422927
1603,A,8538342584092,5.1158104,9.562442,-3.5625722,0.31984565,0.083090626,-0.6761766
1603,A,8538383423936,3.7846344,11.902175,1.532289,0.37390783,0.13928333,-0.3043993
1603,A,8538423193936,6.8162923,11.981184,3.1693244,-1.4136059,-0.7643272,-0.28788772
1603,A,8538463140549,2.734777,12.542026,-1.3748703,-2.782737,0.5587312,1.3318468
1603,A,8538500682322,1.9458874,12.69705,-3.7110126,-2.9209552,2.6080337,2.9891322
1603,A,8538542900809,9.41879,19.612701,4.718373,-2.979012,1.1582087,1.9787288
1603,A,8538582848885,-14.372393,17.384897,-1.2557588,-1.1630025,-0.8474179,0.79442096
1603,A,8538622515027,0.45549688,2.8233624,-0.34237084,-1.3869743,1.8722023,1.0902982
1603,A,8538661908887,0.5057751,1.9841946,-2.3810337,-0.5052017,2.6810043,0.6777745
1603,A,8538701296643,1.988983,1.9692309,-3.7349546,-0.1882855,3.3300166,0.7323693
1603,A,8538741530708,-4.7734394,4.07553,-2.4073699,0.20080236,2.5917885,0.4362258
1603,A,8538781544248,-5.08708,3.0142999,1.3317747,1.2753879,0.47803742,0.41731736
1603,A,8538821017112,-1.6190789,12.269087,11.793838,2.9358687,1.1478225,-0.47990164
1603,A,8538862141018,11.78486,18.059464,8.512584,0.19813919,-1.9028287,0.5302354
1603,A,8538902045134,-3.828927,19.612701,-1.7130513,-0.99096227,-0.24474451,0.7089335
1603,A,8538941989872,-4.6160207,4.7578773,-8.039729,-2.7244139,-0.38695732,-0.4463458
1603,A,8538981851435,-1.7256209,1.8854338,4.6561236,0.165116,-2.3153522,-0.77870834
1603,A,8539021750551,-3.3650506,9.238028,-7.3723454,1.808819,-4.788364,-1.4130733
1603,A,8539061768101,1.6585833,10.931327,-13.611635,1.0271813,-1.0892329,-1.1664646
1603,A,8539100596225,2.018312,11.039664,0.6697779,1.3598101,1.262871,-0.9108011
1603,A,8539140184614,6.011242,7.0784574,-1.7687165,5.06986,-0.094009586,-0.7765778
1603,A,8539180456747,3.3961751,9.334992,6.087258,3.767574,-2.4375913,-0.0055926386
1603,A,8539218949456,0.079008654,8.391078,-4.2263646,-0.09560748,-3.3734262,-1.0341054
1603,A,8539259598884,4.5765166,9.696517,-1.917157,-0.033822145,-0.5123922,-0.65460503
1603,A,8539301124872,2.971803,13.945626,2.256535,0.54435015,0.5882923,-0.13369069
1603,A,8539338863936,3.34051,13.277045,3.9743748,-0.62104917,-0.09427591,-0.31132352
1603,A,8539380890392,4.0001125,11.522695,3.3022027,-2.3438482,-0.7438209,-0.4924185
1603,A,8539420841176,2.4007857,11.217434,-8.966286,-3.1933966,0.5603291,1.1685951
1603,A,8539460694820,5.9998693,17.617134,2.315193,-2.7680898,2.9036446,3.4051178
1603,A,8539500646331,3.8349125,19.612701,5.4521956,-2.5268073,-1.8367822,0.49454904
1603,A,8539539558466,-3.1280246,6.616975,-5.6999955,-0.4663195,1.3938985,2.0780647
1603,A,8539579476643,2.5719712,0.8714894,-3.2890346,-1.4468955,3.294863,0.55793226
1603,A,8539619363883,-0.7266402,4.823718,-0.4177882,-0.6671219,3.4442663,0.6311692
1603,A,8539657954820,-4.0043025,3.4913447,-3.5930982,-0.61705446,3.2748892,0.5139901
1603,A,8539700121227,-6.190807,3.3273418,0.026934769,0.345412,1.6530241,0.5073322
1603,A,8539740044404,-5.461174,4.4436383,5.0517654,2.347843,-0.7470167,0.36804888
1603,A,8539779983935,10.50875,19.612701,19.612701,2.1385183,0.34940675,-0.582167
1603,A,8539819839925,7.0066314,10.599131,6.0561333,0.17310548,-0.9803096,0.45220476
1603,A,8539859853832,-2.3169887,19.612701,-2.2176294,-1.464206,-0.21118867,0.46152583
1603,A,8539899648258,-6.871359,5.9783216,5.1241903,-1.814678,-0.043409526,-0.93796533
1603,A,8539939603727,-1.9351135,3.5673606,0.089782566,0.33316147,-3.371562,-0.9803096
1603,A,8539978508414,-1.8106151,10.259753,-8.726267,1.8245317,-4.177701,-1.383246
1603,A,8540019351435,3.5643678,11.827955,-10.272323,0.6892261,-0.17576863,-1.1952267
1603,A,8540059313674,2.610877,10.365696,0.9175778,2.0282636,1.0700581,-0.7518104
1603,A,8540099162737,7.695563,7.547721,-0.85891986,4.354801,-0.81253046,-0.8069378
1603,A,8540137118155,3.5757403,9.039309,8.622718,4.010987,-2.5920548,0.1685781
1603,A,8540176704976,0.45848963,10.147225,3.582923,-1.8599517,-2.1829932,-1.3254553
1603,A,8540216764195,5.1942205,9.73662,-3.29502,0.18801917,-0.051665325,-0.61625546
1603,A,8540258787894,2.9322984,12.975376,2.5713725,0.7057377,0.4348942,-0.08548747
1603,A,8540298727736,4.8069587,12.220604,5.3019595,-1.0988203,-0.6269081,-0.31718248
1603,A,8540338574717,2.3014264,12.424709,1.4622587,-2.8397288,-0.45886266,0.34168357
1603,A,8540378750549,2.754529,11.662156,-6.6349316,-3.0756848,2.385926,2.5361283
1603,A,8540417453154,10.236409,19.612701,3.8355112,-2.3920512,2.3238745,3.0842068
1603,A,8540458289926,-11.824963,19.612701,-1.5735891,-2.1502364,-3.5497274,0.5795039
1603,A,8540498245550,1.06123,2.842516,-3.3770216,-1.3291837,2.3369238,1.4439659
1603,A,8540538157112,1.0013748,2.6420016,-1.3281834,-0.9882991,3.1300132,0.4631237
1603,A,8540578052893,0.1921347,2.593519,-2.56419,-0.540888,3.5169706,0.892159
1603,A,8540617914247,-5.273828,4.0617633,-4.38498,-0.13129385,3.0439932,0.35340148
1603,A,8540657864872,-5.485116,3.0969,1.282095,1.3419669,0.4498079,0.43542686
1603,A,8540695847789,-5.225345,7.418434,6.545149,3.1374702,-0.21704763,0.00958738
1603,A,8540737638518,16.485874,19.612701,15.586852,0.7145261,-1.8295918,0.26818034
1603,A,8540777752581,0.94930094,11.299435,2.083554,-0.4460795,-0.43915528,0.59095544
1603,A,8540816466227,-8.143278,13.855844,-11.484387,-1.9523635,-0.49641323,-0.1041296
1603,A,8540857440549,-2.2810757,5.2786164,1.6382325,-0.540888,-1.8801918,-1.0772487
1603,A,8540897253882,-2.8449101,5.7029886,-2.3546975,1.046356,-4.1116543,-1.2796489
1603,A,8540937245444,1.1270704,12.402563,-13.789405,1.7859159,-2.2639532,-0.97018963
1603,A,8540977059352,2.7168205,12.596494,-0.93972415,0.85487473,0.8309063,-1.3803164
1603,A,8541016988622,4.534618,7.343615,8.296508,4.242682,0.026897928,-0.57417756
1603,A,8541056850548,6.479308,7.371747,4.533421,3.6245623,-1.0466223,-0.29321405
1603,A,8541096805912,4.097078,6.2746043,1.7812861,2.1446438,-4.771586,-0.020772656
1603,A,8541136670863,2.819771,11.402985,2.2337902,-0.4857606,-0.9078716,-0.9667275
1603,A,8541176613465,3.4422636,12.947245,-0.35254622,0.2727077,0.4822985,-0.4362258
1603,A,8541216459403,3.514688,12.794015,2.8395233,-0.2213087,-0.2609898,-0.21225394
1603,A,8541256373623,4.5938745,12.040441,3.513491,-2.2003038,-0.67937243,-0.34621096
1603,A,8541296315339,2.1733365,11.60709,-4.638766,-3.431483,0.4101268,1.4002901
1603,A,8541336181850,4.960786,17.603369,2.5635915,-2.824016,2.9609025,3.460778
1603,A,8541376083779,2.047641,19.612701,6.5631056,-2.7284086,-2.952913,0.2775014
1603,A,8541416024402,-1.8130093,6.7522473,-8.08462,-0.8383631,1.7249295,1.9164108
1603,A,8541455896173,1.536479,1.7561469,-4.0216603,-1.3534185,3.0796795,0.5840312
1603,A,8541495846279,-0.1400608,3.731962,-1.9536686,-0.6527408,3.832289,0.87618
1603,A,8541535687320,-3.4314895,3.2842462,-3.7181952,-0.6492787,2.9433258,0.5139901
1603,A,8541575676954,-5.41329,3.851672,-0.22026655,0.64395237,1.7773937,0.38589206
1603,A,8541615514300,-4.8620253,3.233968,4.8823757,2.248507,-0.6194513,0.2066613
1603,A,8541658716435,9.029133,19.612701,19.612701,2.1217406,0.3784352,-0.79708415
1603,A,8541695295496,7.019799,10.905589,6.335656,0.2394182,-1.1313108,0.63702816
1603,A,8541735237632,-3.779846,19.612701,-3.4745853,-1.5925703,-0.07084008,0.5052017
1603,A,8541775234976,-5.466561,7.4926543,3.53863,-1.5462314,-0.8902948,-0.928378
1603,A,8541815042529,-2.030283,3.454833,-0.011372458,0.2612561,-3.9366848,-0.9749833
1603,A,8541854988154,-2.0859482,10.936115,-8.751406,1.6487631,-4.413657,-1.620001
1603,A,8541894847423,4.56694,10.626664,-9.922171,0.5864281,0.09880328,-1.1949604
1603,A,8541934896433,2.070386,10.219051,1.822586,1.871936,1.2596753,-0.70840085
1603,A,8541974670186,6.8689647,7.20954,-3.70802,4.332963,-0.93397063,-0.41785
1603,A,8542012353881,2.7114334,9.937134,7.074866,3.6000612,-2.5731463,0.038083203
