Subject-Id,Activity Label,Time stamp,Accel_x,Accel_y,Accel_z,Gyro_x,Gyro_y,Gyro_z
1612,A,3952037985437,-0.29437256,-3.5923615,-5.1115875,0.8173218,-5.137268,-0.20063782
1612,A,3952088339441,-0.66947937,-3.8161774,-3.0683746,-1.0299225,-3.9794312,-1.3396301
1612,A,3952138693445,-1.6474457,-7.1747437,-0.7458496,0.49345398,-1.1898499,-2.666687
1612,A,3952189047449,-1.035202,-8.676651,-1.436615,2.300003,-2.1570435,-1.5438995
1612,A,3952239401453,-4.466385,-10.166992,3.5585785,1.7978058,-2.1386719,1.0609283
1612,A,3952289755457,-8.253403,-12.32341,4.1097717,1.1925049,-0.971817,2.2827148
1612,A,3952340109460,-10.359467,-11.830231,1.2303314,0.6565094,-0.20874023,0.8553467
1612,A,3952390463464,-6.536072,-10.752457,0.7657471,-0.50737,-1.7426758,0.38336182
1612,A,3952440817468,-1.6726532,-11.994949,-0.240448,0.34674072,-2.2135773,-0.41098022
1612,A,3952491171472,-5.463928,-8.494675,-4.511902,0.38249207,-2.3878174,-1.4175262
1612,A,3952541525476,-2.6759033,-5.742752,6.0155487,-1.4320374,-0.56892395,-0.731308
1612,A,3952591879480,-1.7267151,-3.9689026,4.947464,-0.17529297,-0.25759888,0.009124756
1612,A,3952642233484,-2.6335602,-6.2259216,1.5671082,-0.17652893,-0.029724121,-0.00592041
1612,A,3952692587488,-2.175827,-8.577209,3.5399323,0.009689331,2.2016144,-0.37269592
1612,A,3952742941492,-2.009964,-7.6824036,7.395355,1.0382996,1.4201813,-0.25193787
1612,A,3952793295496,0.11816406,-9.286423,6.5346985,-0.63256836,0.35469055,-1.3669434
1612,A,3952843649500,-3.426651,-12.54921,4.620331,-0.68803406,-1.1105652,-0.30029297
1612,A,3952894003503,0.23260498,-9.060654,-2.3910217,-0.641037,0.6968231,-0.5896759
1612,A,3952944357507,-2.750412,-7.297714,-1.2399902,-2.5692444,1.5858612,-1.018631
1612,A,3952994711511,-2.8700562,-10.886368,-0.24047852,-2.5842743,0.13197327,-0.6669464
1612,A,3953045065515,-1.4347076,-7.802368,-0.7974243,-4.137497,-0.06422424,-0.19677734
1612,A,3953095419519,-1.5606384,-9.30809,-0.4592743,-3.4334106,1.0794067,-0.4975891
1612,A,3953145773523,-1.8126831,-7.7704163,0.56987,-2.4363403,0.7064972,-0.42622375
1612,A,3953196127527,-0.3261261,-10.199509,0.0116119385,-0.95910645,2.2707367,-0.35949707
1612,A,3953246481531,-1.5504608,-10.080078,-5.277832,-0.4161377,-1.3231964,0.18145752
1612,A,3953296835535,1.0993042,-10.547485,-1.5417938,1.3836365,1.8424377,-0.5832977
1612,A,3953347189539,1.0345154,-8.148453,-5.6337585,1.684845,2.9392548,1.7465668
1612,A,3953397543542,-4.5776367E-5,-12.507706,-6.607788,3.414032,0.37321472,2.0232544
1612,A,3953447897546,-6.6221466,-13.00386,-10.460144,2.8552094,0.53456116,1.6480713
1612,A,3953498251550,-2.298111,-10.496384,2.9547577,1.8469238,1.614975,2.4912567
1612,A,3953548605554,6.4042206,-11.972397,-3.1904907,1.2639313,1.4005432,2.4690704
1612,A,3953598959558,-0.34231567,-10.858902,-1.4402161,-1.0236969,1.2101746,0.54748535
1612,A,3953649313562,-0.8413391,-9.1577,-0.22549438,-1.1822815,-0.32177734,-0.5547638
1612,A,3953699667566,1.4446869,-5.7257996,-1.452179,-1.7154694,0.051635742,-0.27487183
1612,A,3953750021570,-0.62190247,-4.900345,-3.25943,0.28897095,-0.700531,0.10261536
1612,A,3953800375574,-3.4804993,-6.1656036,-0.44882202,0.050231934,-1.2648621,-0.12705994
1612,A,3953850729578,-7.119751,-10.48645,2.0373535,-0.617218,-4.2239075,-0.5730896
1612,A,3953901083582,-7.256653,-12.476349,7.6814423,0.12611389,-6.0067596,-2.4763794
1612,A,3953951437585,-5.313492,-12.516556,-2.1017761,-0.28775024,-3.649765,-1.6243591
1612,A,3954001791589,4.939682,-12.021866,0.7221222,-3.2207947,-4.8959045,-1.4866943
1612,A,3954052145593,0.66612244,-9.960403,-2.0366364,-5.058853,-5.8513184,0.030792236
1612,A,3954102499597,-4.8359985,-8.748886,-5.9158936,-2.8734436,-3.0398254,1.0176544
1612,A,3954152853601,1.723175,-10.688324,-5.6822815,-1.5405579,0.4339447,1.017395
1612,A,3954203207605,1.1721954,-10.783691,-3.062729,-1.0224762,2.5676575,2.344284
1612,A,3954253561609,-3.9818573,-9.392578,4.1243134,-1.6791992,2.7625275,1.5597229
1612,A,3954303915613,-3.2182007,-8.93454,0.35630798,-0.6485748,2.5909424,0.93315125
1612,A,3954354269617,-1.4033813,-9.827499,-4.595703,0.1967926,4.209793,0.15823364
1612,A,3954404623621,0.12896729,-7.7359314,-4.388504,1.1545715,8.7764435,0.8916321
1612,A,3954454977625,-2.1282806,-7.8605347,-4.018921,1.258728,9.711975,2.0678406
1612,A,3954505331628,1.0499573,-9.381424,-5.8154755,1.3137054,0.9609833,2.2575378
1612,A,3954555685632,0.066085815,-12.908661,-2.505722,1.4998627,-1.128952,3.0763092
1612,A,3954606039636,3.0291138,-10.576019,-6.269455,-0.7329712,-2.905304,1.9494781
1612,A,3954656393640,-3.3063507,-9.189407,7.232712,-0.11619568,0.32717896,0.89408875
1612,A,3954706747644,4.5722656,-9.419907,-1.6038208,0.21263123,2.634613,-0.15298462
1612,A,3954757101648,9.773056,-9.199341,15.339737,0.49534607,3.5052032,-0.49128723
1612,A,3954807455652,3.703598,-8.814636,-5.5065002,0.6790161,2.4107666,-0.29330444
1612,A,3954857809656,4.2469482,-8.09082,0.85032654,2.0615234,-2.7331543,-0.87072754
1612,A,3954908163660,1.9543762,-6.376953,-3.9598541,1.1216736,-6.9420624,-0.33491516
1612,A,3954958517664,2.7919617,-7.66362,-2.2394257,1.4394989,-8.794373,0.43075562
1612,A,3955008871667,-1.168457,-10.289383,-4.019287,2.663559,-6.5984344,0.5276947
1612,A,3955059225671,-3.55484,-11.947952,3.6694489,0.48472595,2.50354,0.20240784
1612,A,3955109579675,1.9098053,-13.578995,1.0930176,-0.58413696,-0.96875,-0.32659912
1612,A,3955159933679,-0.054504395,-13.798798,0.548584,-2.8312073,1.0924683,-1.009018
1612,A,3955210287683,-4.48378,-11.828506,-9.533493,-1.5737762,-0.68614197,-0.9885864
1612,A,3955260641687,-0.7334595,-7.9027405,-9.1831665,-0.85087585,-0.87179565,-0.47532654
1612,A,3955310995691,2.7280273,-6.75708,-0.97631836,-0.5428467,-0.33514404,-0.78808594
1612,A,3955361349695,2.1563568,-5.778534,-2.6875916,0.016983032,-0.41357422,0.0390625
1612,A,3955411703699,2.86734,-4.717987,-2.4210052,-0.193573,-0.6676178,1.6488037
1612,A,3955462057703,0.32447815,-7.690796,-2.3157043,-0.0178833,-0.6527405,3.2049255
1612,A,3955512411707,-3.2147522,-10.195374,-3.206421,1.9342499,1.114563,2.6699371
1612,A,3955562765710,-3.5570831,-11.706238,-3.4471436,2.8526306,3.3903503,0.26583862
1612,A,3955613119714,1.1417389,-10.305481,-2.125702,1.8566742,1.2702789,0.6715088
1612,A,3955663473718,4.141281,-6.592972,0.80644226,1.056488,-4.2059326,1.2374573
1612,A,3955713827722,-1.7699127,-14.666992,-2.667694,0.90922546,-4.390793,0.7090149
1612,A,3955764181726,-0.59065247,-12.938385,-3.9206085,0.43041992,-3.5422363,1.2772827
1612,A,3955814535730,-0.55540466,-12.024796,-0.2489624,-0.4386902,-1.7364044,1.4568176
1612,A,3955864889734,-1.9225159,-11.15036,-0.25830078,-0.8313751,0.7696228,-0.33192444
1612,A,3955915243738,-3.580536,-8.846771,-0.8192444,-1.0767822,2.8871918,0.27511597
1612,A,3955965597742,-1.906311,-6.4342346,-0.27372742,-0.8330078,4.1423492,1.7139435
1612,A,3956015951746,-1.0971222,-5.7666626,-0.53860474,-0.21154785,4.325409,1.9140167
1612,A,3956066305750,-1.1577759,-6.976715,1.3282318,0.5357361,3.2034912,0.0045776367
1612,A,3956116659753,-0.6278229,-9.8953705,2.8150482,0.5241394,0.27085876,-0.5016632
1612,A,3956167013757,-1.7974548,-10.904236,-2.2292328,0.68315125,-0.44656372,0.25238037
1612,A,3956217367761,-5.077591,-13.00412,-1.5066833,0.7892456,0.87971497,-0.19740295
1612,A,3956267721765,-7.072937,-12.619385,0.26760864,-1.1938629,0.0073547363,-0.8065796
1612,A,3956318075769,0.35014343,-6.348816,-3.1193237,-2.6306305,-0.5371094,-1.4428406
1612,A,3956368429773,-0.34962463,-9.559418,-6.953293,-0.97561646,-0.16412354,-0.53764343
1612,A,3956418783777,-1.0606079,-10.219406,-7.410263,1.7730255,-0.047943115,0.5250397
1612,A,3956469137781,-3.246582,-10.030991,-2.9792786,1.0593109,0.75590515,-0.19265747
1612,A,3956519491785,-4.4851227,-9.16861,-1.5544739,-0.34602356,0.8086548,-0.85964966
1612,A,3956569845789,-3.101654,-7.9069214,-2.1665192,-0.080566406,0.100234985,-0.8088074
1612,A,3956620199792,-3.461319,-8.484772,-4.2302094,-0.04788208,-0.33920288,-0.8110657
1612,A,3956670553796,-4.2703857,-8.161789,-3.1879425,-0.47801208,-2.7655945,-0.07899475
1612,A,3956720907800,-4.8677063,-8.248123,-1.6233978,0.79393005,-2.0638885,1.6493225
1612,A,3956771261804,-6.2908325,-9.22821,-3.706253,2.5586548,1.1873932,3.5800323
1612,A,3956821615808,-8.848923,-12.665756,-3.216034,1.6476746,2.590454,3.6012878
1612,A,3956871969812,-6.9098206,-14.826447,0.39860535,-0.16818237,-0.45733643,1.7714539
1612,A,3956922323816,-2.5896606,-12.7881775,0.40463257,0.018829346,-0.72325134,0.8128662
1612,A,3956972677820,1.7177734,-9.168655,-4.3320313,-0.5843353,0.713501,0.34436035
1612,A,3957023031824,-0.71754456,-9.553497,-4.7586517,-0.8306732,-0.5410919,-0.2626648
1612,A,3957073385828,-5.0758057,-6.4587097,-2.8976288,-0.3271942,-1.1464081,-1.1406555
1612,A,3957123739832,-4.753891,-4.3810577,-1.0527344,0.36035156,0.26660156,-1.2812347
1612,A,3957174093835,-3.2148132,-5.6260376,-0.1703186,-0.03149414,1.3818359,-1.094162
1612,A,3957224447839,-3.828827,-6.7502594,0.7010498,-0.53193665,0.40411377,-2.4471283
1612,A,3957274801843,-8.202621,-6.6197205,0.51631165,0.15379333,-0.11917114,0.79763794
1612,A,3957325155847,-9.06604,-7.0059814,-2.1382446,1.4881592,-0.4019928,0.25758362
1612,A,3957375509851,-10.766739,-12.40802,-1.8491516,1.602417,-0.33895874,-1.5574646
1612,A,3957425863855,-3.9459076,-13.168411,-0.045074463,0.5538635,1.2667542,-0.9471588
1612,A,3957476217859,0.8835144,-7.370285,-2.3241577,-1.1352081,-1.0049744,-1.1109924
1612,A,3957526571863,-0.08003235,-9.018951,-1.8811798,-2.5793762,-0.7756958,-1.6664886
1612,A,3957576925867,-2.3389587,-10.93898,-5.694626,-1.4706573,1.2661285,-0.7783661
1612,A,3957627279871,-1.4062042,-6.9096985,-4.557907,0.2214508,1.5312958,-1.2324677
1612,A,3957677633875,-3.678131,-8.472015,0.017745972,0.381485,-0.79818726,-1.512146
1612,A,3957727987878,-4.815338,-11.297974,1.8920746,0.22047424,-1.5225525,-1.1939697
1612,A,3957778341882,-3.661911,-8.053436,-0.5971985,0.91871643,-1.3737183,-0.1643982
1612,A,3957828695886,-5.4403687,-8.743439,-2.2795868,0.9805908,-3.546875,2.438263
1612,A,3957879049890,-6.827484,-9.450714,-0.899353,2.4835815,0.73931885,3.8158875
1612,A,3957929403894,-8.912796,-10.977814,-2.2996979,1.6766968,5.17128,3.0668945
1612,A,3957979757898,-7.6942596,-13.197571,0.0897522,-2.486267,-1.8579407,1.5601654
1612,A,3958030111902,-3.1017609,-17.49591,2.5702972,-1.6674652,-0.9367523,0.5116272
1612,A,3958080465906,-0.123916626,-14.261322,-6.588089,-0.1565094,-2.7960968,0.7545166
1612,A,3958130819910,-1.2257843,-10.154358,-4.522232,-0.31852722,-1.3766327,-0.6482086
1612,A,3958181173914,-1.6295929,-6.7815857,2.110855,-1.848877,2.1100311,-1.5199432
1612,A,3958231527917,0.9371033,-6.2949524,-2.536148,-0.39518738,0.046783447,-0.7285309
1612,A,3958281881921,1.3676605,-5.8276825,-2.3806305,-0.025787354,-3.0691528,-1.0127563
1612,A,3958332235925,-7.4174957,-12.98317,16.337692,0.8996277,1.155777,1.0084229
1612,A,3958382589929,-15.281006,-13.829239,1.1923218,1.3095856,1.3239288,-0.05831909
1612,A,3958432943933,-9.650757,-15.270676,1.9208679,0.8401947,-0.22550964,-1.7042999
1612,A,3958483297937,-0.8934326,-7.005356,-0.22035217,-0.34065247,2.4873505,-1.1983337
1612,A,3958533651941,1.8903351,-4.998001,-3.9142303,-0.35816956,-0.13839722,-2.1131287
1612,A,3958584005945,-0.63772583,-10.780106,-3.1768036,-0.6573181,-3.451126,-2.0938263
1612,A,3958634359949,-0.7814331,-8.449402,-4.094467,-3.0443878,-0.5796814,-1.4684753
1612,A,3958684713953,-1.184967,-7.7545166,-3.1184387,-1.1265259,0.66278076,-0.943161
1612,A,3958735067957,-4.8274994,-10.417847,-3.201889,0.22329712,1.8715668,-0.16090393
1612,A,3958785421960,-5.801712,-11.26387,0.90815735,0.63731384,0.6852722,-0.2074585
1612,A,3958835775964,-4.453476,-8.104477,1.6245728,0.84820557,0.019592285,0.69703674
1612,A,3958886129968,-4.447876,-9.45694,-0.7161102,0.75816345,-0.73161316,2.6865082
1612,A,3958936483972,-5.7566223,-10.581024,-2.2565308,1.3082275,0.080581665,3.4794464
1612,A,3958986837976,-6.7927704,-12.196106,-2.3338623,0.76745605,5.1207123,3.7667847
1612,A,3959037191980,-5.087677,-11.249191,-1.9913483,2.1052246,2.013855,2.391449
1612,A,3959087545984,-2.1538544,-14.979858,2.629013,-0.73654175,-2.947647,0.7911377
1612,A,3959137899988,3.0998993,-17.117401,2.1912994,-1.8761139,0.17588806,0.87828064
1612,A,3959188253992,2.177475,-10.142975,-3.20401,0.0947876,1.4186249,0.1854248
1612,A,3959238607996,-2.2618713,-6.090912,-9.038269,-0.73654175,-0.1302948,-1.5176544
1612,A,3959288962000,-5.2448883,-3.19693,4.2593994,0.24423218,-1.6200867,-1.3101959
1612,A,3959339316003,-1.3145294,-5.6645203,-1.6950073,-0.6342163,2.5003967,0.06465149
1612,A,3959389670007,-1.7241974,-6.019623,-0.847641,0.95669556,0.05984497,-0.47709656
1612,A,3959440024011,-14.626373,-10.519974,-6.6187134,-0.42248535,0.13780212,0.821167
1612,A,3959490378015,-11.798706,-9.207642,-1.7785187,1.1355896,1.2486725,0.11062622
1612,A,3959540732019,-2.3139496,-11.98555,-0.83955383,2.1761017,1.3610077,-1.3566132
1612,A,3959591086023,-0.99632263,-11.962433,-0.14518738,2.290924,3.3070374,-1.2188568
1612,A,3959641440027,1.537674,-3.9650574,-0.16473389,0.12911987,-0.5025482,-2.1948547
1612,A,3959691794031,0.3590088,-8.117477,-1.0547333,-1.3741913,-4.823288,-2.444687
1612,A,3959742148035,-1.1574402,-12.834122,-4.287079,-1.4739685,0.02432251,-1.8716583
1612,A,3959792502039,-2.1756744,-8.832657,-9.772827,-1.7342682,4.11644,-1.6732635
1612,A,3959842856042,-4.4018555,-9.772324,-1.9873657,-0.4514923,0.97494507,-0.86602783
1612,A,3959893210046,-5.753067,-8.936111,1.8117371,0.71736145,-2.1451263,0.63061523
1612,A,3959943564050,-6.319336,-9.360245,-0.9074249,1.465332,-0.2328949,1.0432281
1612,A,3959993918054,-5.3605194,-8.117737,-0.71899414,0.89208984,1.3049469,2.5722961
1612,A,3960044272058,-4.7838745,-10.200302,-1.0059052,0.35687256,-0.86424255,3.7387695
1612,A,3960094626062,-5.48378,-12.75589,-1.8427429,-0.1667633,0.31163025,4.486267
1612,A,3960144980066,-4.5919952,-14.591492,-4.9957733,0.35005188,2.1797943,3.0088348
1612,A,3960195334070,-2.2481842,-13.081604,-1.3102417,0.16711426,-0.06700134,0.80207825
1612,A,3960245688074,-0.024414063,-14.269302,0.5979004,-0.5252991,-1.621109,0.5231323
1612,A,3960296042078,1.463211,-11.767624,-1.2850037,0.21221924,-0.07493591,0.750824
1612,A,3960346396082,-0.7717285,-6.2626953,-4.3201904,-0.010498047,0.30581665,-0.19470215
1612,A,3960396750085,-6.230133,-5.2170563,1.9466248,-0.41271973,1.248169,-1.4418793
1612,A,3960447104089,-2.8693695,-5.3641205,-2.597351,-0.9102783,0.83251953,-2.1664581
1612,A,3960497458093,-0.93896484,-6.628174,-2.7877655,0.86709595,-0.50886536,-1.2135773
1612,A,3960547812097,-4.148102,-6.2306976,-2.4159088,0.9097595,-0.12690735,-0.33906555
1612,A,3960598166101,-14.383469,-7.1136627,-1.7805634,-0.07762146,1.6884613,-0.15943909
1612,A,3960648520105,-9.744217,-7.509857,-1.0358887,0.8260498,0.11517334,-1.1906433
1612,A,3960698874109,-1.2723846,-13.133591,-0.2998047,1.6773834,1.03685,-0.8867798
1612,A,3960749228113,-1.0831299,-10.809586,-3.7092285,1.2097168,2.8872375,-1.1911621
1612,A,3960799582117,-1.2178192,-5.511078,-0.7471161,0.13536072,1.4509735,-1.5836334
1612,A,3960849936121,-0.7608948,-8.428925,-1.316803,-0.25671387,-0.6495056,-1.3907471
1612,A,3960900290125,-1.3925476,-10.755768,-3.4297333,-0.72520447,-0.50231934,-1.5221405
1612,A,3960950644128,-2.6069946,-8.77327,-5.8012238,-1.0053406,1.0245819,-1.8105164
1612,A,3961000998132,-3.0243988,-9.497543,-3.6275177,-0.43113708,1.3005524,-0.9214325
1612,A,3961051352136,-4.1025543,-8.997681,-1.3185425,-0.4609375,1.7177429,0.0834198
1612,A,3961101706140,-5.658951,-9.360596,-0.4962921,0.23094177,0.3793335,0.6753845
1612,A,3961152060144,-5.0766907,-9.629303,-0.9060211,1.0761261,-1.8493958,1.8387909
1612,A,3961202414148,-5.032593,-11.428497,-1.1022339,2.1036072,-2.15802,3.5115662
1612,A,3961252768152,-4.9468994,-9.899597,-1.4014587,1.7747192,9.0026855E-4,2.4490967
1612,A,3961303122156,-5.8668976,-8.971603,-1.7913208,-0.5648804,0.60832214,1.5890045
1612,A,3961353476160,-5.1024017,-14.32222,0.70617676,-1.5829468,1.5198059,1.6046143
1612,A,3961403830164,-5.699402,-19.386353,1.6456299,-0.7462158,0.7413025,0.7676544
1612,A,3961454184167,-5.6563873,-12.929672,-2.1532135,0.019363403,-1.107132,0.2512207
1612,A,3961504538171,-2.3488922,-3.2164764,-1.317627,0.22053528,-0.009292603,-1.4403992
1612,A,3961554892175,-0.60388184,-4.161789,-0.12809753,-0.4473114,-0.09451294,-1.9910583
1612,A,3961605246179,0.64486694,-7.359329,-0.95932007,-0.28599548,-1.0704803,-0.9446564
1612,A,3961655600183,-2.269043,-8.272018,-0.99983215,0.49128723,0.19454956,-0.89808655
1612,A,3961705954187,-10.708603,-10.636063,0.23017883,1.2467651,0.753891,0.16416931
1612,A,3961756308191,-7.071457,-9.38237,0.8767853,1.3139038,-0.08392334,0.30949402
1612,A,3961806662195,-5.0980835,-14.430344,0.2749939,0.4003296,1.2277374,-0.952652
1612,A,3961857016199,-3.6298828,-12.91745,-1.4360962,0.31370544,2.2536774,-0.8255005
1612,A,3961907370203,0.63531494,-4.230942,-3.7215424,-0.7824249,0.12677002,-1.1841125
1612,A,3961957724207,0.3110199,-6.265335,-3.2058716,-2.0307922,-2.7584686,-1.3691101
1612,A,3962008087165,0.17749023,-10.798645,-3.8016205,-1.8108673,-1.6212158,-1.7023926
1612,A,3962058441169,-0.8553009,-8.718918,-5.6522675,-0.2865448,1.372055,-1.3156128
1612,A,3962108795173,-1.5992584,-7.6214905,-1.8199921,0.9220886,1.2905273,-1.5747528
1612,A,3962159149177,-4.5568085,-11.468201,1.529953,0.7263794,-1.9678497,-0.87797546
1612,A,3962209503181,-4.4674225,-10.998169,0.96203613,0.7286377,-2.6719208,1.5319519
1612,A,3962259857185,-5.0526276,-9.855209,-2.5159302,1.864212,-1.5134277,3.8983765
1612,A,3962310211189,-8.018112,-10.949219,-3.5854492,2.1850739,3.299057,4.143936
1612,A,3962360565193,-8.953476,-11.369675,-2.0278625,-1.2464447,-0.4827423,2.5726318
1612,A,3962410919197,-5.0858,-14.0056,0.9979706,-2.8282318,0.35290527,0.9627838
1612,A,3962461273201,-0.60180664,-17.38298,0.22311401,-0.83628845,-1.9926453,0.9785614
1612,A,3962511627205,2.7822876,-12.564636,-3.141571,-0.3665924,-2.181717,0.22666931
1612,A,3962561981208,-6.334137,-7.238846,5.235138,-0.577713,0.6776428,-0.565979
1612,A,3962612335212,-3.4704132,-4.3901367,-0.7038574,0.12226868,-1.9017792,-1.3069153
1612,A,3962662689216,-1.4694977,-6.482971,-1.1981201,-0.21818542,-0.44606018,-0.7354431
1612,A,3962713043220,0.24285889,-8.271271,0.58444214,0.8375397,-1.0018158,-1.2355194
1612,A,3962763397224,-8.946365,-7.3640594,-3.7095184,-0.2061615,2.2921753,0.52604675
1612,A,3962813751228,-10.01059,-8.298096,-3.850113,0.782959,1.1791992,0.013336182
1612,A,3962864105232,-8.483688,-16.039474,-0.25386047,1.4653778,-0.6004944,-1.0465698
1612,A,3962914459236,-2.560501,-9.769669,-1.6183472,0.48069763,1.55896,-0.7004242
1612,A,3962964813240,0.063201904,-4.8918304,-1.694046,0.33128357,1.5948029,-1.7762451
1612,A,3963015167244,-1.0865326,-8.796616,-2.833084,0.57414246,-0.861969,-1.8742981
1612,A,3963065521247,-0.2795868,-10.089981,-1.5546417,-0.88972473,-1.3987885,-1.4457092
1612,A,3963115875251,-0.8811798,-8.029388,-2.4858856,-0.99095154,-1.5121002,-1.7341309
1612,A,3963166229255,-3.8549347,-10.176651,-3.25914,-0.4709015,0.9345398,-1.1096039
1612,A,3963216583259,-3.45607,-8.45665,-1.8287048,0.32699585,1.7046661,-0.5112457
1612,A,3963266937263,-5.370178,-9.796936,-0.2731781,0.26533508,-0.13996887,-0.4598999
1612,A,3963317291267,-4.405609,-8.354218,0.35333252,0.0657959,-0.8789978,0.084609985
1612,A,3963367645271,-4.8040466,-9.790878,-1.6986694,0.14782715,-1.9065704,1.4877014
1612,A,3963417999275,-5.4799347,-11.060364,-2.5895233,0.076690674,-2.015091,2.398819
1612,A,3963468353279,-6.2053375,-11.850174,-1.9138184,1.4621277,1.1027222,3.725937
1612,A,3963518707283,-4.84169,-9.714813,-2.3746033,1.2946625,3.0397491,2.645172
1612,A,3963569061287,-4.2070923,-10.729218,0.9067688,-1.6918945,-3.7514496,0.95118713
1612,A,3963619415290,-1.5538788,-12.912216,1.7185669,-2.7721405,-0.41708374,0.37321472
1612,A,3963669769294,-0.46142578,-12.334473,-10.398544,-0.7908325,0.19422913,0.17799377
1612,A,3963720123298,-0.2324524,-9.836395,-4.0411835,-0.36010742,-1.3495941,-0.6109619
1612,A,3963770477302,-2.3708954,-5.145752,3.4244385,-0.3159027,-0.96266174,-1.5550079
1612,A,3963820831306,-1.2632904,-6.54187,-0.41308594,-0.51724243,-2.5963287,-0.70288086
1612,A,3963871185310,-0.46495056,-7.663376,-0.6269226,-0.8479309,-1.3193817,-0.30871582
1612,A,3963921539314,-8.490829,-9.751907,1.5252686,0.32893372,0.62220764,-0.76356506
1612,A,3963971893318,-13.596085,-8.483994,-2.5456085,0.37756348,1.2931976,0.33358765
1612,A,3964022247322,-2.3323975,-8.929535,0.25479126,1.2475586,-1.3233185,-0.68006897
1612,A,3964072601326,-7.225937,-19.14061,2.5547485,0.6575012,-1.9135437,-1.572937
1612,A,3964122955330,-0.44351196,-6.34581,-2.6165009,-0.5690918,-1.6984406,-0.9439087
1612,A,3964173309333,0.014816284,-3.0332336,-2.2702942,-1.3175507,-1.9422913,-1.4178009
1612,A,3964223663337,-2.1057281,-9.322662,-3.4210968,-1.8832703,-0.7495575,-0.7518463
1612,A,3964274017341,-3.3234863,-12.605835,-3.8960419,-1.4419708,-0.47903442,-0.6365509
1612,A,3964324371345,-2.6356812,-7.5190887,-2.1325226,-1.5751343,0.56082153,-0.119644165
1612,A,3964374725349,-3.109085,-8.41394,-0.7230835,-0.37095642,-0.9582825,-0.9198456
1612,A,3964425079353,-2.9618683,-9.375244,-0.30877686,-0.32818604,-1.0657043,-0.61776733
1612,A,3964475433357,-1.5851898,-9.715683,-0.61434937,0.8149872,-1.6331329,0.0039978027
1612,A,3964525787361,-3.173462,-9.602631,-1.3524628,0.8420563,-1.5519562,2.183319
1612,A,3964576141365,-5.405655,-10.948303,-0.99168396,1.6730499,1.3043823,3.1034698
1612,A,3964626495369,-6.3230896,-10.441788,-2.1406708,1.3995056,3.823639,3.1603546
1612,A,3964676849372,-5.899063,-12.150162,-0.17404175,0.3876648,0.9352875,1.920578
1612,A,3964727203376,-1.8657684,-13.705383,1.5298309,0.17132568,-1.257782,0.5823822
1612,A,3964777557380,0.66412354,-13.965073,-2.0999908,-0.07972717,0.35165405,0.631897
1612,A,3964827911384,1.9142303,-9.086441,-2.1738586,-0.10017395,0.5194397,-0.09298706
1612,A,3964878265388,-1.8483887,-6.6775665,-1.5232849,-0.28971863,0.71443176,-0.9320984
1612,A,3964928619392,-2.637268,-6.058609,-1.103775,0.01651001,-0.53630066,-1.3464661
1612,A,3964978973396,-2.8500977,-5.712372,-1.1741638,-1.0062561,-0.7327423,-1.1947174
1612,A,3965029327400,-4.332855,-6.8032684,-1.1277313,-0.13154602,0.83691406,0.3151703
1612,A,3965079681404,-10.420959,-7.9138947,-3.0318146,0.6365814,1.4763641,0.35191345
1612,A,3965130035408,-10.192459,-9.090775,1.6239929,1.2854462,-0.78549194,-0.4205017
1612,A,3965180389412,-4.0472565,-13.164719,-0.7527313,1.2285767,0.033554077,-1.630249
1612,A,3965230743415,-1.0900574,-11.1801605,-1.7015533,0.31140137,1.9650574,-1.2646942
1612,A,3965281097419,0.48091125,-4.2816467,-1.4519501,-0.22686768,0.67233276,-1.1608887
1612,A,3965331451423,-0.55296326,-7.4131927,-2.8610992,-0.4837799,-1.6126862,-1.6496124
1612,A,3965381805427,-2.5113678,-13.525101,-4.650635,-1.3403625,-1.665802,-1.5411682
1612,A,3965432159431,-0.7189331,-7.2934723,-4.279251,-2.00177,-0.48266602,-1.2519836
1612,A,3965482513435,-3.190628,-8.772308,-1.8547516,-0.5828705,-0.11555481,-0.56607056
1612,A,3965532867439,-4.700653,-10.760025,-1.160553,0.5846863,1.2957611,-0.14093018
1612,A,3965583221443,-5.1951904,-9.319763,0.10295105,1.3153381,0.35968018,0.07862854
1612,A,3965633575447,-4.2591705,-9.024216,0.9543915,1.0280609,-1.4334412,1.5231628
1612,A,3965683929451,-4.615082,-10.432571,-0.48794556,0.78038025,-0.77363586,3.158432
1612,A,3965734283455,-5.7494507,-10.512573,-3.0015717,0.96598816,2.662201,3.6786804
1612,A,3965784637458,-6.950531,-12.543335,-2.905365,-0.04133606,3.5673523,3.1900177
1612,A,3965834991462,-4.052841,-13.105713,0.2418518,-0.8209686,-1.1080627,1.2552338
1612,A,3965885345466,-1.0927887,-13.309723,0.54071045,-0.8489227,-2.3488464,0.37303162
1612,A,3965935699470,1.4030914,-10.785034,-2.5431976,-0.67637634,0.05517578,0.36169434
1612,A,3965986053474,0.5285034,-8.1770935,-4.004135,-0.09536743,-0.81230164,-0.24093628
1612,A,3966036407478,-3.2609406,-6.851532,-1.0133972,0.0856781,-0.35694885,-0.98106384
1612,A,3966086761482,-3.428421,-6.278595,0.532074,0.025558472,0.47387695,-1.5924072
1612,A,3966137115486,-0.7362671,-6.195633,-0.26296997,-0.42900085,0.999588,-1.3004761
1612,A,3966187469490,-3.7395477,-7.5339203,-0.5458679,-0.3080597,0.72154236,-0.48880005
1612,A,3966237823494,-9.657623,-9.567993,-0.5916748,0.066207886,-0.72494507,0.20271301
1612,A,3966288177497,-9.396759,-10.178436,-0.8928833,0.8823395,-0.31808472,0.46168518
1612,A,3966338531501,-8.678848,-13.601517,-1.4089203,0.8245239,-0.2663269,0.05899048
1612,A,3966388885505,-5.0330505,-11.501785,-0.2830658,0.37702942,1.0207062,-0.40745544
1612,A,3966439239509,0.26127625,-7.2053833,-4.0656586,0.7277069,2.3318481,-1.4022827
1612,A,3966489593513,0.8704529,-8.790176,-3.5737,0.49343872,-0.73158264,-1.9845428
1612,A,3966539947517,1.1434479,-8.747055,-0.6364746,-0.8005676,-2.3749542,-1.7865753
1612,A,3966590301521,-0.39657593,-8.397736,-3.721405,-1.7960205,-0.43055725,-1.7428894
1612,A,3966640655525,-3.5646515,-10.302399,-4.8589783,-0.9518585,1.1216278,-1.160202
1612,A,3966691009529,-4.2885895,-9.559921,-2.4367828,0.16464233,1.2254791,-0.44454956
1612,A,3966741363533,-5.3392334,-8.871872,0.06524658,0.6990967,0.7733154,0.0045776367
1612,A,3966791717537,-5.7289124,-8.880692,0.45014954,0.82177734,0.12797546,0.9971161
1612,A,3966842071540,-5.019638,-9.126068,-0.8195801,0.52957153,-1.2023163,2.9427338
1612,A,3966892425544,-5.691757,-10.1419525,-1.8327179,1.1443787,0.52142334,4.2145386
1612,A,3966942779548,-6.8881073,-10.4791565,-2.901001,0.42575073,5.677429,4.0473022
1612,A,3966993133552,-5.9788666,-10.772522,-1.6197205,-0.581604,0.37190247,1.6704407
1612,A,3967043487556,-4.2458496,-16.287674,2.503189,-1.0985107,-3.1521301,0.1027832
1612,A,3967093841560,0.69381714,-15.271545,-1.6200867,-0.6060486,-1.4789124,0.21739197
1612,A,3967144195564,1.2896423,-9.109756,-4.0228424,-0.25778198,0.12736511,-0.1725769
1612,A,3967194549568,-3.1585846,-5.036087,0.32489014,-0.35594177,0.8589325,-1.7583008
1612,A,3967244903572,-2.4370422,-5.0067596,-0.41470337,-1.1495056,0.27841187,-3.0292664
1612,A,3967295257576,0.0066223145,-4.8105164,-2.167984,-0.23382568,-2.5603027,-1.9423523
1612,A,3967345611580,-0.97029114,-8.095505,-1.8630371,0.4333191,-1.3034363,-0.1506195
1612,A,3967395965583,-11.025787,-12.417816,-0.7855835,1.0415955,2.2747498,1.0091095
1612,A,3967446319587,-8.634628,-9.402542,-0.885437,1.4315948,2.6936188,0.62435913
1612,A,3967496673591,-9.9674225,-16.236893,0.6289978,0.9192505,4.2812347,-0.21902466
1612,A,3967547027595,-2.3895721,-9.405899,-1.3401642,-0.25149536,1.295227,-0.86628723
1612,A,3967597381599,1.9644623,-4.4151764,-1.5240326,1.1151428,-2.662201,-1.8315735
1612,A,3967647735603,2.1550598,-11.829529,-6.345337,-0.68315125,-3.39859,-2.1723938
1612,A,3967698089607,3.0987244,-8.837143,-3.1383667,-1.650589,-1.0563049,-2.0401459
1612,A,3967748443611,-1.1247406,-8.563522,-3.003952,-0.6689453,1.5030365,-2.0235138
1612,A,3967798797615,-3.6620026,-10.650665,-1.636322,-0.11439514,1.026413,-0.8917999
1612,A,3967849151619,-5.018692,-9.911163,0.6989746,-0.13441467,0.6767731,0.7257385
1612,A,3967899505622,-6.4065857,-8.914093,-0.13250732,0.515625,0.6731415,1.1437988
1612,A,3967949859626,-7.6704865,-10.27916,-2.2281647,0.58766174,-1.1339722,2.1239471
1612,A,3968000213630,-4.9186554,-10.343491,-0.69880676,1.6144562,-1.6850433,3.8029327
1612,A,3968050567634,-4.501129,-10.748276,-1.7265015,2.2776337,4.246414,4.0654907
1612,A,3968100921638,-5.1255646,-9.588608,-1.8513031,-0.65930176,3.1833496,1.9908295
1612,A,3968151275642,-4.341202,-14.653442,2.7148438,-2.1840973,-3.531723,0.5348053
1612,A,3968201629646,0.098236084,-16.209259,0.7774353,-0.340271,-1.4522552,0.3207245
1612,A,3968251983650,0.38897705,-9.862396,-10.209763,-0.14945984,0.23286438,-0.44551086
1612,A,3968302337654,-0.19760132,-4.739044,3.3449402,-0.26306152,1.4846802,-2.245987
1612,A,3968352691658,-1.2993164,-6.415924,-0.42938232,-1.0866394,-2.2207184,-2.4521484
1612,A,3968403045662,0.19688416,-5.575363,-2.162674,-0.34695435,-1.7198944,-0.50123596
1612,A,3968453399665,-6.2162323,-9.729446,8.129303,1.0332489,-0.19371033,-1.0116425
1612,A,3968503753669,-15.141556,-12.492035,0.38978577,0.7484741,0.8390045,1.2771454
1612,A,3968554107673,-4.1509247,-5.3970337,-0.3351593,0.83680725,1.425766,0.2919922
1612,A,3968604461677,-5.7372284,-14.7291565,1.1866608,1.205246,2.830536,-0.47201538
1612,A,3968654815681,-2.9445953,-13.380463,-2.186554,-0.15904236,4.8716583,-0.28588867
1612,A,3968705169685,0.18302917,-3.2802277,-1.9180145,0.5463104,-0.7932129,-1.614685
1612,A,3968755523689,1.7564392,-7.988632,-1.0134888,0.53460693,-3.6572418,-1.5085602
1612,A,3968805877693,2.8516388,-12.02211,-7.224823,-1.4402924,-1.7836151,-2.6621552
1612,A,3968856231697,-0.16567993,-7.3032684,-2.1031647,-1.1702423,1.6187897,-1.8115692
1612,A,3968906585701,-2.824829,-9.228317,-3.4527588,-0.9817505,2.3794556,-2.035492
1612,A,3968956939705,-4.5229797,-10.309235,-0.63345337,-0.85365295,0.46714783,0.54330444
1612,A,3969007293708,-6.8388367,-10.095795,-0.6028137,1.3674927,0.16926575,1.0031891
1612,A,3969057647712,-8.234741,-10.5603485,-2.0665588,1.8529663,-0.9564514,2.5420532
1612,A,3969108001716,-6.014221,-9.511978,0.48013306,2.2484589,-3.74086,5.147888
1612,A,3969158355720,-6.33342,-9.173172,0.70236206,1.619461,2.3043518,3.2051544
1612,A,3969208709724,-6.3398743,-8.267166,-3.603363,-1.9601746,3.6075287,1.8139648
1612,A,3969259063728,-4.842163,-15.666016,-1.0292969,-4.6513367,-1.2818298,0.84228516
1612,A,3969309417732,-2.4585266,-18.333054,-3.2591858,0.25906372,-3.5907288,-0.20748901
1612,A,3969359771736,-0.54089355,-9.09166,-5.685257,0.14678955,0.05105591,-0.30949402
1612,A,3969410125740,1.7509613,-2.8376007,1.8447266,-0.3420868,1.5874176,-2.2528229
1612,A,3969460479744,0.6412964,-5.921234,1.4870911,-0.40097046,-2.3287506,-2.069046
1612,A,3969510833747,0.5992279,-5.5730133,-2.5970612,0.06585693,-0.80215454,-0.12272644
1612,A,3969561187751,-4.4961853,-11.294952,4.290344,0.5296173,0.25926208,0.39511108
1612,A,3969611541755,-15.816299,-14.168915,1.5953217,0.4375763,1.1595001,0.39039612
1612,A,3969661895759,-6.884659,-13.489761,-0.50587463,1.3393097,0.44651794,-0.8552704
1612,A,3969712249763,-5.72493,-12.084198,-1.3501434,0.39385986,2.3007355,-1.1061554
1612,A,3969762603767,-0.378479,-5.328125,-1.4564972,0.10229492,3.5219574,-0.9181366
1612,A,3969812957771,1.0019836,-7.7064514,-3.8671417,0.39157104,-0.17504883,-1.9591675
1612,A,3969863311775,-1.1740875,-12.471054,-1.5588074,-0.62857056,-2.6493073,-1.4997253
1612,A,3969913665779,0.35177612,-7.2725983,-2.8677216,-1.0178833,-1.7889404,-1.6581268
1612,A,3969964019783,-2.6926117,-8.66011,-4.315445,-0.74954224,1.5436096,-0.89530945
1612,A,3970014373787,-4.2495117,-10.228516,-2.5089111,0.7126007,2.528244,-0.24407959
1612,A,3970064727790,-4.448593,-8.758987,-0.4637146,0.6297302,0.6702423,-0.38949585
1612,A,3970115081794,-5.094574,-8.52504,0.06889343,-0.35580444,-0.74568176,0.26646423
1612,A,3970165435798,-4.335266,-9.554611,-1.607605,-0.38464355,-1.5028687,2.397873
1612,A,3970215789802,-5.87381,-10.892746,-3.6686707,0.59373474,-0.05570984,3.9876556
1612,A,3970266143806,-7.082428,-10.837494,-2.6228943,1.446701,4.333145,4.143265
1612,A,3970316497810,-6.002289,-11.08107,-0.6377716,-0.43611145,2.5671997,2.3164063
1612,A,3970366851814,-3.3300781,-14.9739685,2.140091,-0.9545593,-3.1300354,0.512619
1612,A,3970417205818,-0.38252258,-16.541595,-0.8647003,-0.09701538,-1.2609863,0.47010803
1612,A,3970467559822,2.2126465,-9.498413,-6.5727997,-0.15278625,0.5020447,-0.11860657
1612,A,3970517913826,-0.89372253,-5.8530426,-0.65545654,0.013305664,0.8230133,-1.1638947
1612,A,3970568267830,-2.3576813,-4.5975494,-0.106674194,-0.24769592,-0.45767212,-1.3085175
1612,A,3970618621833,-2.3300629,-5.4965057,-2.2552643,-0.123428345,-0.35043335,-0.368515
1612,A,3970668975837,-5.449753,-6.6849213,-3.3389587,0.76312256,-0.037384033,-0.042114258
1612,A,3970719329841,-11.310501,-8.980194,-4.263809,0.60191345,1.3248291,0.030593872
1612,A,3970769683845,-8.883514,-9.622147,0.6200409,1.4748993,1.4139099,-0.72410583
1612,A,3970820037849,-3.0593567,-12.30191,-1.4524078,1.4512177,1.3194122,-1.4937897
1612,A,3970870391853,-2.1266174,-12.177155,-2.0039215,0.9173279,1.2290955,-1.8105469
1612,A,3970920745857,-0.037963867,-6.825882,-2.445984,0.26867676,-0.38996887,-2.0437164
1612,A,3970971099861,-0.8200531,-8.411713,-3.291275,-1.0437317,-1.3948975,-1.8195953
1612,A,3971021453865,-2.3669739,-9.646515,-3.8481445,-1.489212,-0.03617859,-1.2467957
1612,A,3971071807869,-3.668213,-9.12648,-4.935028,-0.40596008,1.2840576,-0.8258209
1612,A,3971122161872,-4.547043,-9.217545,-1.9008179,0.86943054,1.4907684,-0.40467834
1612,A,3971172515876,-4.9382935,-8.660294,0.40333557,1.1199188,0.36016846,-0.2368927
1612,A,3971222869880,-5.0894012,-9.234909,0.67607117,0.43762207,-1.0421448,0.31063843
1612,A,3971273223884,-4.6349945,-9.643036,-1.2425537,-0.36305237,-1.9476318,1.8926239
1612,A,3971323577888,-5.829712,-11.042511,-3.148758,0.45118713,-1.5293732,3.2694092
1612,A,3971373931892,-6.970154,-10.526794,-3.3304596,1.5434113,2.0023193,3.4492645
1612,A,3971424285896,-6.0215454,-9.484848,-1.5713348,-0.36434937,2.6457977,2.6535034
1612,A,3971474639900,-4.652008,-13.408691,1.4766693,-2.0535278,-2.0394135,1.1766052
1612,A,3971524993904,-2.3201904,-16.59436,0.99168396,-1.5534668,-2.7248993,0.42144775
1612,A,3971575347908,0.20283508,-12.175201,-5.3878174,-0.71980286,-0.60879517,0.104003906
1612,A,3971625701912,0.8073883,-6.6735535,-4.0275726,-0.15196228,0.2561798,-0.6023407
1612,A,3971676055915,-0.08131409,-5.349716,1.358429,-0.30903625,0.77638245,-1.1872101
1612,A,3971726409919,-0.9979553,-5.605667,-0.26316833,-0.33987427,-0.57751465,-0.88557434
1612,A,3971776763923,-4.4561462,-7.362732,-2.103012,0.35186768,-2.6143646,-1.2705688
1612,A,3971827117927,-9.963638,-9.332016,-0.83599854,-0.2743988,-0.44540405,0.1391449
1612,A,3971877471931,-6.625992,-7.3546753,-1.0555115,0.46643066,3.378769,0.86154175
1612,A,3971927825935,-7.094742,-12.237015,-3.0782318,1.2142181,2.4044952,-0.2995758
1612,A,3971978173481,-5.4341125,-12.001785,1.611084,1.2284851,1.2398529,-1.0710144
1612,A,3972028527485,0.4270935,-6.520645,0.5663147,1.0852051,0.16156006,-2.0209808
1612,A,3972078881489,2.6311798,-7.4168396,-2.305542,-0.271286,-2.4359894,-2.286789
1612,A,3972129235493,0.40644836,-9.235352,-2.4935455,-1.6658325,-2.3392334,-1.7594299
1612,A,3972179589497,-1.6500549,-8.38414,-4.5991364,-1.6146088,0.92681885,-1.4157257
1612,A,3972229943500,-4.735077,-10.1792755,-5.004837,-0.3628235,1.2493286,-0.74890137
1612,A,3972280297504,-4.642761,-8.82341,-1.2908478,0.31965637,0.6379242,-0.08860779
1612,A,3972330651508,-6.236862,-9.436798,0.46949768,0.94551086,0.31074524,0.36746216
1612,A,3972381005512,-5.7465515,-9.682022,-0.49594116,1.0272522,-0.47166443,0.9737396
1612,A,3972431359516,-5.230301,-10.364258,-0.9556427,0.7566986,-1.9747314,2.1958466
1612,A,3972481713520,-4.975891,-11.71965,-1.3592224,1.84758,0.015319824,3.4465942
1612,A,3972532067524,-5.824936,-10.440292,-2.4434814,1.5706177,4.4839325,2.8662262
1612,A,3972582421528,-5.151474,-9.992889,-0.9554291,-1.9192047,0.49420166,1.6914978
1612,A,3972632775532,-3.6741028,-15.59523,2.00914,-2.3381042,-1.3898468,0.38891602
1612,A,3972683129536,-0.23745728,-13.773285,-4.02034,-0.37486267,-2.1296997,0.5268097
1612,A,3972733483539,0.27339172,-8.552628,-5.748825,-0.37028503,-0.50483704,-0.29066467
1612,A,3972783837543,-1.3403473,-4.570038,4.6294403,0.14512634,0.8229675,-1.5761871
1612,A,3972834191547,-0.7931671,-6.3759766,-0.17233276,-1.1071167,0.27781677,-1.7676239
1612,A,3972884545551,-0.24830627,-6.4345703,-1.1508026,-0.036712646,-0.8985443,-0.37390137
1612,A,3972934899555,-5.214218,-8.005127,-4.3739624,1.0321503,-0.3582306,0.4945526
1612,A,3972985253559,-15.101517,-11.34935,2.7746582,1.4891815,0.8340759,0.0995636
1612,A,3973035607563,-7.1665344,-10.081512,-1.1193237,1.2960815,0.3212433,-1.5300751
1612,A,3973085961567,-2.256485,-11.918701,0.08770752,0.3449402,1.695755,-1.2364502
1612,A,3973136315571,0.29144287,-7.891281,-2.0079498,0.5606842,0.7853546,-1.9958496
1612,A,3973186669575,-0.5574646,-8.572067,-3.6701813,-0.24797058,-1.9719238,-2.6238403
1612,A,3973237023579,-1.632843,-10.713455,-2.2650757,-3.009903,-1.2363892,-1.3789673
1612,A,3973287377582,-0.7003174,-7.388489,-4.5772705,-1.6907959,-1.5398712,-1.1715546
1612,A,3973337731586,-3.5140228,-9.259064,-4.0144806,0.4997406,1.333435,-0.49108887
1612,A,3973388085590,-4.0398865,-9.24884,-0.7890625,1.8000488,0.953125,-1.0865784
1612,A,3973438439594,-5.0029755,-9.129883,2.2556915,0.9064789,-1.2156982,0.72987366
1612,A,3973488793598,-2.8371582,-8.53067,1.1452332,-0.06814575,-0.107910156,1.9839935
1612,A,3973539147602,-6.468231,-10.404282,-3.8172302,0.21817017,-1.1804352,3.9502106
1612,A,3973589501606,-6.685013,-12.080154,-4.6762695,0.15248108,2.7000427,4.040146
1612,A,3973639855610,-6.5315704,-11.053192,-2.741455,-1.3602905,3.563095,3.1241455
1612,A,3973690209614,-4.4629517,-13.120544,0.063827515,-0.20979309,-3.7764282,0.6478729
1612,A,3973740563618,-2.4821014,-19.371033,1.8439636,-0.8538971,-1.942215,0.5338898
1612,A,3973790917622,1.315506,-10.902359,-3.004837,0.0368042,0.7815857,0.5474701
1612,A,3973841271625,0.46318054,-6.386673,-1.9519196,-0.040039063,1.3805237,-0.85240173
1612,A,3973891625629,-2.1536407,-4.368088,1.8913727,0.16923523,0.84947205,-2.6823425
1612,A,3973941979633,-0.37512207,-5.246216,-2.2222595,-0.95765686,-0.43380737,-2.1386566
1612,A,3973992333637,0.48519897,-5.637726,-1.1057281,0.519989,-3.1371765,-0.8080597
1612,A,3974042687641,-7.460327,-9.857101,-3.0771027,0.26678467,-0.35440063,0.680542
1612,A,3974093041645,-16.459686,-13.115768,0.5158386,1.1276093,3.9476166,0.6157074
1612,A,3974143395649,-5.8643646,-7.5687714,-2.3361511,1.3800049,2.2223206,-0.19920349
1612,A,3974193749653,-8.191208,-18.214813,1.279541,1.1175995,2.0380402,-1.016922
1612,A,3974244103657,0.8463745,-6.5583496,-2.2398987,-0.17060852,-0.392807,-1.579773
1612,A,3974294457661,2.447647,-5.102783,-2.7338867,-0.044799805,-2.5217743,-2.2772522
1612,A,3974344811664,0.024917603,-12.363892,-4.357193,-1.4656372,-1.7950745,-1.340805
1612,A,3974395165668,0.46122742,-7.128006,-3.1555176,-0.34031677,0.17655945,-1.6577911
1612,A,3974445519672,-2.8305664,-8.956665,-2.9493103,0.34498596,2.0765686,-1.2600555
1612,A,3974495873676,-3.8919983,-9.806473,0.12585449,0.20199585,0.13464355,-1.0495605
1612,A,3974546227680,-4.079666,-8.924271,0.83750916,-0.143219,-0.82455444,0.61860657
1612,A,3974596581684,-4.7039337,-8.889664,-2.0577393,0.1456604,-1.0098114,2.284607
1612,A,3974646935688,-7.416092,-10.642883,-3.8426208,0.31825256,-0.89790344,4.0322266
1612,A,3974697289692,-6.9021454,-11.519379,-1.7503052,0.98973083,2.8866577,4.4143524
1612,A,3974747643696,-6.5825043,-11.859299,-2.0516205,0.0082092285,3.0984344,3.5379791
1612,A,3974797997700,-3.581955,-13.997559,0.99417114,0.17550659,-2.3372192,0.62991333
1612,A,3974848351704,-1.1483154,-17.719833,2.0552368,-0.52227783,-2.2773132,0.4603119
1612,A,3974898705707,2.9853363,-10.166931,-2.0689392,-0.04067993,0.14494324,0.22898865
1612,A,3974949059711,0.18640137,-5.5040283,-2.0486908,-0.13726807,1.4680786,-1.3345947
1612,A,3974999413715,-2.8290405,-4.4122467,0.7635803,-0.2866974,0.93470764,-2.0596008
1612,A,3975049767719,-1.9200134,-4.928116,-3.244873,-0.7688904,-2.8483124,-1.0657349
1612,A,3975100121723,-4.6970367,-5.340317,-2.7850342,1.0142517,-0.20329285,0.28897095
1612,A,3975150475727,-12.520187,-8.734924,0.6017456,0.9634552,1.4283905,-0.08772278
1612,A,3975200829731,-13.202194,-10.956482,4.834076,0.84085083,0.41262817,-0.89012146
1612,A,3975251183735,-0.18887329,-11.770996,-2.0486298,0.80674744,-0.60635376,-1.6678009
1612,A,3975301537739,-0.7318268,-13.410797,-2.0411377,-0.0448761,0.6769562,-1.4401398
1612,A,3975351891743,0.32736206,-6.431122,-2.776596,-2.593994E-4,1.1765289,-1.5807953
1612,A,3975402245747,-0.70407104,-7.05307,-3.38266,-0.6031494,0.88464355,-1.6317596
1612,A,3975452599750,-2.521103,-10.690308,-2.6483307,-1.5400085,-0.27496338,-1.336853
1612,A,3975502953754,-2.1954346,-8.232132,-2.4187775,-0.85546875,-1.5170441,-1.249939
1612,A,3975553307758,-3.579544,-8.687744,-2.0450592,-0.09887695,0.25582886,-0.7204437
1612,A,3975603661762,-3.7471008,-9.271576,-1.6083984,1.3202057,0.94862366,-0.6699066
1612,A,3975654015766,-3.2567444,-8.889633,-0.05368042,1.0152893,-0.4410553,-0.5048065
1612,A,3975704369770,-3.249878,-9.358551,0.6502228,0.102752686,-2.2233582,1.1071167
1612,A,3975754723774,-5.0435333,-10.941223,-1.7343597,0.82489014,-2.3030243,3.5275116
1612,A,3975805077778,-7.328964,-11.424271,-4.2075043,2.1311798,1.79245,3.9794006
1612,A,3975855431782,-7.646591,-10.011536,-2.934494,-0.14900208,3.6358185,2.491211
1612,A,3975905785786,-5.025696,-11.649124,0.9003296,-3.480194,-1.1663055,1.1869965
1612,A,3975956139789,-1.8640442,-16.1456,0.2838745,-2.1486511,-3.0131378,0.44291687
1612,A,3976006493793,-0.09196472,-13.389267,-6.836273,-0.110061646,-1.8001099,-0.08493042
1612,A,3976056847797,0.6892395,-7.020996,-0.47705078,-0.32202148,0.113601685,-0.8823242
1612,A,3976107201801,0.57699585,-5.992111,4.206848,-0.6479187,0.6604614,-2.1184845
1612,A,3976157555805,0.307312,-7.1056824,-1.1671753,-0.49713135,-1.5710754,-2.3946533
1612,A,3976207909809,0.70332336,-7.8038025,-1.5871124,-0.29525757,-1.3538513,-1.0870514
1612,A,3976258263813,-6.5679474,-10.237335,-2.5859985,0.49658203,2.0014038,1.0752716
1612,A,3976308617817,-10.577835,-10.854309,-3.1782837,1.7583923,3.1625366,1.4333191
1612,A,3976358971821,-11.760544,-14.8146515,0.60014343,0.83106995,2.1855621,0.43215942
1612,A,3976409325825,-6.4632416,-11.898376,0.72052,-0.18502808,0.78622437,-0.939682
1612,A,3976459679829,2.5887299,-6.264267,-1.9912872,0.28164673,-2.032257,-2.273285
1612,A,3976510033832,2.9813232,-10.553894,-4.091034,-1.1575165,-3.4325867,-2.4723206
1612,A,3976560387836,3.188263,-8.975449,-3.472046,-1.526474,-1.0494232,-2.3300018
1612,A,3976610741840,-0.13775635,-7.5669403,-3.8829346,0.0048675537,1.9551392,-2.1161041
1612,A,3976661095844,-3.6114197,-10.445618,-1.3949127,0.40208435,1.0946808,-1.6206207
1612,A,3976711449848,-4.8134766,-10.820648,1.8668671,0.21266174,-0.38694763,0.55862427
1612,A,3976761803852,-5.9789276,-9.922852,-0.76171875,0.52337646,-0.58384705,2.7215576
1612,A,3976812157856,-8.653702,-10.2892,-3.8810577,0.7636719,-0.759079,4.1147614
1612,A,3976862511860,-7.2328033,-9.7712555,-2.0159454,0.6746826,3.1968994,4.320694
1612,A,3976912865864,-5.975052,-10.902954,-1.6766205,-0.94480896,3.3546143,3.1499481
1612,A,3976963219868,-3.9519653,-13.918198,0.29936218,-0.8198395,-2.4942627,0.9933319
1612,A,3977013573872,-2.0585175,-17.96457,1.0907135,-0.46839905,-2.208313,0.45062256
1612,A,3977063927875,1.1446075,-12.370163,-3.6878052,-0.35209656,0.058441162,0.11148071
1612,A,3977114281879,1.1142731,-5.4088593,-0.8290558,-0.2575531,1.467453,-1.116806
1612,A,3977164635883,-2.0641632,-4.768814,0.12084961,0.42147827,-1.4200745,-2.5424194
1612,A,3977214989887,-0.8137665,-4.8354187,-1.5395203,-0.7911072,-1.0362701,-2.0282593
1612,A,3977265343891,0.68647766,-6.337036,-0.2702942,0.83029175,0.2286377,0.3840027
1612,A,3977315697895,-9.756119,-10.756744,-6.677231,1.4974823,2.1527405,1.4651947
1612,A,3977366051899,-14.220947,-16.14592,-3.489212,1.158371,1.6086426,-0.08352661
1612,A,3977416405903,-6.335907,-13.533081,0.9151459,1.6272278,1.1148834,-1.570221
1612,A,3977466759907,0.13308716,-6.5749664,-1.578537,0.52308655,2.5297241,-1.4273987
1612,A,3977517113911,4.1523743,-4.486084,-2.5040436,0.9950104,-0.4986267,-2.6926422
1612,A,3977567467914,-0.17077637,-11.839462,-3.0521088,-0.21708679,-3.9567566,-2.2570648
1612,A,3977617821918,-0.8896942,-9.293091,-2.8104858,-2.6963348,-2.4818573,-1.7312775
1612,A,3977668175922,-2.5269928,-8.761368,-3.7314758,-1.7459564,-0.30978394,-1.0360565
1612,A,3977718529926,-5.564682,-11.312927,-4.6374664,0.29794312,1.0612183,-0.30989075
1612,A,3977768883930,-4.2681274,-8.878937,-0.71095276,1.4459686,1.6701508,-0.03326416
1612,A,3977819237934,-4.569092,-7.8690796,2.1115723,0.94992065,0.7655792,0.1821289
1612,A,3977869591938,-4.0747223,-8.843597,0.5938721,-0.19908142,-2.2410889,1.7910004
1612,A,3977919945942,-3.7436981,-9.949402,-1.6247864,-0.12646484,-2.7512207,3.1557617
1612,A,3977970299946,-5.6245575,-12.253143,-5.315933,0.93322754,1.3906403,3.573944
1612,A,3978020653950,-5.7258453,-12.205887,-4.0024567,0.23901367,3.622116,3.8853302
1612,A,3978071007954,-3.1535645,-13.53093,0.60946655,0.31526184,-0.5511017,1.2536621
1612,A,3978121361957,-1.6775513,-15.991623,1.7204742,-1.3119965,-4.099411,0.74513245
1612,A,3978171715961,1.6709595,-11.748871,-1.3404541,-0.9748688,1.7891388,0.85954285
1612,A,3978222069965,2.0001984,-7.2061615,-5.8311005,-0.34431458,0.30885315,-0.61590576
1612,A,3978272423969,-0.86268616,-4.733429,-0.85292053,0.43572998,-0.13195801,-2.1152039
1612,A,3978322777973,-2.3432312,-5.492508,0.83036804,-0.96798706,-1.6153717,-1.97789
1612,A,3978373131977,-0.5001221,-6.2491455,-0.50668335,-0.3701477,-0.85754395,-0.28112793
1612,A,3978423485981,-7.185547,-9.393616,4.39505,0.74676514,2.5668793,-0.069610596
1612,A,3978473839985,-16.50261,-12.4878235,2.7922516,0.9273224,2.377945,1.054306
1612,A,3978524193989,-7.7445374,-9.056473,-1.7626953,1.5372009,-0.042755127,-0.34074402
1612,A,3978574547993,-4.879242,-17.737808,2.5439606,1.5962067,2.3934631,-1.4953613
1612,A,3978624901997,0.45658875,-7.246048,-3.4262543,0.663208,3.2396393,-1.506546
1612,A,3978675256000,2.6732483,-3.7280731,-2.2986298,0.2798462,-3.0556793,-2.5424194
1612,A,3978725610004,-0.6331177,-12.528122,-1.5409088,-1.3439789,-3.858368,-1.6283112
1612,A,3978775964008,1.1279755,-7.94989,-6.655426,-1.959549,-0.94750977,-1.9089813
1612,A,3978826318012,-2.8884277,-8.841156,-3.8189697,-0.044769287,1.5964203,-0.9347992
1612,A,3978876672016,-3.9669495,-9.577179,-1.691391,0.54875183,1.2428894,-0.4574585
1612,A,3978927026020,-5.5619354,-9.978119,1.3027039,0.3793335,-0.3935089,0.7826538
1612,A,3978977380024,-4.8483124,-8.036209,0.20970154,0.62124634,-1.1414032,1.8988953
1612,A,3979027734028,-6.4557495,-10.297684,-2.8112183,0.5319214,-1.49823,3.6987762
1612,A,3979078088032,-6.0308228,-11.237976,-2.0711975,1.2919312,2.3949127,3.9081116
1612,A,3979128442036,-6.13089,-10.85733,-2.515747,-0.40446472,5.0553894,3.5061188
1612,A,3979178796039,-3.9203796,-12.445602,0.39294434,-0.6833801,-2.619522,0.73594666
1612,A,3979229150043,-2.3952332,-18.48468,1.8903046,-0.59332275,-3.4052582,0.31852722
1612,A,3979279504047,2.4359741,-11.28093,-3.2005005,-0.35665894,0.52223206,0.31158447
1612,A,3979329858051,0.8418884,-6.7577515,-1.2432404,-0.21685791,1.4341431,-1.1165771
1612,A,3979380212055,-2.0997467,-4.509491,2.0561218,0.40657043,0.58691406,-2.153122
1612,A,3979430566059,-1.3630371,-4.901062,-1.5886841,-1.4171143,-1.682373,-1.2229614
1612,A,3979480920063,-2.2917786,-6.422455,-1.8491211,0.3782959,-1.0667114,0.250412
1612,A,3979531274067,-10.526718,-9.685532,-3.8843231,0.78286743,1.2756348,0.05618286
1612,A,3979581628071,-13.63353,-10.5073395,2.5473785,0.94799805,0.3607483,-0.0027923584
1612,A,3979631982075,-3.8594208,-9.65593,-0.64538574,1.5233917,-0.082901,-1.1415558
1612,A,3979682336079,-3.2927856,-14.239532,-0.70158386,0.426239,2.928131,-1.3769379
1612,A,3979732690082,0.029678345,-6.513199,-1.9221039,0.37687683,1.4833832,-1.9640198
1612,A,3979783044086,0.6051178,-7.750305,-2.6423035,-0.3782196,-2.6091003,-2.4750519
1612,A,3979833398090,-0.81025696,-11.133865,-2.8428497,-2.7451782,-2.7558594,-1.8865662
1612,A,3979883752094,0.26512146,-7.577179,-5.4586334,-1.536972,-1.0594482,-1.6465149
1612,A,3979934106098,-3.7575989,-10.203308,-4.215317,0.43478394,1.5470886,-0.6173706
1612,A,3979984460102,-4.996582,-10.409454,-0.16766357,0.9604492,1.0987701,-0.19715881
1612,A,3980034814106,-5.450287,-9.15155,2.3740234,0.99798584,-1.4485016,0.748703
1612,A,3980085168110,-4.6712036,-9.161514,0.1988678,1.0500336,-2.4941711,2.498703
1612,A,3980135522114,-6.0994415,-11.035355,-2.674759,1.453125,-0.9230652,3.6566467
1612,A,3980185876118,-7.137436,-11.500305,-2.8548584,1.3196869,2.7938538,3.3563843
1612,A,3980236230122,-6.9736786,-11.70993,-1.5012665,-1.165863,1.447876,2.3078156
1612,A,3980286584125,-3.9458923,-14.051483,0.9634247,-2.7034607,-2.0130768,1.1647339
1612,A,3980336938129,-1.9835815,-16.186172,-2.9444733,-1.1670685,-1.0410156,0.816391
1612,A,3980387292133,-0.18180847,-10.634064,-7.684189,0.06300354,0.8367462,-0.18997192
1612,A,3980437646137,1.3854523,-6.970703,0.5961151,0.042922974,1.1337128,-2.3196106
1612,A,3980488000141,1.4315186,-7.1578674,2.9836578,-0.22840881,-1.2647247,-3.8169403
1612,A,3980538354145,2.38974,-7.2111206,-2.6504822,-1.0220032,-1.9728851,-2.6230621
1612,A,3980588708149,-1.125412,-6.9603424,-5.4639435,0.5617218,0.9010315,0.14659119
1612,A,3980639062153,-9.422852,-10.851608,-8.352783,1.9425507,3.710678,1.7475586
1612,A,3980689416157,-13.918137,-16.560226,2.692276,1.9571686,2.8002625,1.2442322
1612,A,3980739770161,-9.485977,-14.958221,3.400711,0.38052368,3.0521545,-0.013702393
1612,A,3980790124164,0.3337555,-7.7495117,-1.3765106,0.2533722,0.34292603,-1.6256866
1612,A,3980840478168,2.147522,-8.500076,-3.5040436,-0.102493286,-3.318039,-2.4566345
1612,A,3980890832172,3.8839417,-9.18631,-4.4299316,-1.6633606,-2.7348328,-2.2583313
1612,A,3980941186176,2.8221436,-6.925827,-3.7980194,-1.0354767,0.8096466,-2.2369995
1612,A,3980991540180,-2.1343079,-9.304382,-2.7801666,0.54367065,1.9237213,-1.5870056
1612,A,3981041894184,-3.8980865,-10.76712,0.4416046,0.5875244,0.108078,-0.25975037
1612,A,3981092248188,-5.085129,-9.346115,1.306366,0.030654907,-1.3016205,1.6809692
1612,A,3981142602192,-6.579468,-9.401627,-1.8643494,-0.014755249,-1.2372589,3.6345062
1612,A,3981192956196,-7.9454956,-11.461319,-3.4761658,1.0930634,1.8764038,4.7206726
1612,A,3981243310200,-7.8713074,-12.433044,-2.39328,0.76841736,4.494278,4.0166016
1612,A,3981293664204,-5.3639526,-12.748108,0.6287384,-0.7257538,-0.005630493,1.7665253
1612,A,3981344018207,-2.2151184,-16.576569,2.7710571,-0.4234314,-2.2412415,0.6480713
1612,A,3981394372211,1.2810211,-14.638535,-3.2966614,0.124053955,-0.5506592,0.21354675
1612,A,3981444726215,2.0318909,-7.893524,-4.08638,0.38153076,0.6306305,-1.1569366
1612,A,3981495080219,-0.3768921,-4.832428,1.1546326,0.6409607,-1.1820221,-2.140091
1612,A,3981545434223,-1.054718,-4.1864777,0.50387573,-0.9438782,-1.4428864,-1.4167938
1612,A,3981595788227,-2.4683533,-5.4036865,-0.13427734,-0.2599945,0.68374634,-0.80618286
1612,A,3981646142231,-9.253647,-9.50296,-7.791809,0.66256714,1.1147614,-0.12702942
1612,A,3981696496235,-10.8802185,-11.250778,-2.7717133,1.3471222,-0.94525146,0.31903076
1612,A,3981746850239,-4.6372986,-12.605301,4.598526,1.8249664,-0.6400757,-1.0536346
1612,A,3981797204243,-3.2061615,-11.955917,-1.2775879,0.5085907,2.697281,-1.4736023
1612,A,3981847558247,-0.878067,-7.1775513,-2.1819153,0.24319458,1.3247681,-1.8125916
1612,A,3981897912250,-0.3779297,-6.5685883,-2.8663635,-0.5572357,-0.48664856,-2.1640015
1612,A,3981948266254,-1.9837189,-11.352112,-4.201523,-1.7164001,-1.5712433,-1.596756
1612,A,3981998625590,-1.1937561,-9.063248,-3.655899,-1.9661255,-0.75201416,-1.4810486
1612,A,3982048979594,-2.5315247,-7.76355,-3.7231445,0.2584839,-0.10621643,-1.3827972
1612,A,3982099333598,-3.211563,-8.905762,-1.4674377,1.0450592,0.47911072,-0.81588745
1612,A,3982149687602,-4.9413757,-10.3125305,1.0109863,0.58729553,-1.3654327,0.6709137
1612,A,3982200041606,-5.1723022,-9.583389,1.2013855,0.51950073,-2.4568634,2.5169525
1612,A,3982250395610,-6.9965057,-10.708298,-3.1335754,1.7328796,-1.2592163,3.9946442
1612,A,3982300749614,-7.236557,-10.265671,-3.209732,1.5163422,4.5845184,3.8432922
1612,A,3982351103618,-6.4027863,-9.982742,-1.3345032,-2.1575165,3.9605713,2.7692566
1612,A,3982401457621,-4.693863,-15.565109,1.7434845,-2.2303162,-4.3058777,0.9062958
1612,A,3982451811625,-1.3701324,-18.916687,0.3630829,-0.85472107,-3.4114532,0.09713745
1612,A,3982502165629,1.3057556,-11.10614,-6.4985657,-0.3667755,0.6322174,-0.13665771
1612,A,3982552519633,2.9603424,-5.2428436,1.0742188,-0.24612427,2.0089722,-1.7131653
1612,A,3982602873637,-0.09945679,-5.768738,1.7610779,-1.4217987,-1.9684448,-2.7169342
1612,A,3982653227641,0.53123474,-4.737381,-2.982193,-0.2190857,-1.0276642,-0.62628174
1612,A,3982703581645,-5.0772095,-7.9781494,6.8885345,0.90748596,1.6788025,-0.042541504
1612,A,3982753935649,-17.159866,-12.220398,9.042297,0.594223,1.0693207,0.5169678
1612,A,3982804289653,-6.8234253,-9.186859,-0.29470825,1.2113342,-0.27819824,-0.421463
1612,A,3982854643657,-6.016281,-17.6772,-0.27304077,1.0315399,3.9080353,-0.9148865
1612,A,3982904997661,-0.68013,-7.9784393,-2.7062683,-0.034179688,2.6429596,-1.5222168
1612,A,3982955351664,1.1897736,-3.390503,-2.1779938,0.50309753,-1.696701,-2.2299805
1612,A,3983005705668,1.4423981,-11.334839,-2.9695587,-0.81889343,-2.856247,-2.1638489
1612,A,3983056059672,1.2771301,-9.650833,-5.5633698,-1.9546814,-1.1329651,-2.5072632
1612,A,3983106413676,-1.086853,-7.870743,-2.366562,-0.7128906,1.4966583,-1.6864319
1612,A,3983156767680,-4.394226,-10.06131,-2.6550598,-0.024902344,2.312271,-0.78396606
1612,A,3983207121684,-5.880371,-10.626663,0.51286316,-0.20054626,-0.73612976,0.5950012
1612,A,3983257475688,-6.6670837,-8.998245,0.57714844,1.2010956,-1.7575684,1.4899597
1612,A,3983307829692,-7.593521,-10.712448,-2.4845276,2.3850708,-3.4121246,3.684021
1612,A,3983358183696,-4.8455048,-11.155228,-1.2781677,3.4809875,-0.7298584,4.8607025
1612,A,3983408537700,-6.422165,-9.3641205,-0.28076172,0.36134338,-1.9992523,1.4104462
1612,A,3983458891704,-7.186371,-12.176819,-1.8502808,-3.9771118,1.5388489,1.2475586
1612,A,3983509245707,-2.7756653,-19.34674,0.67715454,-0.23477173,3.2242737,0.34542847
1612,A,3983559599711,-1.4133911,-13.808151,-2.1546173,0.64671326,-2.9756012,1.2136536
1612,A,3983609953715,-2.4461823,-7.176956,-1.1605988,0.5957489,1.9195404,-0.5952606
1612,A,3983660307719,-2.3730927,-6.3475647,-1.348465,-0.8900299,0.8878479,-3.0354156
1612,A,3983710661723,2.3138733,-8.194992,0.11224365,-1.107727,-2.676361,-2.6533203
1612,A,3983761015727,2.2515106,-5.836441,-1.9983215,0.4060974,-2.8920898,-1.6073303
1612,A,3983811369731,-3.6247406,-8.654602,-5.0382233,1.2092285,3.777298,1.5340271
1612,A,3983861723735,-10.99765,-11.668533,-0.2698059,0.96928406,2.9913635,1.3064575
1612,A,3983912077739,-10.991394,-15.474411,5.285446,1.363739,1.9185944,0.23426819
1612,A,3983962431743,-4.442642,-11.679993,-1.5868988,-0.23674011,2.3483276,0.46736145
1612,A,3984012785746,0.5062561,-4.261688,-2.434723,0.3548584,1.1063843,-2.2485657
1612,A,3984063139750,1.1672516,-8.592972,-0.83532715,0.14830017,-3.2181091,-1.7568817
1612,A,3984113493754,3.5486603,-11.393417,-3.21846,-1.4651337,-2.573532,-2.4401398
1612,A,3984163847758,0.5554199,-7.379654,-3.6603546,-0.8821106,0.5120239,-2.477234
1612,A,3984214201762,-3.2663116,-9.864349,-3.655716,-0.050354004,1.7317657,-1.8874664
1612,A,3984264555766,-3.2583313,-9.630356,0.36582947,-0.34835815,0.4109192,-0.4043579
1612,A,3984314909770,-6.571579,-10.599655,0.69721985,0.45137024,-0.69470215,1.2316437
1612,A,3984365263774,-7.2388763,-9.615067,-1.8578949,1.1472626,-1.2545319,2.9620514
1612,A,3984415617778,-8.197754,-10.582581,-2.4661713,1.5362396,-1.1015472,4.527664
1612,A,3984465971782,-5.273712,-9.888336,-0.3731537,1.624466,3.9640808,4.112137
1612,A,3984516325786,-5.830414,-10.577942,-1.3911285,-1.0902863,3.6561432,2.521347
1612,A,3984566679789,-3.9949036,-14.984756,0.97546387,-1.9123993,-3.5848083,0.20500183
1612,A,3984617033793,-0.195755,-17.810944,-1.1352539,-0.72309875,-2.820572,-0.25700378
1612,A,3984667387797,2.5042877,-10.088272,-8.493576,-0.34925842,1.3789368,-0.53341675
1612,A,3984717741801,1.7884064,-4.5728607,-0.11798096,-0.27078247,0.05732727,-1.9865112
1612,A,3984768095805,0.32598877,-3.7615356,2.3348236,-0.8422241,-3.2586212,-2.187683
1612,A,3984818449809,-1.1656799,-6.9714966,0.7906647,-0.45677185,0.19389343,-0.7680664
1612,A,3984868803813,-7.328476,-12.059906,6.451233,0.96614075,1.4233856,-0.026565552
1612,A,3984919157817,-12.576462,-12.195953,-0.5166168,1.4076385,1.3069,0.7891388
1612,A,3984969511821,-7.639435,-10.949951,-0.03010559,0.8528595,1.2772827,-0.3521576
1612,A,3985019865825,-4.51503,-13.670074,1.8326874,0.24461365,3.35083,-0.7385864
1612,A,3985070219829,-0.3915863,-7.723755,-3.2393646,0.24508667,0.58299255,-0.9552002
1612,A,3985120573832,1.7852936,-6.034683,-3.7467651,-0.24617004,-2.3938446,-1.8012238
1612,A,3985170927836,1.3398743,-9.736557,-3.9757843,-0.92222595,-1.3887024,-1.812439
1612,A,3985221281840,0.94255066,-8.926941,-4.8650665,-0.50427246,0.535614,-1.7222443
1612,A,3985271635844,-2.1908264,-8.519196,-1.5386963,0.20542908,1.6972198,-1.4396973
1612,A,3985321989848,-4.325836,-9.936386,-0.6046448,-0.022460938,0.21786499,-0.81430054
1612,A,3985372343852,-4.930435,-9.418121,0.06730652,-0.057266235,-0.42614746,0.581192
1612,A,3985422697856,-5.3629,-8.180023,-2.0053406,0.45021057,-0.16333008,2.406601
1612,A,3985473051860,-6.3772583,-9.578995,-2.603119,0.6277008,-0.47225952,4.0184937
1612,A,3985523405864,-7.510849,-11.6753845,-1.1791992,0.76898193,2.7327576,3.9944
1612,A,3985573759868,-5.8479614,-11.334106,-1.9749298,-0.3140869,3.046585,2.6875458
1612,A,3985624113871,-3.7067108,-14.684219,0.10574341,-0.70591736,-2.357788,0.7293396
1612,A,3985674467875,-1.171875,-17.110992,0.97662354,-0.3531952,-2.2052612,0.31071472
1612,A,3985724821879,1.2397003,-11.592239,-1.9069214,-0.18736267,0.6682434,0.09692383
1612,A,3985775175883,0.08131409,-6.032425,-0.43881226,-0.13240051,1.6765289,-1.3970032
1612,A,3985825529887,-1.899231,-4.4345856,0.48420715,-0.6247101,-0.2740631,-2.5376587
1612,A,3985875883891,-0.6735077,-5.030121,-1.8806305,-0.66426086,-2.5915833,-1.6858215
1612,A,3985926237895,-1.675003,-8.314819,1.697937,0.9335785,-0.080963135,0.032943726
1612,A,3985976591899,-9.110138,-12.603378,2.7551117,1.8109131,2.6810913,0.98643494
1612,A,3986026945903,-11.80835,-12.820358,0.4382019,1.3693695,2.1777344,-0.067977905
1612,A,3986077299907,-6.4598694,-13.109222,1.2666779,1.0136414,2.8190613,-0.8179779
1612,A,3986127653911,-0.48886108,-9.712372,-1.7402954,0.8126831,2.3801117,-1.1805115
1612,A,3986178007914,2.3211212,-5.835205,-4.2226257,0.47598267,-0.98228455,-1.7562103
1612,A,3986228361918,1.8942566,-9.096039,-3.7582092,-0.28320313,-2.4520416,-1.7804413
1612,A,3986278715922,0.7835541,-10.181137,-3.8497162,-1.004776,-1.2379456,-2.1269684
1612,A,3986329069926,-1.4512482,-9.349503,-3.3627625,-0.35664368,0.80326843,-1.908081
1612,A,3986379423930,-3.0885468,-9.364609,-1.4937134,-0.08833313,1.7958984,-1.1485748
1612,A,3986429777934,-4.933258,-9.638535,-0.14450073,-0.45069885,0.7262268,0.19602966
1612,A,3986480131938,-6.1844025,-9.907532,-0.30821228,-0.2893219,-0.6878357,2.0143585
1612,A,3986530485942,-6.910141,-10.037796,-2.2782593,1.3002014,-1.8474579,4.926941
1612,A,3986580839946,-7.2555237,-10.058594,-2.0567322,2.1371765,2.9906921,5.1593018
1612,A,3986631193950,-6.7764435,-9.318283,-1.1647644,-1.510086,4.3163605,3.1799316
1612,A,3986681547954,-5.951523,-15.352386,2.5922089,-1.5865173,-3.3261871,0.95181274
1612,A,3986731901957,-1.7692108,-19.386353,0.43196106,-0.22341919,-3.4199371,0.32136536
1612,A,3986782255961,1.4601593,-12.408722,-5.954529,-0.08180237,0.046447754,-0.3923645
1612,A,3986832609965,2.4989777,-4.959503,2.3718262,0.96665955,1.5699921,-1.915329
1612,A,3986882963969,-0.3814087,-4.5938263,1.1146393,-0.8443756,-0.8124695,-1.6425323
1612,A,3986933317973,-0.60302734,-4.417389,-1.9285889,-0.4985199,-1.0320129,-0.35598755
1612,A,3986983671977,-6.8806458,-6.5215454,-10.487061,1.7604523,2.1433105,0.5365753
1612,A,3987034025981,-12.607849,-8.6987915,-3.1083984,1.195404,0.8244171,-0.56752014
1612,A,3987084379985,-4.418228,-10.302032,4.632431,0.93374634,-1.5627899,-1.937973
1612,A,3987134733989,-3.3677063,-16.396606,-4.722275,0.453537,-1.0802307,-1.5978241
1612,A,3987185087993,-0.9144287,-9.416763,-4.297943,-0.40071106,0.83895874,-2.012909
1612,A,3987235441996,-1.7732697,-6.217865,-3.6616058,-0.7457123,0.9369354,-2.2364655
1612,A,3987285796000,-2.4970703,-10.280075,-2.4073029,-1.8035889,1.3479309,-1.6647949
1612,A,3987336150004,-2.6505585,-9.16449,-2.513321,-0.9759979,-0.7498779,-1.2766418
1612,A,3987386504008,-4.2306824,-8.90654,-1.5974579,-0.25231934,-0.1592102,-0.77801514
1612,A,3987436858012,-4.0640564,-8.569626,-1.6346436,0.8973541,1.1069489,-0.6963043
1612,A,3987487212016,-4.829056,-8.97374,-0.39060974,1.3851166,-0.38822937,0.15472412
1612,A,3987537566020,-3.707016,-9.67717,0.64782715,0.38252258,-1.3141785,2.2913818
1612,A,3987587920024,-5.5727234,-10.968369,-1.4556274,0.7613373,-1.5193329,4.1365814
1612,A,3987638274028,-7.6143036,-12.171478,-3.6015778,1.4256287,3.5674133,4.091568
1612,A,3987688628032,-6.304764,-9.81366,-2.8122253,-1.2398071,4.8342743,2.5844269
1612,A,3987738982036,-3.9272003,-13.634628,1.4750214,-1.9150848,-3.4329987,0.92718506
1612,A,3987789336039,-1.4504852,-18.590149,1.4135895,-0.45890808,-2.7472687,-0.016738892
1612,A,3987839690043,0.6554718,-11.036362,-8.389542,-0.1338501,-0.008590698,-0.13032532
1612,A,3987890044047,1.8366241,-4.369812,2.805664,-0.28948975,2.3152924,-1.6657562
1612,A,3987940398051,-1.2320099,-4.901993,-0.18843079,-1.1169739,-1.9620514,-2.4859924
1612,A,3987990752055,0.13749695,-5.404251,-0.9267273,-0.8471222,-1.8376312,-1.3490143
1612,A,3988041106059,-2.991806,-10.650726,4.786789,1.3962097,0.7948456,-0.24163818
1612,A,3988091460063,-16.624847,-13.162598,1.3175201,1.3585205,3.3886719,0.9764557
1612,A,3988141814067,-6.849289,-7.849884,-1.0204468,1.4371338,1.8520203,-0.688324
1612,A,3988192168071,-9.760651,-18.526459,1.9954071,1.2417145,3.8118591,-1.0419464
1612,A,3988242522075,0.48683167,-8.180023,-2.8179932,-0.40109253,-0.096221924,-1.6716309
1612,A,3988292876079,2.5400085,-4.1665497,-3.2943115,1.1168518,-3.7160187,-2.2594604
1612,A,3988343230082,0.86128235,-12.6579895,-3.5971527,-2.1038055,-2.4935913,-1.9898529
1612,A,3988393584086,1.2796478,-7.455002,-2.7685547,-0.7293091,0.25434875,-1.9625549
1612,A,3988443938090,-2.6040344,-9.339218,-3.0944977,0.6097107,2.749771,-1.4960175
1612,A,3988494292094,-4.915207,-10.564499,0.303833,-0.15515137,1.1345673,-1.0770416
1612,A,3988544646098,-5.4446716,-10.141785,1.9690399,-0.12545776,-1.1300049,0.84529114
1612,A,3988595000102,-4.4012604,-9.013397,-2.1506042,0.3487854,-1.6387177,3.5156097
1612,A,3988645354106,-8.544113,-11.699066,-4.4155273,2.3129578,-2.6294403,5.165085
1612,A,3988695708110,-7.768936,-9.631821,-1.0279388,1.8764954,5.077362,3.7998505
1612,A,3988746062114,-5.9663086,-10.40715,-1.6422424,-2.9058075,1.9648285,2.5001984
1612,A,3988796416118,-4.7962036,-19.386353,2.9931793,-3.057724,-4.741043,0.6199646
1612,A,3988846770121,-0.42193604,-18.895844,-1.0744476,-0.3289032,-2.774353,-0.044067383
1612,A,3988897124125,2.6853333,-7.6827545,-8.719803,-0.19488525,0.82455444,-0.6462097
1612,A,3988947478129,3.4808197,-3.1559906,3.323532,0.27511597,1.1508179,-2.4116821
1612,A,3988997832133,1.1363068,-4.6723785,1.949997,-2.0620117,-0.94514465,-2.2762756
1612,A,3989048186137,0.119384766,-5.349228,-3.0443268,0.06803894,-1.4732666,-0.98121643
1612,A,3989098540141,-7.9371033,-11.400757,4.5153046,1.8380127,3.6321564,1.1185913
1612,A,3989148894145,-14.970093,-13.143417,2.9850464,1.0179901,1.1648407,0.7789154
1612,A,3989199248149,-5.251938,-11.32016,-0.45681763,1.089508,1.4242249,-1.6465759
1612,A,3989249602153,-3.8056488,-14.856461,-3.0162811,1.2677612,3.6330261,-1.1562195
1612,A,3989299956157,2.2463684,-3.236023,-2.909317,-0.60946655,-1.5384827,-2.4421692
1612,A,3989350310161,2.260666,-6.705536,-3.4548035,-0.34248352,-3.3368225,-2.271881
1612,A,3989400664164,0.9035034,-13.995651,-3.3807678,-1.3540192,-1.3084564,-2.0983276
1612,A,3989451018168,-0.6036835,-8.373322,-3.4351196,-0.59417725,2.303833,-1.3961792
1612,A,3989501372172,-3.099823,-8.445145,-1.3623047,0.2666626,2.5815277,-1.4520264
1612,A,3989551726176,-4.742676,-10.261124,0.4146881,-0.04763794,-0.44065857,-0.43476868
1612,A,3989602080180,-5.602783,-10.500366,0.64842224,0.16055298,-1.9392395,1.8972931
1612,A,3989652434184,-6.409973,-10.034042,-2.5983582,1.451767,-2.0837708,4.5015564
1612,A,3989702788188,-8.471008,-10.6905365,-3.6818085,2.7112122,0.4569702,4.8291016
1612,A,3989753142192,-7.435974,-10.018387,-0.566803,-0.12007141,5.315567,3.0461426
1612,A,3989803496196,-4.940979,-13.186813,-0.23118591,-3.6987762,-1.3336487,1.4458771
1612,A,3989853850200,-2.6296082,-19.352966,1.3483124,-1.6156769,-5.4976196,0.21817017
1612,A,3989904204204,1.3496552,-16.351242,-3.0180206,-0.16998291,-1.1065369,-0.3415985
1612,A,3989954558207,3.0292816,-6.1004944,-2.676056,-0.1685791,0.72276306,-1.277771
1612,A,3990004912211,2.6859741,-2.3526611,5.9083405,-0.30290222,0.6983795,-2.2302094
1612,A,3990055266215,0.19799805,-4.77565,-0.4644165,-1.0528412,-0.18821716,-1.1384735
1612,A,3990105620219,-1.5452728,-7.027115,-4.092987,0.47927856,-0.4499817,-0.70806885
1612,A,3990155974223,-9.332336,-11.552826,-4.3099213,1.2728271,1.3718872,0.91368103
1612,A,3990206328227,-10.452957,-10.214279,-0.10656738,1.5513153,1.2519379,-0.005935669
1612,A,3990256682231,-4.3741455,-11.311829,-0.02418518,1.1551361,3.6047363,-1.6049652
1612,A,3990307036235,-2.0720062,-9.052933,-2.7678223,0.3607788,2.0923157,-1.6147308
1612,A,3990357390239,2.1912842,-5.5558167,-2.6844177,-0.7449188,-3.8253326,-2.596634
1612,A,3990407744243,1.3668213,-9.787781,-5.1047363,-1.6313629,-3.028244,-2.1819916
1612,A,3990458098246,0.7857361,-10.493011,-4.707962,-1.6649933,0.8837738,-1.5646362
1612,A,3990508452250,-1.6634979,-8.380112,-2.4039917,0.13948059,2.5745087,-1.2985382
1612,A,3990558806254,-4.194397,-9.394272,-0.6025696,0.7377014,0.29716492,-0.61946106
1612,A,3990609160258,-5.7828064,-10.018372,1.4104004,0.5447235,-1.7336121,1.6994629
1612,A,3990659514262,-6.500946,-9.889709,-0.9060974,1.1346893,-1.8340149,4.241867
1612,A,3990709868266,-8.207535,-10.669846,-2.8477783,1.7166443,1.385849,5.2901154
1612,A,3990760222270,-8.594421,-11.357346,-2.0134888,-0.668808,5.0976257,3.967331
1612,A,3990810576274,-6.421646,-14.053207,-0.11172485,-2.016983,-0.9925537,1.881897
1612,A,3990860930278,-2.1212769,-18.561295,0.9663849,-0.3315277,-4.2512817,-0.113220215
1612,A,3990911284282,1.0376587,-14.699371,-3.6280518,-0.32392883,-0.10258484,-0.36779785
1612,A,3990961638286,3.1972504,-6.051422,-2.358551,0.71795654,1.4437256,-1.471283
1612,A,3991011992289,1.4432831,-3.0110931,2.2735138,-0.5871277,-0.34617615,-2.9106598
1612,A,3991062346293,-0.400177,-3.0163574,-1.2280884,-1.6862946,-1.0144958,-1.8280029
1612,A,3991112700297,-2.850525,-5.5339813,1.2793884,0.6846771,0.9509125,0.0012359619
1612,A,3991163054301,-12.155197,-12.448196,4.85849,1.4795837,0.37309265,1.2508698
1612,A,3991213408305,-13.145615,-14.117889,3.5148163,1.6230621,0.88682556,0.42329407
1612,A,3991263762309,-6.5009766,-12.490967,-0.82673645,0.6867218,4.6585083,-1.3209991
1612,A,3991314116313,-1.867981,-10.311996,-1.9367371,-0.24531555,0.67362976,-1.7832336
1612,A,3991364470317,3.7850037,-7.0741577,-3.4083557,-0.46739197,-2.7524567,-2.1519775
1612,A,3991414824321,4.26239,-10.768326,-6.1302795,-0.40222168,-0.88797,-2.0428314
1612,A,3991465178325,0.97328186,-10.297394,-3.2365723,-0.49935913,1.3465424,-1.667984
1612,A,3991515532329,-1.6705322,-6.7780914,-1.0466461,-0.3825531,1.8281555,-1.4874115
1612,A,3991565886332,-4.522644,-8.9544525,-0.9890442,-0.28022766,0.45787048,-0.6868439
1612,A,3991616240336,-6.2493286,-11.020493,-1.3339386,0.6275482,-0.11871338,0.061828613
1612,A,3991666594340,-6.168274,-9.327835,-2.0713043,1.2165375,-0.35690308,1.6634674
1612,A,3991716948344,-6.318207,-9.828735,-0.80804443,1.533783,-2.350006,4.2014923
1612,A,3991767302348,-6.892578,-10.0078125,-0.73820496,1.5758362,1.4108276,4.297928
1612,A,3991817656352,-7.5566406,-9.782059,-2.462326,-0.7106018,4.539276,2.6940918
1612,A,3991868010356,-6.0384064,-14.272491,-0.8782654,-2.6548615,-1.5203552,1.1472931
1612,A,3991918364360,-2.7659607,-18.43393,-0.031936646,-0.5188904,-3.8265076,-0.21170044
1612,A,3991968718364,-0.33137512,-12.642288,-6.146759,0.10874939,-1.7683258,-0.22520447
1612,A,3992019074611,2.5471191,-4.549591,3.1772308,0.69732666,1.501236,-1.2196808
1612,A,3992069428614,0.38139343,-3.8758698,2.249466,-1.6132965,0.67788696,-3.0035553
1612,A,3992119782618,0.2157898,-3.5147858,-1.136383,-0.9094391,0.44706726,-1.3349152
1612,A,3992170136622,-0.27990723,-6.4140472,-2.7743378,0.6508484,-1.2350006,0.18347168
1612,A,3992220490626,-14.305313,-16.075165,0.894104,1.5622253,-1.1593475,0.69699097
1612,A,3992270844630,-10.36882,-11.866852,-0.02470398,1.9778137,0.20585632,-0.046920776
1612,A,3992321198634,-5.0979767,-14.008133,0.5304718,0.113723755,2.9876404,-1.0218658
1612,A,3992371552638,-1.9750519,-10.180954,0.027359009,0.69374084,2.0877838,-1.2184143
1612,A,3992421906642,2.1640625,-5.3740845,-4.8316956,-0.23930359,-0.46681213,-2.6359253
1612,A,3992472260646,-0.04914856,-10.261993,-3.7521515,-2.1379547,-2.6095276,-1.9704285
1612,A,3992522614650,0.84609985,-9.190796,-3.6709442,-2.785553,0.3403473,-2.111496
1612,A,3992572968654,-1.511734,-8.082016,-5.648529,-0.29078674,1.491272,-0.7051544
1612,A,3992623322657,-3.4603577,-8.961319,-1.7245483,1.4649658,1.1934509,-0.40803528
1612,A,3992673676661,-7.34375,-11.626038,1.7430267,1.4724731,0.17442322,-0.10093689
1612,A,3992724030665,-3.2060852,-7.744766,1.6622314,0.724823,-0.82240295,1.1789398
1612,A,3992774384669,-4.5408783,-9.923279,-1.6438599,-0.15997314,-2.2724762,3.6480713
1612,A,3992824738673,-5.827057,-11.416397,-4.111969,1.0675354,0.15454102,4.6153107
1612,A,3992875092677,-7.463501,-11.3272705,-4.3461456,0.92726135,6.2047577,3.4703827
1612,A,3992925446681,-5.464813,-11.12587,-1.8448334,-2.5063324,-0.63230896,1.1318665
1612,A,3992975800685,-3.722412,-18.274734,3.1945038,-0.8139038,-3.892868,-0.31230164
1612,A,3993026154689,1.3444672,-14.262512,-4.026825,-0.17181396,-2.2920685,0.087905884
1612,A,3993076508693,1.6612091,-7.120575,-2.629654,0.2159729,0.95365906,-0.4717865
1612,A,3993126862697,-0.7999878,-3.983139,3.5630035,-0.5218353,1.2949066,-2.9993744
1612,A,3993177216700,-1.1803131,-4.5448,-0.734787,-1.6081543,0.0211792,-1.8617706
1612,A,3993227570704,0.894577,-4.3206635,-1.6522827,0.35681152,-2.4224396,-0.9753876
1612,A,3993277924708,-5.221985,-12.848145,-5.563736,1.5369263,0.23077393,0.83917236
1612,A,3993328278712,-14.467133,-13.408676,0.9561615,2.0198364,2.4940796,0.57502747
1612,A,3993378632716,-3.8600616,-7.932663,0.2315216,1.0787659,2.2070618,-1.5695496
1612,A,3993428986720,-4.5561523,-15.225952,-0.7081299,0.63243103,3.8825073,-0.6103821
1612,A,3993479340724,1.5564117,-6.1637573,-3.4133453,0.51013184,-1.5767059,-2.3288727
1612,A,3993529694728,1.7521362,-6.022934,-5.2411804,-2.0317383,-5.045059,-1.9248505
1612,A,3993580048732,-0.14221191,-12.320862,-3.3836823,-2.214325,-2.6344604,-1.0271454
1612,A,3993630402736,-0.10643005,-6.9941406,-5.923645,-0.12745667,1.7821503,-1.1086578
1612,A,3993680756739,-4.326126,-11.26358,-1.1461029,1.4735107,2.1451416,-1.1690826
1612,A,3993731110743,-2.3537445,-7.873352,2.7255707,0.87397766,-0.08320618,-0.9203949
1612,A,3993781464747,-4.8066254,-9.830566,2.0087585,-0.09565735,-1.5172577,0.8574524
1612,A,3993831818751,-3.9947815,-9.581451,-2.303711,0.0033416748,-1.7739716,3.311905
1612,A,3993882172755,-8.149765,-11.355911,-4.8359528,1.1797028,-0.8717346,4.1960754
1612,A,3993932526759,-7.7619476,-10.71051,-2.0817566,0.7255707,4.994034,3.9138947
1612,A,3993982880763,-5.265106,-10.644928,-1.3593292,-2.405136,1.561966,1.9406128
1612,A,3994033234767,-3.6887817,-16.963776,2.5864105,-1.4176025,-5.0727234,0.24359131
1612,A,3994083588771,-0.22969055,-17.978668,-0.082351685,-0.691391,-1.4617004,0.14019775
1612,A,3994133942775,1.8261566,-8.744186,-6.353348,-0.1851654,0.113601685,-0.2885437
1612,A,3994184296779,1.128891,-4.4352264,1.0967712,-0.5151825,1.5023041,-1.579483
1612,A,3994234650782,-1.3351898,-5.305832,0.5025177,-0.25654602,-1.54982,-2.5448456
1612,A,3994285004786,-0.4759674,-6.1470795,-2.7504272,-0.24357605,-1.7171326,-0.803833
1612,A,3994335358790,-2.5631714,-9.337631,0.18629456,0.65534973,-1.5770416,-0.8564911
1612,A,3994385712794,-12.964325,-10.7565155,-4.8570404,0.9733734,2.8837738,1.2103882
1612,A,3994436066798,-6.986969,-7.193573,-1.9416962,0.9464569,2.3700562,0.92723083
1612,A,3994486420802,-4.991394,-13.437973,2.4944305,1.2538147,2.2467651,-0.19593811
1612,A,3994536774806,-4.9506683,-14.865707,-2.9015198,-0.08073425,1.4989624,-0.67526245
1612,A,3994587128810,1.4831848,-5.0749817,-1.8319702,0.44522095,-0.5614166,-2.2250824
1612,A,3994637482814,3.5997162,-7.2871704,-1.7803345,-0.24383545,-3.0419312,-2.3586884
1612,A,3994687836818,2.072174,-11.377548,-2.9422455,-1.3276215,-1.8471832,-2.6506805
1612,A,3994738190822,-0.6782837,-7.712448,-3.0717316,-0.6895294,2.319397,-2.4170837
1612,A,3994788544825,-3.4322968,-9.104248,-3.3338623,-0.0058288574,1.7153015,-1.6488495
1612,A,3994838898829,-4.94664,-10.554184,0.60720825,-0.31723022,-0.26461792,0.05026245
1612,A,3994889252833,-7.8816833,-11.002594,0.25584412,0.63394165,-0.7207489,1.6404877
1612,A,3994939606837,-6.791626,-8.555542,-2.6882935,1.1175995,-1.4259644,3.4766998
1612,A,3994989960841,-7.4614563,-9.823166,-1.616272,1.5386353,-0.6575012,4.528961
1612,A,3995040314845,-5.7878876,-10.200363,-0.74760437,0.69441223,4.3131714,3.9887848
1612,A,3995090668849,-6.015274,-12.179703,-1.4296265,-1.7263947,2.675827,2.2676544
1612,A,3995141022853,-3.6604767,-16.45958,0.6535797,-2.0258942,-3.8123627,0.37086487
1612,A,3995191376857,-0.94628906,-16.841461,-2.5908966,-0.3473053,-2.7458496,0.0012817383
1612,A,3995241730861,1.4582977,-9.257965,-7.744751,-0.114349365,0.40333557,-0.60440063
1612,A,3995292084864,1.4639435,-4.8255005,1.1050568,-0.022979736,0.64697266,-1.8946838
1612,A,3995342438868,-0.021392822,-4.3368835,1.8031616,-0.013412476,-0.6484375,-2.5982208
1612,A,3995392792872,-0.13145447,-5.195465,-2.0300293,-0.6458435,0.7975006,-1.455307
1612,A,3995443146876,-4.1234894,-7.3164215,-6.157547,1.0711365,0.87828064,0.41427612
1612,A,3995493500880,-12.267914,-11.717163,-9.941513,1.4355927,0.3266449,0.9212799
1612,A,3995543854884,-9.935791,-13.475845,1.9830933,1.0607452,0.25386047,-0.19613647
1612,A,3995594208888,-3.099121,-13.063873,0.33880615,0.34317017,3.3973694,-0.70358276
1612,A,3995644562892,-0.5243988,-9.0466,-3.0700073,0.1341095,3.620346,-1.003128
1612,A,3995694916896,1.0758667,-6.4843903,-3.4419403,0.6163025,-0.9719238,-1.7793732
1612,A,3995745270900,2.4326324,-10.066315,-3.7210999,0.2740326,-2.6533966,-2.1877136
1612,A,3995795624904,1.0982056,-10.151688,-3.1958008,-1.2256775,-1.3197632,-2.3740845
1612,A,3995845978907,-1.466629,-8.286957,-2.6487427,-1.1585541,1.2288666,-1.8320465
1612,A,3995896332911,-3.8974457,-10.115616,-2.5063782,-0.31684875,1.639801,-0.5491333
1612,A,3995946686915,-6.6904297,-10.351486,-1.0588684,0.10908508,0.70706177,0.40130615
1612,A,3995997040919,-6.9895325,-8.380875,-0.102630615,0.6519928,0.014480591,1.0426941
1612,A,3996047394923,-5.6968994,-8.49881,-0.93000793,0.71170044,-1.0467377,2.719162
1612,A,3996097748927,-5.368393,-11.257538,-0.97410583,1.3989868,-0.2061615,4.174637
1612,A,3996148102931,-5.939743,-11.643341,-1.6405029,1.3524628,4.343445,3.7759094
1612,A,3996198456935,-5.5705414,-11.197739,-1.6811676,-1.2169952,2.1714172,1.7840424
1612,A,3996248810939,-3.4972076,-15.52594,1.2361755,-2.024704,-3.7598877,0.017700195
1612,A,3996299164943,-0.60443115,-16.413147,-1.8015289,-0.6130676,-3.0101624,-0.07829285
1612,A,3996349518947,1.6331635,-9.658997,-4.752411,-0.01739502,-0.03829956,-0.15887451
1612,A,3996399872950,0.69215393,-3.4012146,1.9614258,-0.26446533,0.85609436,-1.8118744
1612,A,3996450226954,-1.3753204,-3.439148,2.3214264,-1.1488495,-0.5041199,-2.0181122
1612,A,3996500580958,-0.6407318,-5.327545,-2.2133179,-0.64785767,-1.468399,-0.9533539
1612,A,3996550934962,-3.6756744,-9.411789,-1.1125641,0.4941864,-0.44082642,0.02722168
1612,A,3996601288966,-12.6588745,-12.5703125,2.3296509,0.91859436,0.80104065,0.51867676
1612,A,3996651642970,-8.752136,-9.401688,0.30549622,1.3442535,1.2800751,-0.14178467
1612,A,3996701996974,-5.564789,-14.671524,-0.46766663,1.2087402,3.0527802,-1.0045166
1612,A,3996752350978,-2.2515564,-11.286957,-0.8742218,-0.047576904,2.144928,-1.3295441
1612,A,3996802704982,2.1578217,-3.6860657,-2.7802582,-0.17408752,-2.0578918,-1.8141785
1612,A,3996853058986,1.1109009,-9.608246,-2.948227,-1.0044861,-2.9211884,-1.7004852
1612,A,3996903412989,0.9947815,-10.904236,-4.5657806,-0.87690735,-0.8912811,-1.844284
1612,A,3996953766993,-0.48104858,-8.419296,-2.5161896,0.16448975,1.6817932,-1.6509094
1612,A,3997004120997,-2.8001251,-8.882233,-0.078063965,0.64393616,1.5226288,-2.006134
1612,A,3997054475001,-4.0102844,-10.104019,1.0688324,0.04269409,-0.7096405,-0.6766052
1612,A,3997104829005,-4.464798,-9.515533,-0.13412476,0.2605896,-0.6939087,1.3986053
1612,A,3997155183009,-6.4682465,-9.800659,-3.552765,0.20826721,-1.4910431,3.8632813
1612,A,3997205537013,-8.095001,-11.091415,-2.5327606,0.6065674,0.16159058,4.8524475
1612,A,3997255891017,-7.808304,-11.051086,-2.2221832,-0.013076782,3.776291,4.5500336
1612,A,3997306245021,-5.431488,-12.290939,-1.3800659,-0.96998596,-2.1901855,2.7014465
1612,A,3997356599025,-2.6505585,-17.671188,1.3490906,-1.6414337,-2.7835999,-0.8584595
1612,A,3997406953029,0.47969055,-15.556335,-1.5236816,-0.20465088,-1.2485809,0.5141907
1612,A,3997457307032,6.8115387,-4.1169434,-1.1556244,-0.068618774,1.1409302,-0.32543945
1612,A,3997507661036,-2.1568604,-4.16626,1.5903931,-0.22543335,2.0242157,-2.3058014
1612,A,3997558015040,-1.6841583,-4.491379,-0.06867981,-0.9601135,-0.54307556,-1.5874786
1612,A,3997608369044,0.3113861,-5.6539764,-2.757904,-0.19371033,-2.2427979,-0.7301178
1612,A,3997658723048,-6.8182526,-9.897537,-1.5882568,0.72717285,1.098938,0.25428772
1612,A,3997709077052,-14.372604,-11.296051,1.168045,1.4091034,1.7176819,1.0704803
1612,A,3997759431056,-6.170944,-10.793671,-0.10424805,1.442215,0.50717163,-1.2203674
1612,A,3997809785060,-3.9802246,-14.112015,-0.24961853,0.6511078,2.8722687,-0.9986572
1612,A,3997860139064,0.50738525,-6.2391357,-1.8427887,-0.008834839,1.3248138,-2.0507813
1612,A,3997910493068,3.1553497,-5.6495514,-4.150284,-0.6496887,-2.868225,-2.2565613
1612,A,3997960847072,-0.076797485,-13.145172,-2.6488953,-1.533493,-2.7323608,-1.7747192
1612,A,3998011201075,0.504303,-8.13945,-5.14917,-1.0652771,0.16978455,-1.9730835
1612,A,3998061555079,-3.0498657,-8.992264,-2.087616,0.5383606,1.9580994,-1.3284912
1612,A,3998111909083,-3.4964905,-9.268463,0.13815308,0.92619324,0.8794708,-1.2451172
1612,A,3998162263087,-5.960312,-10.234253,1.3194275,-0.004119873,-1.5018463,0.7397461
1612,A,3998212617091,-5.0781097,-9.570053,-0.67671204,0.24369812,-1.0563507,2.4465637
1612,A,3998262971095,-8.448166,-10.984634,-4.186966,0.9542694,-1.3973694,4.3425903
1612,A,3998313325099,-6.494095,-9.402298,-2.1787415,1.0395508,4.3780518,4.241745
1612,A,3998363679103,-6.2271423,-9.718262,-0.8181305,-2.0112,4.5131226,3.5315094
1612,A,3998414033107,-4.8170624,-13.733444,0.8858032,-1.0510406,-4.216858,0.99154663
1612,A,3998464387111,-1.598114,-19.227829,1.4599762,-0.31036377,-4.332123,0.2320404
1612,A,3998514741114,0.7589264,-11.752609,-6.0863647,-0.62731934,0.40820313,0.46090698
1612,A,3998565095118,3.749466,-2.7959137,0.3047943,-0.5712433,1.7893677,-1.7928009
1612,A,3998615449122,-0.98558044,-3.517105,1.9020233,0.65145874,-4.1514587,-2.7949982
1612,A,3998665803126,-1.0873718,-4.269516,-2.1454163,-1.2033386,3.5184479,-0.56755066
1612,A,3998716157130,1.5669098,-6.650543,1.8507843,0.5851898,0.18699646,-0.09869385
1612,A,3998766511134,-12.311356,-12.306229,-8.370804,0.26213074,1.4140778,-0.56718445
1612,A,3998816865138,-12.295792,-9.657898,-0.119628906,1.4611969,-1.5570068,0.4832306
1612,A,3998867219142,-2.4151611,-11.832031,0.9659424,1.3306122,-0.430542,-1.6606903
1612,A,3998917573146,-5.659012,-12.962952,-3.9822998,0.36224365,5.075226,-1.1369019
1612,A,3998967927150,1.1844788,-3.9145508,-2.1739197,0.5352936,1.3284607,-1.9051666
1612,A,3999018281154,-0.44136047,-7.233734,-2.8125305,-1.1435852,-1.846344,-2.3941956
1612,A,3999068635157,-0.4154358,-12.878754,-3.208374,-1.3459625,-2.9865265,-1.4449921
1612,A,3999118989161,-0.8657379,-7.9361267,-3.9312744,-1.729187,0.27781677,-1.8322449
1612,A,3999169343165,-3.8478546,-9.225418,-2.9612274,0.88926697,0.87394714,-0.8559723
1612,A,3999219697169,-3.3954468,-9.571259,-0.3944702,0.96585083,1.2765198,-0.23442078
1612,A,3999270051173,-6.4543304,-10.003708,1.1019745,0.16737366,-0.84510803,0.8878021
1612,A,3999320405177,-5.4428864,-8.654037,0.57164,0.11795044,-1.2910004,2.312912
1612,A,3999370759181,-5.982849,-10.078659,-3.9492645,0.38478088,-0.56333923,4.0075684
1612,A,3999421113185,-6.1447144,-10.664307,-3.2007446,0.5070648,3.891983,4.004196
1612,A,3999471467189,-5.857971,-10.291901,-1.5449829,-1.3514557,3.6408234,2.7530518
1612,A,3999521821193,-3.8532257,-14.027252,1.3292084,-0.463562,-4.6956177,0.6237793
1612,A,3999572175197,-1.8958588,-18.05478,0.75541687,-0.41271973,-2.5186615,0.36302185
1612,A,3999622529200,1.2849731,-10.795914,-5.0609283,-0.37599182,0.75375366,0.29475403
1612,A,3999672883204,0.8076477,-5.9660645,0.92427063,-0.12687683,1.3755951,-1.4072571
1612,A,3999723237208,-1.9154816,-4.355423,0.52563477,0.778244,-0.9080353,-2.1433105
1612,A,3999773591212,-0.4237671,-4.6164856,-2.1185608,-0.72880554,0.041732788,-0.16925049
1612,A,3999823945216,-2.1572418,-5.6753387,-3.933258,0.49519348,1.5400848,0.02432251
1612,A,3999874299220,-11.841309,-8.513535,-9.848404,0.7158356,2.6573944,-0.25790405
1612,A,3999924653224,-9.835007,-10.920425,2.0386047,1.0993958,-0.9268036,-0.72480774
1612,A,3999975007228,-1.8972778,-11.797882,-0.6401367,0.8995056,-1.2560577,-1.5939026
1612,A,4000025361232,-3.7361603,-13.488342,-3.7561035,0.19274902,2.1157227,-1.236557
1612,A,4000075715236,-0.001953125,-5.2820587,-3.2421722,0.349411,2.4627838,-1.80719
1612,A,4000126069239,-1.928833,-8.255783,-3.09729,-0.16906738,0.8140106,-2.2844543
1612,A,4000176423243,-1.4572144,-11.009766,-1.3601227,-1.7966003,-1.3052826,-2.182541
1612,A,4000226777247,-1.5411987,-8.204254,-2.866394,-1.8682556,-1.9203644,-1.5852203
1612,A,4000277131251,-3.9596252,-9.81839,-3.5099792,-0.35124207,0.744339,-0.7846985
1612,A,4000327485255,-4.582596,-9.73114,-2.6698914,1.0628662,1.7522125,-0.27615356
1612,A,4000377839259,-4.429184,-9.2000885,0.68385315,0.6545105,-0.8065491,0.60124207
1612,A,4000428193263,-4.441025,-9.20224,1.1384888,0.7957916,-2.5309296,2.2948608
1612,A,4000478547267,-5.255707,-10.641205,-2.248993,2.3248596,-1.5569763,4.1820984
1612,A,4000528901271,-6.408188,-11.404633,-3.481018,2.5902557,3.793213,4.079834
1612,A,4000579255275,-6.709488,-11.579819,-1.2266388,-1.4302216,4.400528,2.2212982
1612,A,4000629609279,-3.9775543,-15.173096,1.1864319,-2.5597382,-2.3858643,0.40576172
1612,A,4000679963282,-0.045013428,-17.551437,-1.9038239,-0.08200073,-3.5537872,-0.2762146
1612,A,4000730317286,2.0160522,-11.055191,-5.5803375,-0.044799805,-0.07122803,-0.5550995
1612,A,4000780671290,0.6986847,-4.9088287,0.35188293,0.029006958,0.7828064,-1.8748169
1612,A,4000831025294,-0.61720276,-4.7348633,1.2587891,-0.6806488,-0.42964172,-1.4728699
1612,A,4000881379298,-0.73976135,-5.780655,-1.3669434,0.089920044,0.42747498,0.1603241
1612,A,4000931733302,-6.2174377,-7.419647,-6.5277557,1.7693481,1.093216,0.6776581
1612,A,4000982087306,-13.507996,-13.70668,-6.9310303,1.8027496,0.20227051,-0.49005127
1612,A,4001032441310,-7.9153595,-14.981491,0.23849487,0.47924805,0.08163452,-1.6529388
1612,A,4001082795314,0.10258484,-8.275497,-0.73872375,-0.32182312,0.6202698,-1.7180328
1612,A,4001133149318,0.89711,-7.1925354,-3.9269867,0.12817383,-0.09875488,-2.4300385
1612,A,4001183503322,-0.31900024,-9.5238495,-3.9431915,-1.434494,-0.46788025,-2.5183563
1612,A,4001233857325,-0.79815674,-8.958603,-2.572815,-2.3036957,-2.053299,-2.0475464
1612,A,4001284211329,-2.2571259,-8.75856,-2.797638,-1.7407379,-1.715805,-1.3236847
1612,A,4001334565333,-4.6688232,-10.135101,-2.818985,0.106170654,-0.07498169,-0.7934418
1612,A,4001384919337,-4.696121,-9.525467,-1.0078735,1.4741821,-0.18083191,-0.049453735
1612,A,4001435273341,-3.9812622,-9.102875,1.572403,1.1361389,-0.9908447,1.3278046
1612,A,4001485627345,-4.975601,-9.535797,0.7741394,1.1188507,-2.0164185,2.9714203
1612,A,4001535981349,-6.2345734,-10.790695,-2.4240723,1.7859802,0.34451294,4.1243134
1612,A,4001586335353,-6.619751,-11.39238,-3.7372437,0.5889282,5.0451355,4.2616425
1612,A,4001636689357,-5.4638824,-11.626801,-1.3607178,-1.3822021,0.8569946,2.1910858
1612,A,4001687043361,-3.51445,-16.43068,1.2381134,-0.8757477,-3.4440002,0.3023529
1612,A,4001737397364,0.23077393,-16.33368,-3.9471436,-0.45263672,-1.4143372,0.16137695
1612,A,4001787751368,2.8244324,-8.976593,-2.5173645,-0.7570648,1.2310181,-0.41007996
1612,A,4001838105372,1.5353851,-3.8970337,1.0017395,0.7121277,-0.728714,-1.6767273
1612,A,4001888459376,-0.30052185,-3.893631,0.3144989,-0.6533356,-0.6854553,-1.848114
1612,A,4001938813380,0.09025574,-5.324005,-0.24362183,-0.45899963,1.0760193,-0.45141602
1612,A,4001989162672,-7.4223175,-7.393692,-9.03035,0.7696533,2.7767792,0.25256348
1612,A,4002039516676,-13.059708,-10.691162,-3.4904785,1.802597,0.05406189,0.021896362
1612,A,4002089870680,-6.4031525,-12.852249,4.1228485,1.3062744,-1.3226776,-1.2229767
1612,A,4002140224684,-1.8259277,-9.428375,-0.8922882,0.16468811,1.4706116,-1.4159088
1612,A,4002190578688,0.33880615,-7.3282623,-3.0086975,0.6108551,0.85858154,-2.0335999
1612,A,4002240932692,-0.9569092,-8.3220215,-4.3004456,-0.47927856,-0.5288849,-2.5256042
1612,A,4002291286695,-1.261795,-9.763947,-2.7908478,-2.1881866,-1.0756683,-1.606842
1612,A,4002341640699,-1.2062683,-8.877258,-3.4991455,-1.8183289,-1.3314819,-1.207367
1612,A,4002391994703,-3.2370758,-8.976196,-3.7727356,0.024490356,0.19715881,-1.0628357
1612,A,4002442348707,-3.4770966,-8.613739,-1.8265533,1.0161896,1.5055542,-0.8686676
1612,A,4002492702711,-5.1078644,-10.604813,1.1726837,1.0462341,-0.5329895,0.28370667
1612,A,4002543056715,-4.489334,-9.810257,1.4468689,0.74635315,-1.0877533,1.8068695
1612,A,4002593410719,-6.033661,-10.752045,-2.3134155,0.8575592,-1.627243,3.6856384
1612,A,4002643764723,-5.883484,-11.276001,-2.8979034,1.6851501,1.9217072,4.1363983
1612,A,4002694118727,-5.3251495,-9.342087,-2.2963562,-0.16912842,4.805954,2.5924835
1612,A,4002744472731,-4.49736,-12.519089,0.3399048,-3.1502075,-0.8562317,1.2470245
1612,A,4002794826735,-2.3448792,-18.289917,1.0417938,-0.8345032,-3.4231873,0.12794495
1612,A,4002845180738,-0.26489258,-12.466675,-6.7172394,-0.27075195,-1.2195282,0.24186707
1612,A,4002895534742,1.007904,-6.425232,-1.2255707,-0.12879944,1.0856323,-0.8746033
1612,A,4002945888746,0.016967773,-4.864517,1.9681702,-0.26571655,-0.49165344,-2.4377594
1612,A,4002996242750,-0.6046753,-5.4588165,-1.44104,-0.75782776,-0.020202637,-0.42237854
1612,A,4003046596754,-0.57644653,-6.266098,-2.1423492,0.82077026,0.1729126,0.19345093
1612,A,4003096950758,-13.175369,-11.907349,-4.6950226,1.6664429,1.6242218,0.7087555
1612,A,4003147304762,-13.0737,-14.212524,-2.467987,1.977478,-0.008361816,-1.2179871
1612,A,4003197658766,-3.1486664,-12.559296,2.7487793,0.06123352,-1.4450378,-1.430481
1612,A,4003248012770,0.15209961,-7.7555695,-1.2317047,-0.07060242,1.9692078,-1.673706
1612,A,4003298366774,1.406311,-7.6381683,-5.6774597,0.5940552,-1.3041534,-3.1051025
1612,A,4003348720777,-1.7623749,-9.897217,-3.3794098,-2.9117126,-0.69506836,-2.1970062
1612,A,4003399074781,-0.615036,-8.141037,-2.5760498,-2.6236725,-2.7590332,-1.4440002
1612,A,4003449428785,-3.5830536,-9.17305,-4.0989227,-1.4941254,-0.13064575,-0.3886261
1612,A,4003499782789,-5.9256287,-10.193039,-2.5422363,2.27182,1.2536621,0.021072388
1612,A,4003550136793,-3.4113464,-8.191788,0.004119873,1.6673126,0.71144104,-0.020568848
1612,A,4003600490797,-3.7410126,-9.366806,3.128418,0.4434204,-2.3901672,1.4012604
1612,A,4003650844801,-3.8481293,-10.084518,0.06587219,-0.23469543,-2.2433167,2.9473114
1612,A,4003701198805,-6.2301025,-12.928635,-5.590927,2.3188477,-0.47317505,4.4046326
1612,A,4003751552809,-7.2002716,-11.986847,-4.035095,1.4966583,5.7822876,3.7020874
1612,A,4003801906813,-5.951584,-11.055679,0.12937927,-3.2234955,1.5837555,1.5145264
1612,A,4003852260817,-2.8145447,-16.686584,2.2880554,-0.06506348,-4.793274,1.2055359
1612,A,4003902614820,1.3701935,-15.562653,-2.691925,-0.011047363,-0.116500854,0.55300903
1612,A,4003952968824,0.576416,-6.669693,-4.419342,-1.001648,1.8822479,-1.3308258
1612,A,4004003322828,1.6439667,-5.434204,3.5420532,1.3419037,1.0240173,-2.8077698
1612,A,4004053676832,1.0284271,-7.5398865,-5.2747803,-1.4642792,-1.8042908,-2.6252594
1612,A,4004104030836,0.27201843,-4.595627,-0.8478241,0.14732361,-1.9156494,0.07398987
1612,A,4004154384840,-8.769272,-6.528427,-9.605316,1.5714111,2.867752,0.22444153
1612,A,4004204738844,-14.403366,-12.072128,2.5361938,1.3338928,1.8219604,0.26971436
1612,A,4004255092848,-4.7602997,-10.277206,2.63385,1.2782898,-0.032089233,-0.9020996
1612,A,4004305446852,-2.5156403,-12.499374,-1.2922516,0.03579712,0.9874573,-1.4282684
1612,A,4004355800856,0.1954956,-7.8173676,-3.2246857,-0.41401672,-0.4714508,-1.862793
1612,A,4004406154860,0.43359375,-7.636429,-3.7518158,-0.64515686,-1.4559631,-1.4760437
1612,A,4004456508863,-0.44926453,-9.085861,-3.366623,-2.02417,0.37664795,-1.5975037
1612,A,4004506862867,-0.63713074,-7.372986,-4.097,-0.81599426,-0.47402954,-1.5454407
1612,A,4004557216871,-4.151245,-11.024536,-1.3697052,-0.35920715,0.45951843,-1.5328674
1612,A,4004607570875,-3.94281,-10.085693,-0.22042847,0.41004944,0.46290588,-1.1845245
1612,A,4004657924879,-3.3310242,-7.6751556,-0.2566681,0.76023865,-0.8849335,0.40281677
1612,A,4004708278883,-5.266388,-9.813522,-0.21339417,1.1512146,-2.0572662,2.1059875
1612,A,4004758632887,-7.5328674,-11.971069,-1.5030518,1.7967224,-2.0741577,4.1139374
1612,A,4004808986891,-6.5802917,-10.665009,-1.6235809,2.5427704,2.7096863,4.1566315
1612,A,4004859340895,-7.3700714,-11.142639,-1.6866913,-0.2389679,4.3134003,2.7043457
1612,A,4004909694899,-5.1239777,-14.494247,0.7725525,-2.9348755,-0.65818787,1.5989685
1612,A,4004960048902,-1.4318237,-17.755219,-0.75019836,-1.2397156,-2.9529266,0.3534546
1612,A,4005010402906,1.1765289,-11.159515,-6.8268585,0.12184143,0.3907013,-0.6356354
1612,A,4005060756910,2.2287292,-6.1934814,-1.171524,-0.2897339,0.81170654,-1.539856
1612,A,4005111110914,1.9726868,-5.405304,5.312668,-0.051223755,0.10151672,-2.6558685
1612,A,4005161464918,-1.6574402,-8.769608,-2.9828796,-0.9192505,-2.518982,-2.3249054
1612,A,4005211818922,-1.5881805,-7.340103,-2.6446228,0.20455933,-1.5153656,-1.2600403
1612,A,4005262172926,-8.082016,-8.469864,-5.619705,0.6529999,3.50383,0.03062439
1612,A,4005312526930,-10.33223,-9.308762,0.8460083,0.49996948,3.6166992,0.77471924
1612,A,4005362880934,-7.31044,-9.6115265,1.2090302,0.44456482,0.973053,0.56137085
1612,A,4005413234938,-5.9042206,-15.111252,0.29797363,1.234787,0.38560486,-0.06790161
1612,A,4005463588942,-0.818985,-8.565369,-3.563507,0.90826416,0.77397156,-1.0841064
1612,A,4005513942945,0.710907,-4.9905243,-1.1949158,-0.32139587,-0.11920166,-1.4426117
1612,A,4005564296949,1.6486359,-7.56015,-1.3091278,-0.5126648,-0.7528839,-1.5899658
1612,A,4005614650953,-0.7370758,-9.567703,-3.563919,-0.61428833,0.08532715,-1.8617554
1612,A,4005665004957,-1.9270477,-7.924591,-3.8019867,-0.8208313,0.7120056,-2.0811462
1612,A,4005715358961,-2.4563446,-7.9033203,-2.1078491,-0.19631958,-0.38526917,-1.6081238
1612,A,4005765712965,-3.7938995,-9.265106,-1.2419128,0.08282471,0.21017456,0.012557983
1612,A,4005816066969,-5.505966,-11.223679,-1.5484924,1.263092,-1.1806488,2.5847626
1612,A,4005866420973,-6.83284,-10.901306,-1.5193787,2.4601135,-2.9608154,5.174118
1612,A,4005916774977,-8.362442,-9.450272,-0.0061950684,1.7836304,0.2074585,4.139984
1612,A,4005967128981,-7.993988,-9.924332,-0.96936035,-0.87924194,1.9592133,1.881958
1612,A,4006017482985,-5.102066,-15.901596,-1.6499939,-3.0560608,-1.2513733,1.5825195
1612,A,4006067836988,-2.0843964,-17.541672,-2.4775238,-1.6605072,-2.1203613,0.785141
1612,A,4006118190992,-0.4812622,-10.457291,-5.290634,0.70880127,0.8145752,-0.73368835
1612,A,4006168544996,3.112564,-4.63266,-0.27882385,-0.1443634,0.8233948,-2.3184204
1612,A,4006218899000,3.3973389,-6.01622,3.8309479,-0.7878418,-1.9831085,-3.5650635
1612,A,4006269253004,1.5861359,-8.166916,-0.6788788,-0.5702057,-2.9164429,-2.9266968
1612,A,4006319607008,-3.518921,-10.732193,-6.9608,0.7620392,1.3687286,-0.1025238
1612,A,4006369961012,-7.1674194,-10.593826,-5.4350433,1.9856873,4.703125,0.93530273
1612,A,4006420315016,-10.860916,-12.027817,2.0027924,0.87638855,3.3740845,0.4004364
1612,A,4006470669020,-7.956711,-14.414078,2.390686,0.121917725,1.4976959,-0.26715088
1612,A,4006521023024,-0.7999115,-9.620209,-2.0688019,0.50305176,-0.43159485,-1.4818115
1612,A,4006571377027,0.045639038,-7.976303,-3.194168,-0.770401,-1.359436,-1.2600098
1612,A,4006621731031,2.0814056,-7.964813,-2.9996948,-0.77349854,-1.5515442,-1.2193451
1612,A,4006672085035,0.8350067,-6.725296,-3.737259,-0.76898193,-0.15287781,-1.94281
1612,A,4006722439039,-2.180542,-8.481934,-1.663559,-0.74728394,0.23548889,-2.3740387
1612,A,4006772793043,-2.0950165,-10.317749,0.0703125,0.39060974,-0.48513794,-0.9825134
1612,A,4006823147047,-3.8047485,-11.034073,-0.72480774,1.0789642,-0.510376,1.741394
1612,A,4006873501051,-5.8052673,-9.441772,-0.77160645,1.4702301,-1.3306427,4.468811
1612,A,4006923855055,-7.6786346,-9.389008,-0.68788147,1.399643,2.4705505,4.4404755
1612,A,4006974209059,-8.428848,-10.6232605,-1.7983398,-1.0230103,4.4683533,2.725998
1612,A,4007024563063,-5.120346,-14.012451,-0.33262634,-2.9771423,-1.720047,1.3697968
1612,A,4007074917067,-2.2333984,-18.11058,-0.23641968,-0.6669769,-3.733017,0.28694153
1612,A,4007125271070,-0.74346924,-12.900421,-5.910202,0.28027344,-1.770813,0.052230835
1612,A,4007175625074,2.8771667,-5.4786835,4.3208466,0.19355774,1.9008026,-0.9321747
1612,A,4007225979078,0.7035217,-5.7512054,3.0484924,-0.9107666,0.7824707,-3.2079773
1612,A,4007276333082,0.3529663,-5.2060394,-1.7498779,-0.49317932,-0.5040741,-2.140747
1612,A,4007326687086,0.89979553,-5.6401978,-1.9790955,0.66885376,-1.2351074,-0.9818268
1612,A,4007377041090,-8.519424,-13.278702,-4.6024933,1.4978485,0.92959595,0.54312134
1612,A,4007427395094,-9.347687,-12.221909,-1.8159485,1.8849792,1.7958832,0.5606079
1612,A,4007477749098,-9.223221,-15.114746,0.6032715,1.0011597,4.745819,-0.6313782
1612,A,4007528103102,-2.9775543,-10.814941,-0.82803345,0.18296814,4.22789,-0.46209717
1612,A,4007578457106,1.3299866,-5.6246796,-2.9256592,0.50416565,-2.0590515,-1.7010651
1612,A,4007628811110,1.443222,-9.958282,-2.7800293,-0.098526,-3.2039032,-1.6382294
1612,A,4007679165113,2.6213074,-8.184113,-7.3382416,-1.1108856,-1.0552826,-1.8130035
1612,A,4007729519117,0.053451538,-7.6079254,-2.2872162,-0.30856323,1.2016449,-2.0390167
1612,A,4007779873121,-2.771988,-9.743988,-1.6203918,0.5010071,1.0535889,-1.7272644
1612,A,4007830227125,-3.7602997,-9.90686,0.3317871,0.0028839111,0.020935059,0.060073853
1612,A,4007880581129,-5.0487366,-9.276474,-0.051651,0.16464233,-0.30004883,1.5270996
1612,A,4007930935133,-7.3307037,-10.998215,-2.647705,0.14442444,-1.7546234,3.3786774
1612,A,4007981289137,-6.562607,-11.026627,-1.7359619,1.6318512,-1.2514038,4.7550354
1612,A,4008031643141,-6.0592957,-9.75238,-1.6966248,1.1013489,4.6422577,3.776291
1612,A,4008081997145,-5.055603,-10.532227,-1.3649597,-2.7186584,1.6667328,1.7291718
1612,A,4008132351149,-3.6247253,-18.352325,1.8465118,-1.7003174,-4.922592,0.59562683
1612,A,4008182705152,0.99765015,-16.791061,-1.8612823,0.44770813,-1.7950134,-0.14331055
1612,A,4008233059156,1.2070618,-8.099075,-5.726242,-0.001373291,0.7184906,-0.6296997
1612,A,4008283413160,2.7355042,-2.8790894,6.763794,-0.23727417,2.525238,-2.6921387
1612,A,4008333767164,-0.82606506,-6.161972,-0.3270874,-1.3075867,-0.73109436,-1.9725189
1612,A,4008384121168,0.9993439,-4.5894775,-1.892456,0.15327454,-2.416336,-0.6394501
1612,A,4008434475172,-6.200531,-10.82901,-3.0911407,1.5636749,1.8318329,0.3073578
1612,A,4008484829176,-14.054077,-13.136887,0.55999756,1.6387634,2.3507538,0.40211487
1612,A,4008535183180,-3.4287872,-7.9708557,0.4322815,1.4246979,0.75531006,-1.2048492
1612,A,4008585537184,-5.799469,-16.86586,-0.9637604,0.65859985,2.8196564,-1.0663605
1612,A,4008635891188,0.7367401,-6.6761475,-2.9076538,0.6404419,0.66230774,-2.0729675
1612,A,4008686245192,0.829422,-5.074478,-5.0631256,-1.3981323,-2.294983,-2.5710907
1612,A,4008736599195,-0.7467499,-12.921265,-2.2055054,-1.8669891,-2.9635468,-0.95661926
1612,A,4008786953199,0.49742126,-7.354599,-4.948395,-1.4107208,0.3645935,-1.7200928
1612,A,4008837307203,-4.313965,-9.99971,-3.4715729,1.3943329,1.5842285,-0.8374481
1612,A,4008887661207,-2.7719269,-8.74086,0.1748352,1.2472229,1.3485565,-0.4040985
1612,A,4008938015211,-6.257202,-10.672211,2.732666,0.09611511,-0.82724,1.1978302
1612,A,4008988369215,-4.307434,-9.814163,-0.58470154,-0.044052124,-1.9508514,3.259842
1612,A,4009038723219,-6.788437,-11.213287,-4.0952606,1.1351471,-0.3196869,4.1258545
1612,A,4009089077223,-6.4615326,-10.569366,-2.8714905,0.51171875,5.209839,4.1342316
1612,A,4009139431227,-5.0391083,-10.820572,-0.9295044,-2.11232,1.459259,1.8185272
1612,A,4009189785231,-3.4012299,-16.21341,2.5627441,-0.5370331,-4.8163147,0.32447815
1612,A,4009240139235,0.025009155,-17.058716,0.2910614,-0.25079346,-1.2007599,0.4692688
1612,A,4009290493238,1.7579803,-8.320206,-4.8526764,-0.2363739,1.0482483,-0.47998047
1612,A,4009340847242,0.35775757,-4.4775543,2.3163605,-0.3509369,1.8455658,-2.0297852
1612,A,4009391201246,-0.9062195,-5.9638367,-0.76338196,-0.77171326,-3.2952728,-2.552185
1612,A,4009441555250,-1.0584564,-6.0756226,-0.8734131,-0.33685303,-1.3074036,-0.8668518
1612,A,4009491909254,-5.2515717,-11.909317,9.160278,1.0045776,0.618042,-0.3031311
1612,A,4009542263258,-13.551697,-12.19989,-1.1786346,1.5021057,3.0806885,0.761261
1612,A,4009592617262,-7.1607513,-9.132019,-0.8027344,1.4626617,1.6700287,-0.27142334
1612,A,4009642971266,-5.454254,-15.562103,2.6651306,1.2107086,2.1822052,-1.0021362
1612,A,4009693325270,0.05393982,-8.45192,-2.5783234,0.53785706,2.401352,-1.1411133
1612,A,4009743679274,1.6071777,-4.3388824,-2.845993,-0.23199463,-2.2801971,-2.052353
1612,A,4009794033277,-0.0134887695,-10.315475,-2.4035492,-1.0585022,-2.887848,-1.6282349
1612,A,4009844387281,1.814743,-9.609299,-5.5449524,-1.0429535,-1.117279,-1.9343262
1612,A,4009894741285,-2.552719,-8.623688,-2.3598938,0.07772827,1.3773804,-1.2466583
1612,A,4009945095289,-3.460617,-9.7877655,-0.40872192,0.7051697,1.337265,-0.87228394
1612,A,4009995449293,-4.3523407,-9.7323,0.87280273,0.36566162,-0.2647705,0.60861206
1612,A,4010045803297,-5.153122,-9.264252,0.14031982,0.046142578,-1.0544281,2.0026245
1612,A,4010096157301,-6.4805603,-10.969849,-2.5352936,0.043014526,-1.0358429,3.778717
1612,A,4010146511305,-6.175659,-10.795654,-2.4453278,0.44041443,2.3469696,4.17453
1612,A,4010196865309,-5.9178467,-11.277924,-2.0105133,-0.45741272,3.6925964,3.0559387
1612,A,4010247219313,-3.593872,-13.126587,0.44885254,-0.56251526,-1.9198303,1.0198975
1612,A,4010297573317,-1.4243469,-16.422302,1.0889893,-0.22990417,-2.475357,0.42277527
1612,A,4010347927320,1.8693085,-11.277405,-1.4767609,-0.14215088,0.10772705,0.014526367
1612,A,4010398281324,0.794754,-7.3271484,-0.39593506,-0.2303772,1.1142883,-1.2837677
1612,A,4010448635328,-1.9645996,-5.792801,0.28370667,-0.4146576,-0.08833313,-2.4237976
1612,A,4010498989332,-1.6312103,-5.374008,-1.6343842,-0.5117035,-2.5105286,-1.5685883
1612,A,4010549343336,-2.3341827,-7.5569763,0.15226746,0.21496582,-0.47073364,0.21194458
1612,A,4010599697340,-9.172989,-11.5372925,1.6231995,1.5974579,1.3355255,0.5940552
1612,A,4010650051344,-13.312653,-11.456619,-1.1680603,1.5973206,1.5313873,0.22799683
1612,A,4010700405348,-5.969696,-11.583603,1.345047,0.90812683,0.50987244,-1.0428467
1612,A,4010750759352,-2.1412354,-13.3688965,0.338974,0.23605347,1.3347931,-1.3835754
1612,A,4010801113356,1.8368835,-6.1172485,-3.4355774,0.2926178,0.5241394,-1.8321381
1612,A,4010851467360,1.563324,-7.4888763,-3.7062225,-0.73239136,-1.3199921,-2.0769806
1612,A,4010901821363,-0.1617279,-10.9374695,-3.4008179,-1.8242798,-2.126236,-1.8220215
1612,A,4010952175367,-0.30726624,-8.61528,-3.5575714,-1.2289276,-1.3594818,-1.2094269
1612,A,4011002529371,-3.54924,-9.7443695,-1.852066,-0.10731506,0.98786926,-0.7466736
1612,A,4011052883375,-4.678787,-10.407211,-0.62635803,0.8378906,1.0939331,-0.34599304
1612,A,4011103237379,-3.9573517,-8.854034,1.0913391,0.7786865,0.18409729,0.52848816
1612,A,4011153591383,-4.9198456,-9.519241,0.43850708,0.7068939,-0.9009247,1.7131653
1612,A,4011203945387,-5.52269,-10.768326,-1.6369934,0.8003235,-1.23909,3.0524445
1612,A,4011254299391,-5.373062,-10.687134,-2.5003967,1.1005707,1.8838806,3.7115326
1612,A,4011304653395,-5.115341,-10.320435,-2.3417358,-0.1954956,4.341202,3.1020355
1612,A,4011355007399,-4.082489,-11.975204,-0.17315674,-1.2447815,-0.076934814,1.2990875
1612,A,4011405361402,-2.0917358,-15.712372,0.98098755,-0.6781616,-2.5991821,0.3261261
1612,A,4011455715406,0.7108612,-12.967819,-3.514328,-0.1852417,-0.598114,0.14814758
1612,A,4011506069410,0.99168396,-7.2963257,-2.8973541,-0.3315735,0.84176636,-0.7983093
1612,A,4011556423414,-0.96907043,-5.9286346,0.8892517,-0.034820557,-0.1581726,-2.1365051
1612,A,4011606777418,-1.5446167,-6.161087,-0.7226105,-0.55152893,-0.80570984,-1.6997528
1612,A,4011657131422,-0.85105896,-6.8187866,-0.8423004,0.113601685,-0.99957275,-0.59542847
1612,A,4011707485426,-6.5847015,-9.268356,-6.188034,1.3006134,1.5579987,0.29718018
1612,A,4011757839430,-12.01445,-11.087189,-4.654175,1.477066,2.3989868,0.3260498
1612,A,4011808193434,-7.63974,-11.687378,1.5454254,1.2888336,0.19993591,-0.87753296
1612,A,4011858547438,-2.201645,-11.3541565,0.23435974,0.65374756,1.2909698,-0.95106506
1612,A,4011908901442,0.6954651,-7.219589,-2.794693,0.18617249,1.0318451,-1.6414642
1612,A,4011959255445,-0.49873352,-7.672577,-3.0397797,-0.09152222,-1.7050629,-1.7619171
1612,A,4012009600327,-0.9743347,-10.121033,-2.1371002,-1.6886139,-1.149643,-1.514389
1612,A,4012059954331,-0.6209259,-8.910568,-3.9796448,-1.4249573,-0.3262329,-1.0884705
1612,A,4012110308335,-2.9075775,-9.214996,-3.202774,-0.27320862,1.3505554,-0.72836304
1612,A,4012160662339,-4.2604523,-9.705826,-0.79408264,0.598053,1.3847961,-1.0935669
1612,A,4012211016343,-4.421814,-9.603668,0.74624634,0.66056824,-0.54745483,0.04446411
1612,A,4012261370347,-3.1547089,-9.306839,0.62609863,0.8516693,-1.6860046,1.9352112
1612,A,4012311724351,-5.360138,-10.534882,-2.041504,1.194046,-1.3526611,3.6095276
1612,A,4012362078355,-6.7348022,-10.958481,-2.2341309,1.2392426,2.7088623,3.934433
1612,A,4012412432359,-6.0817566,-10.243713,-2.0664673,-0.54112244,4.742462,2.6771698
1612,A,4012462786363,-4.323395,-13.120621,0.54312134,-2.1297607,-0.9697876,1.024353
1612,A,4012513140366,-1.334259,-15.897446,1.0821381,-0.7489929,-2.3064575,0.16615295
1612,A,4012563494370,1.3154144,-11.249817,-5.4531097,0.0544281,-0.86434937,-0.09819031
1612,A,4012613848374,0.8817444,-7.36734,-1.7485199,0.021270752,1.088913,-0.93927
1612,A,4012664202378,-0.7754669,-6.073822,2.1604156,-0.4610901,0.75572205,-2.8004608
1612,A,4012714556382,-1.1748657,-5.8953247,-1.5796204,-0.6099243,-0.23745728,-1.8048553
1612,A,4012764910386,-1.2449951,-6.922104,-1.3253937,0.7080231,-0.91545105,-0.38865662
1612,A,4012815264390,-7.6216583,-10.718414,-6.6844635,1.6225128,2.3347778,0.77334595
1612,A,4012865618394,-11.8211975,-11.511047,-2.0571442,1.4958496,1.6042175,0.213974
1612,A,4012915972398,-8.044952,-14.653488,2.184204,1.286499,0.92778015,-0.59576416
1612,A,4012966326402,-1.0279541,-10.760162,-1.3988342,0.28038025,4.1811676,-0.32829285
1612,A,4013016680405,0.3410797,-6.2830048,-2.9899902,0.61253357,0.5517578,-1.8403625
1612,A,4013067034409,0.34934998,-8.976578,-2.3493958,-0.11062622,-2.6554565,-1.5098877
1612,A,4013117388413,2.9224854,-8.977707,-3.869049,-1.454071,-2.782257,-1.5180511
1612,A,4013167742417,-0.36340332,-8.186142,-3.635559,-1.3028107,-0.3665161,-1.9613037
1612,A,4013218096421,-3.171173,-10.649857,-3.4637604,0.50737,1.0011902,-1.2138519
1612,A,4013268450425,-2.7203827,-9.697052,-0.3520813,0.6116791,1.288208,-0.34742737
1612,A,4013318804429,-5.7556915,-9.636093,1.1689453,0.6120453,0.7142029,0.75717163
1612,A,4013369158433,-5.3404236,-9.323395,-0.23651123,0.269989,-0.6303711,2.0432281
1612,A,4013419512437,-6.293503,-10.423569,-2.1308746,0.43136597,-1.5354309,3.5269318
1612,A,4013469866441,-5.2931366,-10.622833,-2.4365387,1.3056488,1.9858246,4.015808
1612,A,4013520220445,-5.293152,-10.23616,-2.3844757,-0.2432251,5.1164856,2.8495636
1612,A,4013570574448,-3.5601807,-12.2591095,0.8641815,-1.8989716,-1.7478638,1.0956268
1612,A,4013620928452,-2.4880219,-17.089706,1.0948639,-1.3997803,-2.507431,0.061645508
1612,A,4013671282456,1.4072723,-11.247284,-5.12471,0.04197693,-0.7233887,0.3812256
1612,A,4013721636460,2.2770233,-6.796112,-3.1357727,-0.4542694,0.8568115,-0.6459961
1612,A,4013771990464,-3.6940765,-5.9098663,5.268524,0.66845703,0.75001526,-2.5121307
1612,A,4013822344468,-1.6421051,-6.504715,-3.0800018,-1.2157135,-1.2800598,-2.4000702
1612,A,4013872698472,0.5709686,-5.561722,-0.73161316,0.6164398,-1.7096558,-0.37454224
1612,A,4013923052476,-6.0846863,-8.299484,-3.3936005,1.2207489,3.2654266,0.8804016
1612,A,4013973406480,-12.916351,-13.965805,0.47381592,1.2598572,2.534851,0.46331787
1612,A,4014023760484,-6.0254517,-11.850006,1.7331543,1.3360138,1.220398,-0.22229004
1612,A,4014074114488,-3.0321045,-12.111023,-0.7242279,1.1586609,3.133789,-0.69381714
1612,A,4014124468491,0.12789917,-5.0546875,-2.79245,0.095199585,2.1907501,-1.6939087
1612,A,4014174822495,1.5810089,-6.135391,-2.9194946,0.53222656,-2.117813,-2.2903595
1612,A,4014225176499,0.32577515,-14.189957,-2.5699005,-0.8484192,-3.104065,-1.5956573
1612,A,4014275530503,1.4258881,-7.9522095,-5.0377197,-1.7896881,-0.60414124,-2.3449707
1612,A,4014325884507,-2.8659363,-9.391602,-2.9749603,-0.16630554,2.0561981,-1.1789703
1612,A,4014376238511,-3.4991302,-9.745209,-2.045044,0.4185028,1.1442871,-0.62342834
1612,A,4014426592515,-6.552292,-10.100006,1.0923157,0.14685059,0.2133789,0.96891785
1612,A,4014476946519,-6.1263733,-9.411911,-0.06468201,0.7579651,-0.06365967,2.0619507
1612,A,4014527300523,-7.623398,-10.916779,-3.0722504,0.99913025,-1.3673248,3.7648926
1612,A,4014577654527,-5.046524,-10.321121,-0.63345337,2.1438446,0.91241455,4.2704315
1612,A,4014628008530,-5.0020905,-9.400482,-1.599823,0.18847656,5.576996,3.0682678
1612,A,4014678362534,-4.4556274,-11.736984,-0.9001007,-3.0143585,-0.6482849,0.94592285
1612,A,4014728716538,-2.9954681,-18.856812,1.6010284,-1.1147461,-4.5202484,-0.17378235
1612,A,4014779070542,1.984848,-14.558395,-3.3232727,-0.096084595,-0.9759979,-0.17704773
1612,A,4014829424546,1.9716644,-5.945038,-2.756668,-0.20890808,0.98573303,-0.84950256
1612,A,4014879778550,-0.6104584,-3.2457123,5.910675,-0.41601563,0.7807312,-2.3506165
1612,A,4014930132554,-1.7923126,-6.326782,-1.6313324,-1.1542358,-1.4924164,-2.0699615
1612,A,4014980486558,-0.866745,-6.523468,-1.5028992,0.48706055,-1.5387726,-1.1545563
1612,A,4015030840562,-6.5822754,-11.7022705,0.77511597,1.0154419,1.9154358,-0.14050293
1612,A,4015081194566,-11.125793,-11.870895,1.9221954,1.1905212,1.7464447,0.69007874
1612,A,4015131548570,-5.7209015,-10.083542,-0.3250122,1.6735992,2.15036,-0.13996887
1612,A,4015181902573,-7.943878,-15.675156,-0.9950714,0.73254395,4.091461,-0.7431793
1612,A,4015232256577,-0.018661499,-4.3900146,-2.7445679,-0.89424133,-0.52223206,-1.5318756
1612,A,4015282610581,1.5318604,-5.907074,-2.6373901,-1.0514526,-3.6228485,-1.7922058
1612,A,4015332964585,1.8904419,-12.641083,-4.7698975,-1.364212,-1.6898499,-1.567749
1612,A,4015383318589,1.3335876,-8.338181,-5.351654,-0.35125732,1.2782898,-1.8904572
1612,A,4015433672593,-1.7841644,-8.062698,0.014862061,0.6668854,1.6473999,-1.9594727
1612,A,4015484026597,-3.3830872,-9.998291,0.741745,0.32891846,-0.3518982,-0.6535187
1612,A,4015534380601,-4.8273773,-10.539276,0.9477234,0.49491882,-0.89471436,1.2600403
1612,A,4015584734605,-6.287552,-9.940964,-2.5376434,0.9056549,-1.0389404,3.2260895
1612,A,4015635088609,-7.589798,-10.319656,-3.0115662,1.4121094,0.14823914,4.716339
1612,A,4015685442613,-6.526581,-9.531754,-0.8583832,0.84965515,4.7217255,3.901062
1612,A,4015735796616,-6.060501,-11.05629,-0.9578552,-1.2443695,2.0249786,1.978302
1612,A,4015786150620,-3.1360168,-15.971558,0.7637329,-0.9449463,-4.2646484,0.36883545
1612,A,4015836504624,0.23664856,-16.154938,-3.1362305,-0.19464111,-2.3208008,-0.2647705
1612,A,4015886858628,1.8586884,-8.123016,-4.733307,-0.13253784,1.1384888,-0.74835205
1612,A,4015937212632,1.1869354,-3.9768677,1.8552246,-0.3040161,-0.48651123,-1.7444916
1612,A,4015987566636,-1.1947784,-4.387375,-0.41526794,-1.0760193,-2.1355896,-1.1148224
1612,A,4016037920640,-4.0682373,-6.77771,2.4050293,-0.057861328,1.9129791,-0.36602783
1612,A,4016088274644,-9.629074,-11.127838,2.6926117,0.88352966,1.1551514,-0.2130127
1612,A,4016138628648,-8.689102,-11.418396,0.78382874,1.3463135,-1.4030151,-0.44277954
1612,A,4016188982652,-3.9467773,-13.071503,2.0729523,1.172348,-1.2560577,-1.5538025
1612,A,4016239336655,-2.4621887,-12.055878,-1.1088562,-0.116867065,1.182312,-1.4497223
1612,A,4016289690659,-0.13397217,-5.5610046,-2.7409668,-0.64016724,1.7741852,-1.3677979
1612,A,4016340044663,-2.1765137,-7.9941406,-4.202835,-0.5727844,0.7248688,-1.3131409
1612,A,4016390398667,-2.9536896,-10.543228,-4.5608215,-1.304184,0.8870697,-1.3398285
1612,A,4016440752671,-2.0821533,-9.015961,-3.326889,-1.7391968,-0.0135650635,-1.0791016
1612,A,4016491106675,-2.880249,-8.290237,-1.7214203,-0.7127838,-0.89630127,-0.8343353
1612,A,4016541460679,-3.9836426,-9.375748,-1.5338287,0.7992859,0.100738525,-0.8220215
1612,A,4016591814683,-4.2913666,-10.174957,-0.9319916,1.4803772,-0.17449951,-0.34983826
1612,A,4016642168687,-3.724121,-9.700439,0.6832886,0.9156189,-2.0991821,1.2063904
1612,A,4016692522691,-4.6201324,-9.723343,-0.17668152,1.0721588,-2.0785522,3.0889893
1612,A,4016742876695,-6.5808716,-10.553925,-3.2003632,1.6376495,2.9748077,3.8772125
1612,A,4016793230698,-7.262268,-10.937714,-2.9527283,-0.43501282,5.398117,3.671402
1612,A,4016843584702,-5.440399,-13.069519,1.3644714,-0.2918396,-0.6682892,1.5041962
1612,A,4016893938706,-2.0172424,-16.35527,2.2347412,-0.032348633,-3.1964111,0.70552063
1612,A,4016944292710,1.9806061,-12.215332,-2.0549927,-0.24606323,-0.09257507,0.36125183
1612,A,4016994646714,1.5437775,-7.792694,-1.8503723,-0.551239,2.3528595,-0.98083496
1612,A,4017045000718,-0.5315094,-5.224869,-0.5207367,-0.3020172,-1.0018005,-2.0893707
1612,A,4017095354722,-0.83688354,-4.354706,-0.7375488,-0.62498474,-0.6376953,-1.3061371
1612,A,4017145708726,-0.49334717,-5.732849,0.18431091,-0.2250061,-0.11062622,-0.51564026
1612,A,4017196062730,-10.6024475,-10.336838,-9.016785,1.1586761,2.6845856,0.87231445
1612,A,4017246416734,-12.175705,-8.8932495,-5.143875,1.2517853,1.0237427,0.4479065
1612,A,4017296770738,-5.886673,-10.5060425,0.9650421,1.0333252,-1.5502014,-1.351532
1612,A,4017347124741,-2.4324493,-16.181564,-3.3700867,1.1373444,0.22489929,-1.1758728
1612,A,4017397478745,1.5458069,-8.112015,-3.861786,0.32348633,0.7787628,-1.7789764
1612,A,4017447832749,0.7126465,-4.139633,-3.603363,-0.9224701,-1.6436768,-2.2811432
1612,A,4017498186753,-0.9812317,-11.120117,-2.5511932,-3.525772,-0.23539734,-1.7212524
1612,A,4017548540757,-1.5170288,-9.8694,-5.056427,-1.7888794,5.3904877,-0.6412964
1612,A,4017598894761,-4.079193,-9.321045,-4.0855103,1.557312,5.9363403,1.665863
1612,A,4017649248765,-6.511673,-8.855774,-1.3906555,1.9257813,-2.762329,0.91833496
1612,A,4017699602769,-8.1892395,-10.414139,6.828827,0.36875916,-1.280014,0.4099579
1612,A,4017749956773,-1.0874329,-10.133118,-0.93032837,0.55848694,2.823166,-0.6661072
1612,A,4017800310777,-1.0744629,-8.605698,-4.1276093,-1.071518,-2.0301056,-1.564743
1612,A,4017850664780,-1.006485,-13.171616,-3.0328827,-1.172287,-2.0052795,-1.4402161
1612,A,4017901018784,0.4588318,-17.465958,-6.3362885,0.44917297,-1.3869171,-0.46427917
1612,A,4017951372788,-0.8894501,-16.566208,-0.7931671,1.445694,-2.4009094,0.8781891
1612,A,4018001726792,-1.8190613,-13.164597,4.040924,1.8588104,-1.5669403,1.6537476
1612,A,4018052080796,-3.488617,-9.623123,0.44984436,1.486969,0.8151703,1.59906
1612,A,4018102434800,-2.046173,-5.7742615,-2.4412231,0.58862305,1.2961426,1.2530365
1612,A,4018152788804,-2.152588,-8.252899,-1.092804,-0.5406494,-1.4601898,1.2139587
1612,A,4018203142808,-0.77101135,-8.627579,-1.5804443,-1.679718,-4.59111,1.3035889
1612,A,4018253496812,-1.5311432,-7.7921753,-3.6207886,-1.5066376,-0.97029114,1.3787231
1612,A,4018303850816,-2.8970337,-8.6966095,-6.5722046,-0.7571564,1.2318726,1.226059
1612,A,4018354204820,-4.3118286,-8.538513,-3.8119354,-2.4618988,0.16275024,0.640213
1612,A,4018404558823,-4.6277924,-6.6746674,0.8722992,-0.8436127,-2.2350922,-0.9733429
1612,A,4018454912827,-1.9557648,-6.39888,-4.566391,-0.14173889,-0.9637146,-0.9954376
1612,A,4018505266831,3.0224915,-7.625824,-1.7230835,-0.1590271,-1.4315796,-1.4605255
1612,A,4018555620835,-0.6021881,-7.578079,1.8207092,-1.0000305,-0.3059845,-1.0571594
1612,A,4018605974839,-2.0905151,-8.784348,-0.37506104,-0.08866882,-0.3346405,-2.07164
1612,A,4018656328843,-8.559921,-11.882706,-4.634781,0.26278687,2.5076447,1.5975494
1612,A,4018706682847,-8.281342,-7.960388,-0.8947754,1.2610168,-2.504776,2.8653717
1612,A,4018757036851,-4.4013214,-12.666199,1.2315369,2.1953278,1.3511505,-0.9855194
1612,A,4018807390855,-5.9897614,-18.001251,-2.9441376,-0.033554077,6.7223206,-1.5313721
1612,A,4018857744859,3.992691,-3.0567474,-0.769989,-1.497757,-6.6517334,-0.680954
1612,A,4018908098863,8.112869,-2.3907318,-2.572281,-3.5479736,-5.714096,-2.4921417
1612,A,4018958452866,0.15524292,-18.240067,-14.466354,-1.9211731,1.7715607,-0.8111725
1612,A,4019008806870,3.0180511,-7.2560425,-2.317398,2.654007,5.588608,-0.4798584
1612,A,4019059160874,-1.6723633,-10.703461,1.2543488,1.16156,-1.0077362,-2.0510254
1612,A,4019109514878,-5.1518707,-12.088333,7.181549,-0.60206604,-2.179367,1.0175323
1612,A,4019159868882,-2.4045715,-8.599625,-2.831604,0.89878845,1.1996918,3.7727814
1612,A,4019210222886,-9.400681,-11.344101,-9.636337,0.45663452,2.699295,4.0592194
1612,A,4019260576890,-11.995728,-14.034714,1.0342712,0.21209717,0.4567871,2.996994
1612,A,4019310930894,-4.2851715,-12.728836,0.6290283,-0.7869873,-2.5119781,1.1081848
1612,A,4019361284898,-2.2343445,-18.755325,-0.16685486,-2.2436066,-1.8878937,0.86172485
1612,A,4019411638902,0.97410583,-12.02565,-3.310028,-0.5202484,-0.1516571,1.0113525
1612,A,4019461992905,-0.02243042,-9.366653,-4.599991,-0.3798828,-1.0879669,0.33506775
1612,A,4019512346909,-1.443634,-3.2853699,3.7458344,-0.4510193,0.41741943,-0.74116516
1612,A,4019562700913,-2.0638885,-2.8322449,-0.9643707,-0.61047363,1.3641357,-1.7016449
1612,A,4019613054917,0.73908997,-5.261261,-1.6275635,-0.5650635,0.5686035,0.15426636
1612,A,4019663408921,0.35162354,-6.415207,-1.608963,0.14816284,2.562851,1.2901764
1612,A,4019713762925,-8.9375305,-13.568375,-3.7385406,3.3877563,-0.7628937,0.1586914
1612,A,4019764116929,-15.981186,-17.365448,1.2775421,1.5499115,0.60354614,-1.8877411
1612,A,4019814470933,3.056778,-6.7416534,-1.6087189,-1.1058197,-2.1251373,-2.234848
1612,A,4019864824937,2.5660706,-6.610611,-1.2372894,-0.33093262,-0.6362457,-3.6332092
1612,A,4019915178941,0.4260254,-13.03064,-8.045746,-0.3783722,-0.43655396,-3.9258728
1612,A,4019965532945,0.21316528,-6.7614136,-3.032837,-2.8399353,0.8243408,-1.7648468
1612,A,4020015886948,-2.944336,-8.866074,-0.036087036,-1.7994385,1.2969818,-0.46852112
1612,A,4020066240952,-8.101135,-12.764145,-3.6738892,0.7215576,1.865799,0.21014404
1612,A,4020116594956,-7.465103,-9.298309,-0.8640137,2.8247833,0.3751526,0.3351593
1612,A,4020166948960,-4.4121094,-7.449951,1.8506317,1.6947174,0.7156372,1.0762024
1612,A,4020217302964,-2.622757,-9.191803,0.85713196,-0.30595398,-1.2374725,2.7630463
1612,A,4020267656968,-4.359665,-10.863388,-2.2859955,-0.15907288,-2.6444702,4.231415
1612,A,4020318010972,-5.835846,-12.0191345,-6.0903473,0.20179749,1.9240112,4.034363
1612,A,4020368364976,-5.331909,-12.665802,-5.3247375,-1.3395386,3.6037903,2.789688
1612,A,4020418718980,-3.9855957,-16.25119,0.5885925,-1.9365845,-2.6995392,1.1498566
1612,A,4020469072984,-2.2431183,-17.16449,0.6534424,-0.7407837,-2.8527527,-0.20449829
1612,A,4020519426988,1.4744568,-9.695999,-2.25914,-0.43373108,-0.60032654,0.041290283
1612,A,4020569780991,1.140213,-4.112915,-0.13217163,0.12409973,0.7790375,-1.1095581
1612,A,4020620134995,-1.5733948,-3.6519165,0.9597168,-0.39926147,1.2782745,-1.9529572
1612,A,4020670488999,-0.3673401,-4.3264313,-1.2545319,-0.82281494,-0.62132263,-1.5847778
1612,A,4020720843003,-1.7223816,-7.2422333,-1.2957306,0.13282776,-0.9170685,-0.5478058
1612,A,4020771197007,-9.040955,-12.399506,-0.19125366,0.60105896,1.2420654,0.12557983
1612,A,4020821551011,-12.484787,-11.807739,-0.70599365,1.7623749,0.90153503,0.3824005
1612,A,4020871905015,-7.0434875,-10.007065,-1.5296936,1.9676819,0.34568787,-0.88237
1612,A,4020922259019,-6.1370544,-13.3181305,-0.5483246,0.7676697,1.1924133,-1.379776
1612,A,4020972613023,1.3420563,-6.8032684,-1.7917938,-0.47447205,-0.17147827,-1.9117126
1612,A,4021022967027,1.3464813,-8.772491,-2.5223541,-1.1058197,-2.9774475,-2.3266144
1612,A,4021073321030,-0.0040130615,-11.134689,-4.4075165,-1.7910309,-0.88690186,-1.9565582
1612,A,4021123675034,-0.60372925,-8.231201,-5.535202,-1.2651672,1.9162292,-1.4277496
1612,A,4021174029038,-3.5028076,-8.970795,-1.7436218,0.4386139,1.8704681,-0.8542938
1612,A,4021224383042,-4.912903,-9.505142,0.4131775,0.75341797,0.20927429,-0.12625122
1612,A,4021274737046,-5.375824,-9.559357,0.7475281,0.4923706,-0.6833954,1.9324036
1612,A,4021325091050,-5.8841705,-9.88237,-1.099823,0.97372437,-0.61691284,3.949707
1612,A,4021375445054,-7.277939,-9.862686,-2.461853,1.1782074,2.6844635,4.449005
1612,A,4021425799058,-7.0447845,-9.876205,-1.6382751,-0.59568787,3.8290253,3.5207367
1612,A,4021476153062,-5.6640778,-13.171356,0.17097473,-1.1731415,-1.9403534,1.374466
1612,A,4021526507066,-3.1803436,-17.820313,0.9855194,-0.81204224,-4.0112762,-0.37413025
1612,A,4021576861070,0.48391724,-13.927551,0.4673462,-0.8472748,-0.21130371,-0.27841187
1612,A,4021627215073,2.6284027,-5.282028,0.039718628,0.6037903,2.6152344,-0.58166504
1612,A,4021677569077,0.89349365,-1.605011,0.5633545,-0.799881,0.050476074,-1.7567291
1612,A,4021727923081,-1.5177917,-2.2646942,0.27371216,-1.1085968,-1.6053009,-0.76750183
1612,A,4021778277085,-4.387726,-7.418915,-4.1499634,0.60780334,0.7490387,0.7294922
1612,A,4021828631089,-13.466019,-11.762451,3.003357,1.1677551,1.3094177,0.6664429
1612,A,4021878985093,-12.582321,-11.639709,3.4522552,1.5841675,-0.2006073,-1.0273438
1612,A,4021929339097,-3.9623108,-15.949448,-1.0166779,0.89463806,-1.1647186,-1.3292236
1612,A,4021979680181,1.1932983,-11.839661,-0.9049988,0.5434265,1.1343842,-1.7973938
1612,A,4022030034185,2.6909943,-5.1619263,-4.5914307,-0.25904846,0.9377136,-2.6123657
1612,A,4022080388189,-0.13652039,-9.581085,-3.6939545,-1.3437805,-0.1134491,-2.0769653
1612,A,4022130742193,-1.1660767,-11.123489,-4.588272,-1.8596344,1.4019775,-2.0598755
1612,A,4022181096196,-3.729065,-9.419678,-4.870697,-1.0570068,2.274887,-1.1826935
1612,A,4022231450200,-5.426178,-9.058884,-2.05336,0.5827484,1.304779,-0.2294159
1612,A,4022281804204,-7.095642,-9.812286,0.2980652,1.7997131,0.5082855,0.2861023
1612,A,4022332158208,-5.4062653,-8.345779,0.43302917,1.3626404,-0.26924133,0.92811584
1612,A,4022382512212,-5.145874,-9.4210205,0.07546997,0.4085846,-1.9402313,2.4732819
1612,A,4022432866216,-5.4873505,-11.109146,-1.4936676,0.69340515,-1.9746704,3.9798584
1612,A,4022483220220,-6.124069,-10.668579,-3.6859283,0.71832275,3.760315,4.1420746
1612,A,4022533574224,-5.550171,-10.257904,-2.8701324,-2.043396,4.104599,2.4919434
1612,A,4022583928228,-4.1554413,-15.282043,0.8990936,-1.5953369,-3.9219818,0.3952484
1612,A,4022634282232,-1.1485596,-18.374725,1.4753265,-0.7474518,-3.4777985,-0.20240784
1612,A,4022684636235,0.93951416,-10.772476,-5.0679626,-0.24757385,-0.14706421,-0.33506775
1612,A,4022734990239,1.4957123,-4.7816772,-0.11039734,-0.4606018,2.2058105,-1.1216278
1612,A,4022785344243,-1.6208496,-5.154648,0.59832764,-1.0010376,-1.1816254,-2.0114594
1612,A,4022835698247,-1.016098,-5.0709686,-1.9358368,-0.19670105,-1.8769226,-0.8935394
1612,A,4022886052251,-2.67482,-12.21666,6.0915985,0.49510193,-0.03514099,-0.8251648
1612,A,4022936406255,-12.374847,-11.4544525,3.1064148,0.7896881,1.7523499,0.6078186
1612,A,4022986760259,-7.538727,-7.22847,-1.7855225,1.5064392,1.0730743,-0.10380554
1612,A,4023037114263,-6.186203,-14.969025,1.3199005,1.2175751,1.3540802,-1.4927673
