Subject-Id,Activity Label,Time stamp,Accel_x,Accel_y,Accel_z,Gyro_x,Gyro_y,Gyro_z
1642,A,1472399101274000,-8.411309,4.734954,2.7470875,0.08735169,0.058589544,-0.13741912
1642,A,1472399121402000,-8.54064,5.0199614,2.7686427,0.05006743,0.04580637,-0.15659387
1642,A,1472399141568000,-7.8772197,4.028423,2.7303224,0.0063915867,-0.025566347,-0.101200126
1642,A,1472399161696000,-7.558682,4.064348,3.0081446,-0.11717909,-0.037284255,0.034088463
1642,A,1472399181894000,-6.07856,-0.55803955,2.912344,-0.16724652,-0.101200126,0.16298546
1642,A,1472399201989000,-9.137,5.7791824,3.3482375,-0.13635385,-0.19707392,0.18002969
1642,A,1472399222085000,-10.894944,9.704619,4.232,-0.0063915867,-0.13209279,0.1949434
1642,A,1472399242279000,-7.6377177,4.0044727,2.0022364,0.020240024,-0.022370555,0.1555286
1642,A,1472399262375000,-8.557405,5.4223247,2.8788135,0.08948222,-0.16085494,-0.112918034
1642,A,1472399282467000,-8.346643,5.4342995,2.4572902,0.13315806,-0.17470337,-0.10865697
1642,A,1472399302563000,-8.775352,5.134922,2.193838,0.165116,-0.011717909,-0.0053263223
1642,A,1472399322726000,-8.677156,4.905,2.8620484,0.082025364,0.033023197,-0.05539375
1642,A,1472399342822000,-8.214917,4.526587,2.8716285,0.40373522,-0.16937704,-0.039414786
1642,A,1472399362997000,-8.167017,4.5888577,2.8548634,0.5091964,-0.20026971,0.18109496
1642,A,1472399383093000,-8.133487,4.061953,2.8428884,0.535828,-0.2545982,0.32384038
1642,A,1472399403462000,-8.1071415,4.018843,2.8452833,0.6135923,-0.4314321,0.3334278
1642,A,1472399423558000,-8.135881,4.277505,3.4584084,0.44741106,-0.5113269,0.3920173
1642,A,1472399443860000,-8.452024,3.67875,3.2213013,0.35792887,-0.30253512,0.36645097
1642,A,1472399463956000,-8.167017,3.5973196,2.914739,0.1555286,-0.30679616,-0.017044231
1642,A,1472399484173000,-6.969507,3.8823268,3.6859353,0.21944448,-0.3834952,-0.20772657
1642,A,1472399504269000,-7.470066,3.7697608,3.5613942,0.27803403,-0.3568636,-0.21411815
1642,A,1472399524466000,-7.8580594,3.9829175,3.2644117,0.32597092,-0.4079963,-0.4293016
1642,A,1472399544562000,-8.322693,4.9552956,2.8668385,0.24501082,-0.1736381,-0.4889564
1642,A,1472399564757000,-8.423284,4.967271,2.912344,0.24820662,-0.19920446,-0.38136467
1642,A,1472399584853000,-7.6137676,4.8451247,3.3985329,0.38775626,-0.32597092,-0.45806372
1642,A,1472399605666000,-7.4748564,5.0678616,3.2404616,0.12250541,-0.08522116,-0.43356264
1642,A,1472399625762000,-8.835227,4.1984696,3.1949563,0.3472762,-0.0010652645,-0.26312032
1642,A,1472399645963000,-8.418494,3.7290456,3.7242556,0.37390783,-0.221575,-0.17896444
1642,A,1472399666059000,-7.3311553,4.488267,4.8020144,0.4495416,-0.3153183,-0.12357068
1642,A,1472399686263000,-8.183782,5.5780005,3.6332448,0.4527374,-0.24074976,-0.1438107
1642,A,1472399706359000,-9.359736,5.319339,2.3638844,0.49534798,-0.060720075,-0.12144015
1642,A,1472399726564000,-8.581355,4.3709106,3.3937428,0.45167214,-0.314253,-0.07669904
1642,A,1472399746660000,-7.903565,5.1540823,3.9709425,0.25033715,-0.33662358,-0.017044231
1642,A,1472399766870000,-8.327483,4.9457154,2.9602442,0.45593318,-0.26205507,-0.17044231
1642,A,1472399786966000,-7.951465,5.137317,3.894302,0.56672066,-0.5944176,-0.60720074
1642,A,1472399807160000,-8.121511,5.4175344,3.5925295,0.5209143,-0.60720074,-0.7073356
1642,A,1472399827256000,-9.12263,4.782854,2.8141482,0.42717105,-0.7861652,-0.72970617
1642,A,1472399847462000,-9.2328005,4.1314087,3.04407,0.39627838,-0.68816084,-0.7520767
1642,A,1472399867558000,-8.452024,4.9433208,3.4512234,0.52411014,-0.38029942,-0.78083885
1642,A,1472399887771000,-6.638994,4.263135,2.9817994,0.76592517,0.033023197,-0.7819041
1642,A,1472399907867000,-6.8042507,3.173401,2.8309133,0.6593987,0.42717105,-0.64768076
1642,A,1472399928071000,-8.025711,5.0510964,4.112249,0.36218992,0.45486793,-0.28016454
1642,A,1472399948167000,-6.706055,5.372029,3.8679566,0.16937704,0.6711166,-0.04580637
1642,A,1472399968376000,-7.3886356,5.245093,3.3889527,0.13315806,0.83942837,-0.5230448
1642,A,1472399988472000,-7.824529,4.7636943,3.3673975,0.5113269,1.768339,-3.6677055
1642,A,1472400008660000,-7.1419487,4.493057,3.5925295,0.21624869,1.6852484,-2.2732744
1642,A,1472400028756000,-6.191126,5.110972,3.9254372,-0.1555286,-0.69135666,-0.38136467
1642,A,1472400048947000,-7.1563187,4.521797,3.187771,-0.15126756,-1.1004182,-1.1664646
1642,A,1472400069043000,-8.205338,4.4762917,2.9841945,-0.4495416,-0.068176925,-1.0173275
1642,A,1472400089354000,-7.9730206,5.3001785,3.4416432,-0.6945524,0.91186637,0.5305017
1642,A,1472400109450000,-7.417376,5.585186,3.8344264,-0.94488955,1.0024139,0.35473305
1642,A,1472400129641000,-6.8737063,6.2869267,4.3565407,-1.0844392,0.18855181,-0.08948222
1642,A,1472400149737000,-7.1395535,6.2510014,4.1888895,-0.773382,0.14168017,0.101200126
1642,A,1472400169929000,-8.339458,3.3051271,2.3926246,-0.6359629,0.42290998,0.06178534
1642,A,1472400190025000,-8.241262,3.0081446,2.806963,-0.608266,0.28336033,-0.20985709
1642,A,1472400210219000,-8.938213,5.640271,4.368516,-0.79681784,0.39095205,-0.9896307
1642,A,1472400230315000,-8.145462,5.7719975,4.478687,-0.5944176,0.78296936,-1.5648735
1642,A,1472400250508000,-7.685618,4.3086405,3.657195,-0.33662358,0.9235843,-0.294013
1642,A,1472400270604000,-8.370594,4.3373804,3.3458424,-0.08522116,0.74675035,0.76592517
1642,A,1472400290803000,-8.068821,5.122947,4.26074,-0.14807177,0.22050974,0.73822826
1642,A,1472400310899000,-7.470066,5.007986,3.9398074,-0.42077947,0.128897,0.7137272
1642,A,1472400331074000,-7.893985,4.414021,3.6691701,-0.26418558,0.53263223,0.89162636
1642,A,1472400351170000,-8.725057,3.911067,3.8727467,-0.55287224,-0.14594123,0.36005938
1642,A,1472400371347000,-8.358619,4.5409575,4.129014,-0.7840346,-1.401888,-0.535828
1642,A,1472400391443000,-7.831714,4.399651,3.7266505,-0.5454154,-1.8152106,-1.2229236
1642,A,1472400411662000,-8.777747,3.8847218,3.7529957,-0.165116,-1.7992316,-1.1313108
1642,A,1472400431758000,-8.356223,4.2272096,4.095484,0.44208476,-1.4253238,-1.0098706
1642,A,1472400451918000,-8.47837,3.8104763,3.1374757,0.9619338,-0.9267801,-0.9938917
1642,A,1472400472046000,-8.713081,3.163821,2.9051588,1.6863136,-0.96939063,-0.9150622
1642,A,1472400492206000,-8.346643,4.6894484,4.1625443,1.6255935,-0.87564737,-0.57417756
1642,A,1472400512386000,-6.998247,5.5875807,4.8163843,0.7946873,-0.62104917,-0.37071204
1642,A,1472400532509000,-6.7371902,4.1721244,3.774551,0.3888215,-0.15339808,-0.3387541
1642,A,1472400552605000,-7.664063,4.138594,4.277505,0.35792887,0.44421527,0.12144015
1642,A,1472400572821000,-8.047266,5.1780324,4.6104126,0.28229508,0.6178534,0.4079963
1642,A,1472400592917000,-7.8915896,4.478687,3.4248781,0.32810146,0.41758367,0.07563378
1642,A,1472400613114000,-8.361013,4.277505,4.033213,0.43782368,-0.05006743,-0.551807
1642,A,1472400633210000,-7.4940166,4.8523097,4.3397756,0.49854377,0.06178534,-0.46019423
1642,A,1472400653404000,-6.0689797,5.7887626,4.4331813,0.2695119,0.6743124,0.013848438
1642,A,1472400673500000,-7.6017923,4.6128078,3.3147073,0.060720075,0.7041398,-0.10439592
1642,A,1472400693688000,-8.418494,4.2511597,4.4475513,-0.45380265,0.3717773,0.39734364
1642,A,1472400713784000,-6.809041,5.9540186,5.1828227,-0.6945524,0.8905611,0.76912093
1642,A,1472400733979000,-6.2869267,5.247488,4.7157936,-0.1470065,1.1622036,0.2609898
1642,A,1472400754075000,-8.308323,2.543511,3.0919704,-0.03089267,1.0610034,0.19707392
1642,A,1472400774271000,-8.260423,3.5039136,3.0225148,0.1438107,1.3219932,0.5454154
1642,A,1472400794367000,-7.0413575,4.9217653,2.2585034,-0.49641323,1.2452941,0.5571333
1642,A,1472400814536000,-7.0413575,4.6199927,2.8644435,-1.128115,0.8681905,0.6689861
1642,A,1472400834632000,-8.329878,4.27032,3.0991554,-1.0375676,0.9938917,0.77231675
1642,A,1472400854811000,-7.7574687,4.28948,3.5087037,-0.60080916,0.7850999,0.47510794
1642,A,1472400874907000,-5.910908,3.8368216,3.295547,-0.1107875,0.12250541,0.30360037
1642,A,1472400895102000,-4.5601172,2.3686745,3.5805542,-0.128897,-0.6306366,-0.14168017
1642,A,1472400915198000,-5.630691,1.3148658,3.1111305,-0.13209279,-1.8066885,-1.2186625
1642,A,1472400935392000,-4.749324,-0.21076173,3.5925295,-0.24820662,-2.2253375,-1.7278589
1642,A,1472400955488000,11.357183,-12.636124,6.600674,-0.30786142,-1.9004318,-1.3571469
1642,A,1472400975698000,-6.593489,1.9711012,-3.03928,0.0958738,-1.5659387,-0.80533993
1642,A,1472400995794000,-34.67749,14.794036,2.799778,0.4527374,-1.2431636,-0.644485
1642,A,1472401015991000,-12.18586,2.2752686,3.9445972,1.2101405,-1.0396981,-0.753142
1642,A,1472401036087000,-9.932146,-0.37362307,4.373306,1.107875,-0.5901565,-0.51026165
1642,A,1472401056300000,-10.459051,1.5495777,7.2808595,0.44208476,-0.058589544,-0.09054748
1642,A,1472401076396000,-8.698711,0.8143067,3.788921,0.029827405,0.93636745,0.24820662
1642,A,1472401096589000,-11.747571,0.1939966,1.590293,0.15659387,1.2048141,0.41758367
1642,A,1472401116685000,-15.833475,1.5998731,1.8800904,0.3685815,0.46978164,-0.0010652645
1642,A,1472401136893000,-16.372355,3.2093263,1.1280543,0.46871635,-0.2609898,-0.5752428
1642,A,1472401156989000,-13.663587,2.1387525,1.0154883,0.49854377,-0.020240024,-0.22264028
1642,A,1472401177195000,-8.468789,0.2706372,1.5208374,-0.23329292,0.8383631,0.29188246
1642,A,1472401197291000,-4.82357,1.9639161,1.6789087,-0.8788432,0.77870834,0.049002163
1642,A,1472401217486000,-3.4799635,5.345684,0.09340577,-1.3592775,0.4261058,0.76059884
1642,A,1472401237582000,-8.265213,-0.974773,1.468147,-1.5233282,1.0333065,1.164334
1642,A,1472401257764000,-9.721385,-2.926714,2.1435425,-1.4093449,1.0482203,0.479369
1642,A,1472401277860000,-11.467354,-0.32572266,1.4418018,-0.8863,0.9491506,0.32170987
1642,A,1472401297974000,-11.194322,-1.8944606,-0.14849122,-0.45486793,1.1792477,0.5965481
1642,A,1472401318070000,-9.80521,-2.5004005,0.21555176,-0.7094661,0.94595486,0.58056915
1642,A,1472401338262000,-8.459209,-1.7603394,1.2094849,-0.62531024,0.7840346,0.7275756
1642,A,1472401358358000,-7.4197707,-1.4250367,1.8657203,-0.6263755,0.89375687,0.68816084
1642,A,1472401378549000,-5.999524,-0.6777906,1.6884888,-0.47723848,0.58269966,0.44315
1642,A,1472401398645000,-6.1959157,-1.1927198,0.86939216,-0.22264028,0.18961707,0.30466563
1642,A,1472401418838000,-3.2428565,-4.1625443,0.76401126,-0.2396845,-0.28442562,0.037284255
1642,A,1472401438934000,-5.9013286,-2.543511,2.2058132,-0.41225734,-1.526524,-0.6711166
1642,A,1472401459144000,-11.100916,-1.4729371,2.0118165,-0.61678815,-2.3552997,-1.5116103
1642,A,1472401479240000,-14.964083,-2.066902,0.39517823,-0.88203895,-2.0953753,-1.4274544
1642,A,1472401499441000,-13.9941,-2.2369483,2.4261549,-0.13954964,-1.7811222,-0.8969527
1642,A,1472401519537000,-12.590618,-1.3531861,3.6021094,0.56459016,-1.6213325,-0.5475459
1642,A,1472401539728000,-12.102035,-1.6597486,2.208208,1.2580773,-1.3805827,-0.7552725
1642,A,1472401559824000,-11.563155,-2.1674929,1.9088306,1.2740563,-0.958738,-0.73822826
1642,A,1472401580018000,-11.261382,-2.196233,2.4165747,0.7616641,-0.44528055,-0.36964676
1642,A,1472401600114000,-11.7930765,-1.9950514,2.572251,0.45060685,0.4612595,0.13528858
1642,A,1472401620305000,-10.861414,1.9279908,2.5818312,0.4101268,1.099353,0.4048005
1642,A,1472401640401000,-9.862691,0.44547364,1.6357985,0.38775626,0.7978831,0.2545982
1642,A,1472401660593000,-7.326365,-1.961521,1.3483961,0.4825648,0.1555286,-0.24607609
1642,A,1472401680689000,-6.5096636,-2.672842,1.6118482,0.58909124,0.18322548,-0.35473305
1642,A,1472401700880000,-8.703502,-5.249883,0.35925296,0.2972088,0.551807,0.09374327
1642,A,1472401720976000,-11.591895,-4.756509,-1.6070582,-0.0777643,0.77125144,0.46871635
1642,A,1472401741124000,-13.419295,-0.5963599,-0.19160157,-0.87032104,0.02876214,0.43888897
1642,A,1472401761220000,-11.02667,1.698069,1.6884888,-1.2964269,0.87990844,0.4612595
1642,A,1472401781403000,-11.290123,2.3758595,1.8082398,-0.75101143,1.4082797,0.3334278
1642,A,1472401801499000,-13.088782,1.2645704,2.4069948,-0.79042625,0.87564737,0.20985709
1642,A,1472401821663000,-12.12838,-1.0322535,2.3902297,-0.57311225,0.9331717,0.53476274
1642,A,1472401841759000,-9.946517,-2.7758276,2.5147705,-0.8745821,0.9800433,0.6892261
1642,A,1472401861952000,-9.307046,-3.6548,3.0776002,-1.1227888,0.72651035,0.69668293
1642,A,1472401882048000,-10.437495,-1.9423609,2.8812087,-1.0396981,0.82877576,0.8127968
1642,A,1472401902252000,-9.716595,-0.13651612,3.4943337,-0.60293967,0.7914915,0.757403
1642,A,1472401922348000,-8.480764,1.0801538,3.3889527,0.066046394,0.3888215,0.47191215
1642,A,1472401942616000,-7.28565,1.5399976,2.1243825,0.28975195,-0.0479369,0.20559604
1642,A,1472401962712000,-6.7755103,0.90052736,1.6860938,0.096939065,-0.7797736,-0.37710363
1642,A,1472401982907000,-7.1132083,-0.0023950196,1.4034815,-0.015978966,-1.768339,-1.2591426
1642,A,1472402003003000,-7.2257743,-0.5460645,1.341211,-0.05006743,-1.8993665,-1.4413028
1642,A,1472402023193000,-6.6749196,-0.7448511,1.0585986,0.44315,-1.6298546,-1.0418286
1642,A,1472402043289000,-6.437813,-0.46702883,1.4465919,0.6359629,-1.4636734,-0.9310411
1642,A,1472402063482000,-6.4018874,0.5939649,2.069297,1.1696603,-1.3709954,-0.8362326
1642,A,1472402083578000,-6.231841,0.72569096,2.4189699,1.1227888,-1.0652645,-0.66365975
1642,A,1472402103767000,-6.3779373,-0.7089258,2.6967921,0.45912898,-0.46339005,-0.38775626
1642,A,1472402123863000,-7.3575,-1.4274317,4.1146436,0.10013486,-0.08735169,0.2514024
1642,A,1472402144056000,-7.8412943,-2.672842,5.4750147,0.029827405,0.7499462,0.5432849
1642,A,1472402164152000,-8.837623,-3.544629,6.1552005,0.30999196,0.79681784,0.39095205
1642,A,1472402184344000,-10.140513,-5.2810183,6.912027,0.6125271,-0.12463594,-0.26418558
1642,A,1472402204440000,-11.088941,-4.4834766,6.9048414,0.4644553,-0.5305017,-0.644485
1642,A,1472402224621000,-9.467513,-2.5195606,6.7491655,-0.004261058,0.5752428,-0.37071204
1642,A,1472402244717000,-7.0341725,-3.5566041,6.1647806,-0.32170987,0.49534798,0.15233281
1642,A,1472402264906000,-6.844966,-1.7579445,6.67013,-0.6775082,0.8767126,1.0034791
1642,A,1472402285002000,-11.59908,-1.7603394,3.408113,-0.44528055,1.2942963,0.7488809
1642,A,1472402305194000,-16.678917,-0.48379397,0.28261232,-0.5368933,1.2410331,0.30679616
1642,A,1472402325290000,-17.474064,4.9552956,-4.567302,-0.051132694,1.3102753,0.53476274
1642,A,1472402345483000,-9.77647,2.6105714,1.2909156,0.10546118,1.3560816,0.80747044
1642,A,1472402365579000,-5.2115626,1.2549903,2.8141482,-0.45806372,0.97258645,0.79255676
1642,A,1472402385815000,-4.773274,-0.8813672,-0.76161623,-0.8042747,0.9416938,0.8341021
1642,A,1472402405911000,-7.31918,-2.680027,0.038320314,-0.7222493,0.83516735,0.61891866
1642,A,1472402426126000,-11.03625,-2.8668385,2.0381618,-0.3898868,0.32170987,0.44208476
1642,A,1472402446222000,-12.037369,-2.323169,0.62749517,-0.25353295,-0.21837921,0.25246766
1642,A,1472402466437000,-9.608819,-0.7185059,0.2945874,-0.23329292,-1.1675298,-0.48043427
1642,A,1472402486533000,-7.4652762,-0.17244141,2.3806496,-0.24927188,-1.9792614,-1.4913702
1642,A,1472402506723000,-6.9719024,-0.3544629,1.6238233,-0.67218184,-1.8791265,-1.5595472
1642,A,1472402526819000,-7.3551054,-0.38080812,0.011975098,0.0628506,-1.5776566,-1.0610034
1642,A,1472402547013000,-8.315508,0.39757326,-0.58198977,0.59122175,-1.4519554,-0.7701862
1642,A,1472402567109000,-9.19448,0.92926764,-0.81909674,0.9917612,-1.2346416,-0.84581995
1642,A,1472402587300000,-9.601634,0.83586186,-0.021555176,1.3283848,-0.92784536,-0.77125144
1642,A,1472402607396000,-9.347761,0.49576905,1.0083033,0.7946873,-0.52624065,-0.4314321
1642,A,1472402627586000,-9.172925,-0.80233157,1.1328443,0.3323625,0.29614353,0.07669904
1642,A,1472402647682000,-9.275911,-2.823728,1.468147,0.7755125,0.69774824,0.16724652
1642,A,1472402667858000,-9.043594,-4.481082,2.0980372,1.4796523,-0.4825648,-0.18322548
1642,A,1472402687954000,-8.907078,-4.7301636,2.088457,0.87351686,-0.5603291,-0.43249738
1642,A,1472402708113000,-9.592053,-3.8799317,1.8800904,0.20559604,-0.15020229,-0.479369
1642,A,1472402728209000,-10.116563,-3.4248781,1.6932789,-0.34940675,0.66579026,0.5209143
1642,A,1472402748422000,-10.233919,-2.8380983,1.4418018,-0.58696073,0.958738,0.48149952
1642,A,1472402768518000,-10.918895,-1.9375709,0.65384036,-0.5550028,0.79681784,0.44208476
1642,A,1472402788712000,-11.936778,-1.3915064,0.21076173,-0.5944176,1.4775218,0.94275904
1642,A,1472402808808000,-10.995535,-0.79035646,-0.031135255,-0.5592638,1.3624732,0.6040049
1642,A,1472402829001000,-8.590936,1.0011182,0.6514453,-0.36218992,1.1451592,0.24074976
1642,A,1472402849097000,-9.860296,1.7627344,2.1171973,-0.14913702,1.5350461,0.42717105
1642,A,1472402869305000,-14.456339,2.1387525,1.4801221,-0.45912898,1.2399678,0.64768076
1642,A,1472402889401000,-15.558047,2.1004322,0.34009278,-0.70627034,0.8159926,0.87351686
1642,A,1472402909601000,-13.37858,1.2525953,2.43813,-0.84581995,0.8767126,0.83516735
1642,A,1472402929697000,-12.7918,1.0394385,2.3830445,-0.5581986,0.6892261,0.49960902
1642,A,1472402949889000,-10.267449,-0.65384036,1.0633887,0.027696876,0.17789917,0.3334278
1642,A,1472402969985000,-7.4269557,-1.9639161,2.5411158,0.23861924,-0.5070659,-0.24927188
1642,A,1472402990181000,-6.334827,-0.8933423,4.7301636,0.13635385,-1.6703347,-1.1739215
1642,A,1472403010277000,-6.375542,0.24908204,4.0763235,-0.29614353,-2.091114,-1.361408
1642,A,1472403030470000,-6.365962,0.12454102,2.926714,-0.56459016,-1.856756,-1.180313
1642,A,1472403050566000,-6.638994,0.06466553,1.9782863,-0.10865697,-1.3891048,-0.97045594
1642,A,1472403070757000,-6.5407987,-0.49337405,1.3986914,0.6711166,-1.1845741,-0.9331717
1642,A,1472403090853000,-5.942044,-1.4250367,0.9627979,1.5456988,-1.0226538,-0.85540736
1642,A,1472403111047000,-5.489385,-1.477727,0.80712163,1.1568772,-0.74781567,-0.5635249
1642,A,1472403131143000,-5.752837,-0.55803955,1.8585353,0.58056915,-0.21092236,-0.2247708
1642,A,1472403151323000,-6.1480155,-0.43589357,3.8727467,0.6199839,0.63383234,0.13528858
1642,A,1472403171419000,-6.933582,-1.341211,5.7696023,0.6317018,1.128115,0.43249738
1642,A,1472403191614000,-7.932305,-3.2356715,6.70845,0.47830373,0.5837649,0.13528858
1642,A,1472403211710000,-9.77168,-4.423601,6.4066777,0.4495416,-0.15446335,-0.6487461
1642,A,1472403231898000,-11.711646,-4.404441,6.5048733,0.3153183,-0.3206446,-0.4101268
1642,A,1472403251994000,-11.716436,-4.2056546,6.9551373,0.19920446,0.27696875,0.022370555
1642,A,1472403272187000,-9.376502,-2.7255323,7.1778736,-0.6743124,0.5581986,0.5209143
1642,A,1472403292283000,-7.213799,-0.7089258,6.821016,-1.2112057,1.28897,1.3411679
1642,A,1472403312494000,-11.898458,-1.2693604,3.551814,-0.45167214,1.4114754,0.81066626
1642,A,1472403332590000,-15.890955,-0.30416748,-0.96040285,-0.28549087,1.0343717,0.34194988
1642,A,1472403352812000,-16.209494,3.539839,-5.2283278,0.21837921,1.2261194,0.5305017
1642,A,1472403372908000,-9.536968,3.7338357,0.081430666,0.09161274,1.3603427,0.60293967
1642,A,1472403393099000,-6.701265,4.1936793,3.8344264,-0.24714136,1.015197,0.5752428
1642,A,1472403413195000,-7.414981,2.44292,0.07424561,-0.45380265,0.95128113,0.74675035
1642,A,1472403433384000,-8.303533,-0.28740236,-2.3303542,-0.3057309,0.6114618,0.5858955
1642,A,1472403453480000,-11.282937,-1.1879297,-0.34727785,0.12144015,-0.06178534,0.23648871
1642,A,1472403473673000,-11.939173,-2.323169,-0.09580079,0.16724652,-0.72437984,-0.18429075
1642,A,1472403493769000,-9.362132,-3.1183155,0.13172609,-0.013848438,-1.7630126,-1.160073
1642,A,1472403513965000,-7.1060233,-3.2692018,2.0237916,-0.72970617,-2.1667478,-1.5052186
1642,A,1472403534061000,-6.5312185,-1.8489552,2.1291726,-0.6412892,-1.788579,-1.1504856
1642,A,1472403554253000,-7.062913,-0.6825806,1.6549586,0.002130529,-1.2442288,-0.8948221
1642,A,1472403574349000,-8.344249,-1.1136842,0.6682105,0.45593318,-0.8159926,-0.91825795
1642,A,1472403594529000,-9.060359,-1.2502003,-0.2945874,1.3060142,-0.8085357,-0.88203895
1642,A,1472403614625000,-8.729847,-0.8765772,1.092129,1.3752564,-0.6040049,-0.5763081
1642,A,1472403634826000,-8.643626,-0.06466553,1.8896705,0.8564726,-0.039414786,-0.22903186
1642,A,1472403654922000,-8.461604,-0.728086,0.81909674,0.7488809,0.644485,-0.054328486
1642,A,1472403675082000,-8.691526,-1.8800904,0.37601808,0.8990832,0.86499476,0.20453078
1642,A,1472403695210000,-9.369317,-2.43813,1.1639795,1.0578076,-0.17896444,-0.09267801
1642,A,1472403715370000,-9.730965,-2.7399025,1.6645386,0.13315806,-0.2759035,-0.49321744
1642,A,1472403735536000,-9.639954,-3.0129347,1.5974782,-0.25885928,0.13741912,-0.09267801
1642,A,1472403755686000,-10.003997,-2.6417067,1.5376027,-0.41971418,0.922519,0.13102753
1642,A,1472403775782000,-10.566827,-2.3974147,1.0514137,-1.3773869,0.9257148,0.6295713
1642,A,1472403795985000,-10.554852,-1.961521,0.86220706,-1.6426378,1.4796523,1.4306501
1642,A,1472403816081000,-10.413546,-1.4705421,0.5939649,-0.90654004,1.3667343,0.8330368
1642,A,1472403836269000,-10.92608,-1.6262183,0.19639161,-0.97045594,0.87990844,0.32490566
1642,A,1472403856365000,-11.081756,-0.91250247,-0.61552006,-0.34834146,1.1771172,0.4644553
1642,A,1472403876560000,-9.623189,0.014370117,-0.9388477,-0.48043427,1.3145363,0.4133226
1642,A,1472403896656000,-9.045989,1.0106983,-0.13172609,-0.5539375,1.1835088,0.5454154
1642,A,1472403916843000,-11.534414,0.78556645,1.8896705,-0.93849796,0.700944,0.84581995
1642,A,1472403936939000,-15.414347,0.79993653,1.949546,-0.72970617,0.39734364,0.49428272
1642,A,1472403957134000,-14.578485,2.320774,2.184258,-0.32490566,0.046871636,0.25672874
1642,A,1472403977230000,-12.707974,1.7220191,2.550696,-0.26418558,-0.59228706,-0.22690132
1642,A,1472403997424000,-11.960728,0.09580079,2.3782544,-0.32277513,-1.8823223,-1.3347764
1642,A,1472404017520000,-9.467513,-2.687212,2.9219239,-0.5411543,-2.3457124,-1.7576864
1642,A,1472404037709000,-7.4772515,-3.3865578,4.26553,-0.22796659,-2.2498386,-1.1174624
1642,A,1472404057805000,-6.444998,-1.4729371,3.9565725,0.10333065,-1.6511599,-0.7861652
1642,A,1472404077973000,-6.222261,0.13891114,3.180586,-0.0628506,-1.1877699,-0.88843054
1642,A,1472404098069000,-6.840176,0.6825806,2.4692652,1.0034791,-1.1377025,-0.72651035
1642,A,1472404118241000,-6.792276,0.3065625,1.22625,1.2516857,-0.8309063,-0.21624869
1642,A,1472404138337000,-5.980364,-0.7568262,0.55324954,0.6348976,0.13209279,0.26525086
1642,A,1472404158530000,-5.4486694,-1.4082716,1.0753639,0.330232,1.3443637,0.43675843
1642,A,1472404178626000,-5.233118,-1.0250684,1.9064356,0.5070659,1.2740563,0.29614353
1642,A,1472404198821000,-5.5444703,-0.68018556,2.7806177,0.52624065,-0.084155895,-0.41758367
1642,A,1472404218917000,-6.1073003,-1.1639795,3.9924977,0.45167214,-0.5752428,-0.7552725
1642,A,1472404239118000,-6.5791187,-2.1100123,6.1240654,0.33768883,0.15126756,0.17150758
1642,A,1472404259214000,-7.9682302,-2.7662477,6.823411,-0.07989483,0.6679208,0.4079963
1642,A,1472404279435000,-9.972861,-3.6907253,6.0689797,-0.96939063,0.69774824,0.58483016
1642,A,1472404299531000,-11.6948805,-3.2189064,7.0078273,-0.9821738,1.2410331,1.019458
1642,A,1472404319724000,-10.621912,-2.3950195,6.7467704,-0.42077947,1.2282499,0.6040049
1642,A,1472404339820000,-7.2353544,-3.0105398,5.870193,-0.46871635,0.8213189,0.38136467
1642,A,1472404360028000,-5.1947975,-2.8644435,5.604346,-0.0127831735,1.4849787,0.45167214
1642,A,1472404380124000,-9.72378,-0.9053174,4.2104445,-0.14487597,1.6628778,0.47297743
1642,A,1472404400314000,-19.569706,2.936294,-1.9639161,-0.60507023,0.7254451,0.73609775
1642,A,1472404420410000,-25.413553,7.8436894,-7.0413575,-0.75633776,0.63383234,0.9534117
1642,A,1472404440600000,-11.04104,3.8511915,0.8981324,-0.5954828,0.50600064,0.6263755
1642,A,1472404460696000,-3.9493873,0.8286768,1.3723463,-0.34621096,0.07243799,0.26418558
1642,A,1472404480889000,-3.0249097,-1.1064991,-1.1400293,-0.08841695,-0.5070659,-0.13315806
1642,A,1472404500985000,-4.751719,-1.8154249,-1.961521,0.070307456,-1.4093449,-1.026915
1642,A,1472404521161000,-9.546548,-1.6238233,0.6730005,-0.2908172,-1.7086842,-1.5393071
1642,A,1472404541257000,-13.728252,-2.2393434,-0.07664063,-0.39947417,-1.8269285,-1.2729911
1642,A,1472404561435000,-11.364368,-1.7483643,0.62031007,0.04261058,-1.7044232,-0.92038846
1642,A,1472404581531000,-8.152647,-0.85023195,2.3686745,0.28229508,-0.97045594,-0.9864349
1642,A,1472404601711000,-7.5874224,-0.17244141,2.069297,1.2431636,-0.96406436,-0.94595486
1642,A,1472404621807000,-7.479646,0.6011499,0.5460645,1.361408,-0.72437984,-0.5997439
1642,A,1472404641995000,-7.2928348,0.6394702,-0.45984375,0.7350325,-0.16405073,-0.3717773
1642,A,1472404662091000,-8.267608,-0.44786867,-0.06706055,0.8607337,0.572047,0.049002163
1642,A,1472404682285000,-9.256751,-1.2885206,0.87418216,1.0183928,1.2591426,0.5581986
1642,A,1472404702381000,-9.280701,-1.7172291,1.8034497,0.54435015,0.716923,0.25033715
1642,A,1472404722597000,-9.050779,-1.8537452,0.9627979,0.22690132,-0.4495416,-0.8213189
1642,A,1472404742693000,-9.649534,-2.327959,0.7951465,0.21198763,-0.6018744,-0.572047
1642,A,1472404762900000,-9.826766,-2.7758276,1.9687061,0.1587244,0.15659387,-0.17789917
1642,A,1472404782996000,-9.982442,-2.8931837,2.2632935,-1.1685951,1.0546118,1.2026836
1642,A,1472404803189000,-9.4507475,-4.0020776,2.304009,-1.1632688,1.2911005,1.7235979
1642,A,1472404823285000,-9.275911,-4.90979,1.8010547,-0.72437984,1.2900352,0.49960902
1642,A,1472404843472000,-10.370435,-3.8128712,1.5423926,-0.7073356,1.293231,0.3930826
1642,A,1472404863568000,-10.5764065,-1.9351759,1.094524,-0.14913702,1.4125407,0.75420725
1642,A,1472404883761000,-11.088941,-1.7747096,0.18920656,-0.47617322,1.2559468,0.7882957
1642,A,1472404903857000,-11.888878,-1.1472144,-0.25147706,-0.8181231,1.1462245,0.8149273
1642,A,1472404924045000,-11.141631,-1.1807446,-0.39757326,-0.6103965,0.6892261,0.58483016
1642,A,1472404944141000,-9.750125,-0.62749517,0.34009278,-0.20559604,-0.165116,0.27377295
1642,A,1472404964317000,-9.307046,0.62031007,1.331631,0.0127831735,-0.84581995,-0.21944448
1642,A,1472404984413000,-12.070899,1.2094849,2.8333082,0.3270362,-1.7022926,-1.3496901
1642,A,1472405004578000,-14.192886,1.8633252,2.2393434,-0.16192019,-1.7491642,-1.5435683
1642,A,1472405024674000,-11.872112,1.7220191,2.0525317,-0.19600865,-1.7779263,-1.087635
1642,A,1472405044861000,-9.678274,0.64186525,2.078877,0.36218992,-1.6884441,-0.7946873
1642,A,1472405064957000,-9.862691,-0.49097902,1.6813037,0.45060685,-1.2729911,-0.8213189
1642,A,1472405085149000,-9.477093,-1.4082716,2.5890162,1.0684602,-1.1068097,-0.7957525
1642,A,1472405105245000,-8.571775,-0.5748047,3.319497,1.0034791,-0.60720074,-0.57098174
1642,A,1472405125432000,-7.8197393,0.7783814,3.0823903,0.6359629,0.14594123,-0.2514024
1642,A,1472405145528000,-7.311995,1.1663746,2.1459377,0.7052051,1.0034791,0.128897
1642,A,1472405165737000,-8.298743,0.84544194,1.5232325,0.52837116,1.160073,0.35260254
1642,A,1472405185833000,-7.661668,0.81909674,1.6381935,0.30040458,0.16724652,-0.024501082
1642,A,1472405206040000,-6.586304,-0.11256592,1.5064673,0.34621096,-0.4825648,-0.6306366
1642,A,1472405226136000,-5.3408937,-1.0083033,1.9734962,0.09161274,-0.06711166,-0.053263225
1642,A,1472405246341000,-5.0702567,-0.98435307,2.5051906,-0.20240025,0.38136467,0.20133498
1642,A,1472405266437000,-5.980364,-1.6621436,3.6907253,-1.3219932,1.067395,0.73609775
1642,A,1472405286629000,-6.119275,-2.4980054,5.8917484,-1.2559468,1.4764565,1.3667343
1642,A,1472405306725000,-6.6533647,-2.9985645,7.055728,-0.87032104,1.1930962,0.5933523
1642,A,1472405326926000,-9.043594,-3.6691701,6.495293,-0.5091964,1.3518206,0.3472762
1642,A,1472405347022000,-10.705738,-4.311035,6.7324004,-0.21092236,1.438107,0.60933125
1642,A,1472405367036000,-8.6077,-4.756509,6.6365995,-0.7978831,0.88949585,0.6860303
1642,A,1472405387132000,-7.1419487,-3.1973512,7.7790236,-1.1142666,0.84581995,0.8522116
1642,A,1472405407285000,-15.335311,-0.33769777,4.4331813,-1.0205233,0.67218184,0.8362326
1642,A,1472405427381000,-24.007677,2.196233,-6.4258375,-0.46978164,0.041545313,0.41758367
1642,A,1472405447578000,-14.997613,3.6691701,-0.28979737,0.1257012,-0.60080916,-0.16724652
1642,A,1472405467674000,-4.5936475,2.8285182,3.182981,0.30146983,-1.5680692,-1.2644689
1642,A,1472405487867000,-3.2428565,3.2428565,-1.9591261,-0.3270362,-1.9995013,-1.6809874
1642,A,1472405507963000,-7.1371584,0.48379397,-0.045505375,-0.551807,-1.8865833,-1.2282499
1642,A,1472405528132000,-10.612332,-1.2573853,1.2525953,0.027696876,-1.5180018,-0.96406436
1642,A,1472405548228000,-12.636124,-2.6345215,-0.17962648,0.33768883,-1.2048141,-1.0482203
1642,A,1472405568437000,-11.879297,-2.5219557,-0.2945874,1.3219932,-1.200553,-0.72970617
1642,A,1472405588533000,-9.635164,-1.8274,2.9937747,1.4114754,-0.95660746,-0.3291667
1642,A,1472405608733000,-7.6281376,-1.8609302,2.1028273,0.9086706,-0.38136467,-0.026631612
1642,A,1472405628829000,-6.686895,-0.79993653,0.9580079,0.6412892,0.76912093,0.35792887
1642,A,1472405649028000,-6.356382,0.083825685,1.0346485,0.51026165,1.2516857,0.37390783
1642,A,1472405669124000,-7.36708,0.8214917,0.11496094,0.37603834,0.06711166,-0.3930826
1642,A,1472405689318000,-9.354947,0.7448511,-0.3065625,0.27696875,-0.6988135,-0.78296936
1642,A,1472405709414000,-9.079519,-0.043110352,0.24908204,0.25033715,0.2759035,0.058589544
1642,A,1472405729606000,-8.420889,-0.4766089,0.8167017,0.00958738,0.5795039,0.43995422
1642,A,1472405749702000,-9.223221,-0.8909473,0.9148975,-0.98750013,0.76592517,0.7701862
1642,A,1472405769895000,-9.929751,-2.4333398,1.4010864,-0.89375687,1.3954965,1.2282499
1642,A,1472405789991000,-9.558523,-3.6380348,1.4489869,-0.7073356,1.3954965,0.46339005
1642,A,1472405810184000,-9.342972,-3.3147073,1.5352076,-0.7850999,0.86606,0.33768883
1642,A,1472405830280000,-10.159674,-3.0752053,1.468147,-0.3536678,1.3081448,0.57417756
1642,A,1472405850469000,-10.284214,-2.8979738,1.2741505,-0.49747851,1.2058793,0.66579026
1642,A,1472405870565000,-9.910591,-1.8274,1.3052857,-0.6988135,0.8564726,0.7435546
1642,A,1472405890745000,-10.051897,-1.8753004,0.7161109,-0.5901565,1.180313,0.8085357
1642,A,1472405910841000,-10.389595,-1.710044,0.488584,-0.51452273,0.6956177,0.58056915
1642,A,1472405931031000,-9.798025,-0.855022,0.2706372,-0.36325517,-0.09374327,0.3568636
1642,A,1472405951127000,-8.696317,0.35685793,-0.11256592,0.040480047,-0.58269966,-0.27696875
1642,A,1472405971337000,-10.643467,1.477727,1.4298267,0.31851408,-1.6202673,-1.3187973
1642,A,1472405991433000,-15.526913,1.6549586,1.8106349,-0.2396845,-2.014415,-1.5190672
1642,A,1472406011764000,-16.561562,2.565066,1.5184424,-0.5134575,-1.8759307,-1.1899004
1642,A,1472406031860000,-12.851675,2.1411476,2.8812087,0.043675844,-1.587244,-0.9651296
1642,A,1472406052099000,-10.7871685,-0.019160157,2.7782228,0.62104917,-1.293231,-0.9331717
1642,A,1472406072195000,-9.287886,-1.0729688,1.7842896,1.4956313,-1.1313108,-0.850081
1642,A,1472406092387000,-8.133487,-1.6908839,2.555486,1.3017532,-0.6988135,-0.6125271
1642,A,1472406112483000,-7.94907,-0.66342044,3.6859353,0.572047,-0.17150758,-0.29933932
1642,A,1472406132676000,-7.6017923,1.2406201,3.781736,0.6178534,0.45912898,0.14807177
1642,A,1472406152772000,-7.192244,1.6669337,2.6560767,0.8948221,0.773382,0.39414784
1642,A,1472406172993000,-6.696475,0.48139894,1.1687696,0.5091964,0.27803403,0.221575
1642,A,1472406193089000,-6.248606,-0.07424561,0.977168,-0.007456851,0.18109496,-0.34834146
1642,A,1472406213283000,-5.364844,-0.8167017,1.1376343,-0.098004326,-0.5006743,-0.5795039
1642,A,1472406233379000,-5.012776,-1.4298267,1.8058448,-0.101200126,0.5219796,0.24501082
1642,A,1472406253586000,-5.271438,-1.6166383,3.396138,-0.74248934,0.51665324,0.39521313
1642,A,1472406273682000,-5.8965383,-1.089734,4.5385623,-1.5052186,1.200553,1.1142666
1642,A,1472406293877000,-6.715635,-1.3723463,6.2965064,-0.68176925,1.4487597,0.94808537
1642,A,1472406313973000,-8.301138,-1.8202149,8.013736,-0.65513766,1.0546118,0.40053943
1642,A,1472406334128000,-10.360855,-2.3974147,6.2845316,-0.2790993,1.3528858,0.71798825
1642,A,1472406354224000,-10.502161,-3.515889,6.128855,-0.18002969,1.4604776,0.79681784
1642,A,1472406374390000,-9.508228,-3.0608351,7.6520877,-0.6040049,1.0599382,0.73609775
1642,A,1472406394486000,-8.713081,-2.2465284,9.163345,-0.6956177,0.9076053,0.753142
1642,A,1472406414646000,-14.06116,-1.1448194,7.2353544,-0.36005938,0.5219796,0.5784386
1642,A,1472406434742000,-18.451231,-0.79035646,0.74724615,-0.043675844,0.036218993,0.35260254
1642,A,1472406454928000,-18.099163,2.3447242,-4.0356083,0.25885928,-0.45060685,-0.101200126
1642,A,1472406475024000,-7.573052,4.533772,2.6369166,0.45380265,-1.4476944,-1.0801781
1642,A,1472406495219000,-3.278782,3.3410523,3.8727467,0.14061491,-1.7960359,-1.4466292
1642,A,1472406515315000,-4.981641,0.7089258,-1.4298267,-0.007456851,-1.6564863,-1.0588728
1642,A,1472406535517000,-7.917935,-1.3627661,-0.55803955,0.4016047,-1.506284,-0.8309063
1642,A,1472406555613000,-12.013418,-3.2141163,1.0538087,0.567786,-1.2623384,-0.7595336
1642,A,1472406575818000,-12.329561,-2.9937747,0.4382886,1.1387677,-1.0855045,-0.79681784
1642,A,1472406595914000,-9.855506,-1.343606,1.9447559,0.9853696,-0.92038846,-0.7222493
1642,A,1472406616125000,-7.3000197,-0.94603276,3.302732,0.36964676,-0.5070659,-0.5422196
1642,A,1472406636221000,-5.872588,-1.5639478,1.5783179,0.43675843,0.14594123,-0.21944448
1642,A,1472406656421000,-6.382727,-0.728086,0.8334668,0.71798825,0.6348976,0.17576863
1642,A,1472406676517000,-7.2329593,0.11496094,0.43349856,0.628506,0.535828,0.16298546
1642,A,1472406696710000,-8.552615,0.8334668,-0.5245093,0.53263223,0.04261058,-0.35579833
1642,A,1472406716806000,-8.952583,0.6490503,0.26584718,0.30466563,-0.18002969,-0.3930826
1642,A,1472406737003000,-8.957374,0.57959473,1.5064673,-0.039414786,0.46552056,0.06924219
1642,A,1472406757099000,-9.410032,0.019160157,1.214275,-0.5635249,0.28442562,0.44421527
1642,A,1472406777240000,-9.402847,-1.0178833,0.8262818,-1.176052,1.1504856,0.9321064
1642,A,1472406797336000,-9.2184305,-2.083667,1.5232325,-0.5763081,1.3901701,0.7840346
1642,A,1472406817529000,-9.129815,-2.7207422,1.5471827,-0.5816344,0.9033443,0.3153183
1642,A,1472406837625000,-9.295072,-3.3650026,1.9208057,-0.12783173,0.9757822,0.3749731
1642,A,1472406857850000,-9.865086,-3.7098854,2.323169,-0.05752428,1.1888351,0.62531024
1642,A,1472406877946000,-10.602752,-3.5925295,1.7890797,-0.515588,0.8330368,0.6849651
1642,A,1472406898106000,-10.590776,-3.3338673,0.852627,-0.6924219,0.77444726,0.73290193
1642,A,1472406918234000,-11.848162,-2.4836354,-0.34488282,-0.406931,0.7840346,0.57311225
1642,A,1472406938394000,-13.347445,-0.7209009,-0.7376661,0.040480047,0.33662358,0.4111921
1642,A,1472406958575000,-12.099639,0.9029224,0.009580079,0.23861924,-0.165116,0.2034655
1642,A,1472406978708000,-10.267449,1.7268091,0.17244141,0.32384038,-1.0407634,-0.5070659
1642,A,1472406998804000,-11.019485,1.6693287,1.7842896,0.113983296,-2.0815268,-1.3965617
1642,A,1472407018994000,-13.141473,2.1148024,2.5243506,-0.16405073,-1.9824572,-1.3741912
1642,A,1472407039090000,-12.887601,2.1219873,1.5136524,0.25246766,-1.6511599,-0.93636745
1642,A,1472407059292000,-10.595567,0.9915381,1.9184108,0.45380265,-1.2026836,-0.700944
1642,A,1472407079388000,-9.687855,-0.57001466,1.8537452,0.7957525,-0.87564737,-0.9374327
1642,A,1472407099590000,-9.3309965,-1.6357985,2.3255641,1.2186625,-0.6103965,-0.8490158
1642,A,1472407119686000,-8.780142,-1.4849122,3.032095,0.8266452,-0.21944448,-0.46019423
1642,A,1472407139875000,-8.080796,0.1939966,4.406836,0.46232477,0.31957933,-0.12463594
1642,A,1472407159971000,-6.974297,0.79754156,3.1398706,0.5368933,0.8021441,0.12676647
1642,A,1472407180167000,-6.2701616,0.2562671,2.1650977,0.57098174,0.8383631,0.23861924
1642,A,1472407200263000,-6.813831,-0.031135255,1.9687061,0.551807,0.37923414,-0.099069595
1642,A,1472407220459000,-7.0988383,-0.5221143,1.583108,0.5784386,-0.25992453,-0.49960902
1642,A,1472407240555000,-6.7755103,-1.334026,1.4513819,0.34621096,-0.1257012,-0.09161274
1642,A,1472407260740000,-6.2653713,-1.5950831,1.8824854,-0.4250405,0.4079963,0.015978966
1642,A,1472407280836000,-5.8103175,-0.92208254,2.692002,-1.139833,0.7233146,0.61891866
1642,A,1472407300990000,-5.494175,-0.7424561,3.779341,-1.2037488,1.4434333,1.2367721
1642,A,1472407321086000,-5.7624173,-1.4968873,5.132527,-0.8628642,1.4636734,0.7552725
1642,A,1472407341266000,-6.6485744,-2.335144,5.6833816,-0.8202536,0.99708754,0.46019423
1642,A,1472407361362000,-8.926238,-3.1494508,5.999524,-0.39734364,1.2218584,0.67963874
1642,A,1472407381555000,-11.134446,-3.9374123,6.3851223,-0.57417756,1.3060142,0.6135923
1642,A,1472407401651000,-10.550061,-4.8044095,6.4210477,-0.81705785,0.87138635,0.680704
1642,A,1472407421896000,-8.53585,-3.8655617,7.575447,-0.5901565,0.9406285,0.72437984
1642,A,1472407441992000,-12.77743,-0.79993653,6.591094,-0.46019423,0.5944176,0.37710363
1642,A,1472407462179000,-23.75141,-0.3281177,-1.4082716,-0.37071204,-0.07669904,0.30679616
1642,A,1472407482275000,-21.387526,6.792276,-5.1828227,-0.23009712,-0.62317973,-0.0053263223
1642,A,1472407502485000,-7.192244,5.0774417,3.166216,-0.2545982,-1.7299895,-1.1952267
1642,A,1472407522581000,-1.5591577,3.166216,0.050295413,-0.3834952,-1.9611518,-1.6213325
1642,A,1472407542769000,-3.3242872,1.0059083,-3.6140847,-0.14168017,-1.7246631,-1.0833739
1642,A,1472407562865000,-10.186019,-1.6405884,1.2549903,0.13848437,-1.6799221,-0.9917612
1642,A,1472407583080000,-14.5856695,-2.179468,1.5064673,0.5400891,-1.2325109,-0.8841695
1642,A,1472407603176000,-13.028907,-2.5243506,-0.5628296,1.5254587,-1.4274544,-0.8202536
1642,A,1472407623393000,-9.072334,-1.6142433,2.7734327,1.2431636,-0.737163,-0.71585774
1642,A,1472407643489000,-6.4090724,-2.1483326,4.7708793,0.48682585,-0.49321744,-0.25672874
1642,A,1472407663703000,-4.893025,-1.8633252,1.8657203,0.3568636,0.24927188,0.50387007
1642,A,1472407683799000,-5.688172,0.016765138,1.2813355,0.06498113,1.6405072,0.62104917
1642,A,1472407704006000,-6.792276,0.728086,0.28979737,0.14274544,0.86392945,-0.03089267
1642,A,1472407724102000,-7.8987746,0.4023633,-0.46702883,0.32810146,-0.12676647,-0.6199839
1642,A,1472407744293000,-8.6077,-0.728086,0.81909674,0.098004326,-0.07563378,-0.1736381
1642,A,1472407764389000,-8.789722,-0.9364527,1.3962965,0.056459017,0.17257284,-0.06498113
1642,A,1472407784534000,-8.775352,-0.8095166,0.48379397,-1.2314457,1.1547467,1.0066749
1642,A,1472407804630000,-9.19927,-0.8430469,0.102985844,-0.7978831,1.2836437,1.4072144
1642,A,1472407824805000,-9.3381815,-2.327959,1.101709,-0.35579833,1.3358417,0.38562572
1642,A,1472407844901000,-9.8938265,-4.2439747,1.4873072,-0.22583607,1.5116103,0.33129725
1642,A,1472407865086000,-9.865086,-4.2152348,1.4513819,0.15020229,1.7065537,0.61678815
1642,A,1472407885182000,-10.459051,-3.6763551,1.3028907,-0.47191215,0.85966843,0.7456851
1642,A,1472407905376000,-10.854229,-2.5195606,0.9580079,-0.67218184,0.81066626,0.85540736
1642,A,1472407925472000,-11.033855,-1.0681788,0.045505375,-0.27803403,0.74675035,0.76912093
1642,A,1472407945699000,-11.019485,-0.16046631,-0.7831714,-0.09267801,0.13635385,0.32490566
1642,A,1472407965795000,-10.403965,0.96040285,-0.82388675,-0.084155895,-0.5091964,-0.041545313
1642,A,1472407985995000,-9.273516,2.6441016,0.4526587,-0.022370555,-1.6319852,-0.8607337
1642,A,1472408006091000,-12.269686,3.1614258,1.9591261,-0.10333065,-2.1933794,-1.4860439
1642,A,1472408026283000,-16.255,2.692002,0.98435307,-0.2759035,-1.8194717,-1.325189
1642,A,1472408046379000,-14.808407,1.9663111,1.9998415,0.3206446,-1.6341157,-1.0215886
1642,A,1472408066568000,-11.685301,0.78556645,4.0595584,0.5422196,-1.0396981,-0.99495703
1642,A,1472408086664000,-10.533297,-0.3305127,2.6417067,1.4136059,-0.9502159,-1.015197
1642,A,1472408106856000,-8.231683,-1.1088941,2.1315675,1.6341157,-0.84581995,-0.65726817
1642,A,1472408126952000,-7.838899,-0.32093263,3.1997461,0.9289106,-0.34408042,-0.34194988
1642,A,1472408147137000,-7.2904396,-0.16525635,4.373306,0.60507023,0.6125271,0.05965481
1642,A,1472408167233000,-6.8761015,-0.23710695,4.061953,0.7126619,0.8628642,0.36325517
1642,A,1472408187425000,-6.7850904,-0.20118165,2.8500733,0.72011876,0.13209279,-0.19920446
1642,A,1472408207521000,-6.70845,-0.5676197,2.0812721,0.3110572,-0.068176925,-0.71798825
1642,A,1472408227716000,-6.6749196,-0.78556645,1.4274317,0.08735169,0.1555286,-0.23755397
1642,A,1472408247812000,-5.9540186,-1.3148658,1.3986914,-0.02876214,0.5752428,0.05752428
1642,A,1472408267979000,-5.1780324,-1.8106349,1.8920655,-1.0695255,1.0567423,0.78936094
1642,A,1472408288075000,-5.2929935,-1.4370118,2.7901978,-1.0088054,1.5542208,1.2974921
1642,A,1472408308262000,-5.9372535,-0.5460645,4.018843,-0.6530071,1.4530207,0.58056915
1642,A,1472408328358000,-7.1635036,-0.84065187,5.7480474,-0.76059884,1.1057445,0.3685815
1642,A,1472408348544000,-8.590936,-1.7938697,6.9958525,-0.4346279,1.4125407,0.5496765
1642,A,1472408368640000,-10.289004,-2.5147705,6.782696,-0.85327685,1.2239889,0.6146576
1642,A,1472408388831000,-11.254197,-3.7003052,4.775669,-0.92464954,1.0386329,0.79894835
1642,A,1472408408927000,-8.56459,-4.368516,6.346802,-0.39521313,0.79894835,0.7350325
1642,A,1472408429165000,-7.534732,-2.2752686,9.244776,-0.046871636,0.34301516,0.43036684
1642,A,1472408449261000,-14.71979,0.7783814,5.376819,0.046871636,-0.15659387,0.082025364
1642,A,1472408469470000,-26.328451,2.8716285,-7.5035963,-0.041545313,-1.4562165,-0.9139969
1642,A,1472408489566000,-20.060684,7.223379,-2.2800586,-0.2727077,-2.3542345,-1.748099
1642,A,1472408509764000,-5.257068,3.175796,3.4751735,-0.6125271,-2.207228,-1.1408982
1642,A,1472408529860000,-0.68737066,2.3423293,-2.3590944,-0.17789917,-2.0612867,-0.83516735
1642,A,1472408550079000,-4.974456,1.1112891,-2.2129982,0.03195793,-1.4189322,-0.69029135
1642,A,1472408570175000,-10.3872,-1.2549903,1.6381935,0.8404937,-1.0045444,-0.6988135
1642,A,1472408590366000,-14.195281,-1.947151,1.710044,1.0535465,-0.6178534,-0.43995422
1642,A,1472408610462000,-11.421848,-2.823728,-1.346001,0.5699165,0.004261058,0.1438107
1642,A,1472408630656000,-7.0437527,-2.8428884,1.9663111,0.44528055,0.8404937,0.53795856
1642,A,1472408650752000,-5.7839723,-1.1855347,3.6404297,0.8000136,0.9555422,0.36645097
1642,A,1472408670944000,-5.5444703,-0.25147706,1.4609619,0.700944,-0.31318775,-0.6221144
1642,A,1472408691040000,-6.2773466,-0.5628296,0.5724097,0.50173956,-1.1291803,-0.721184
1642,A,1472408711206000,-7.726333,-1.22625,-0.31135255,0.26418558,0.32384038,0.29614353
1642,A,1472408731302000,-9.053174,-0.8933423,0.047900394,-0.13102753,0.058589544,0.26631612
1642,A,1472408751493000,-9.505833,-0.26584718,0.5963599,-1.6447684,0.8852348,0.48682585
1642,A,1472408771589000,-9.716595,0.50534916,0.86220706,-1.2261194,1.6362462,1.0226538
1642,A,1472408791783000,-8.523875,-0.3903882,0.9148975,-0.7275756,1.3283848,0.6306366
1642,A,1472408811879000,-9.295072,-1.9806812,0.5340894,-0.6295713,1.0066749,0.43569317
1642,A,1472408832072000,-9.77647,-2.5219557,1.5184424,-0.3323625,1.2942963,0.54435015
1642,A,1472408852168000,-9.283096,-2.6081765,1.7483643,-0.567786,1.0013486,0.6785734
1642,A,1472408872357000,-10.233919,-2.4213648,1.1999048,-0.8724516,0.9683254,0.74781567
1642,A,1472408892453000,-10.985955,-2.2321582,0.56522465,-0.66152924,0.94488955,0.9491506
1642,A,1472408912667000,-10.626702,-1.7866846,0.60354495,-0.29614353,0.61572284,0.7456851
1642,A,1472408932763000,-10.542876,-2.078877,0.028740235,-0.0127831735,0.16618125,0.44208476
1642,A,1472408952965000,-10.720108,-1.9447559,-0.6011499,-0.00958738,-0.58269966,-0.14807177
1642,A,1472408973061000,-10.229129,-0.95561284,-0.29698244,0.09374327,-1.9366508,-1.2857742
1642,A,1472408993255000,-8.571775,0.59156984,0.68737066,-0.17789917,-2.1241374,-1.6575515
1642,A,1472409013351000,-11.4625635,1.3172607,2.7303224,0.04580637,-1.8056233,-1.2271847
1642,A,1472409033544000,-16.841778,2.1722827,2.574646,0.30679616,-1.4274544,-0.9800433
1642,A,1472409053640000,-15.86461,3.515889,1.2693604,0.6668556,-1.087635,-1.099353
1642,A,1472409073835000,-11.888878,1.4585669,1.5280225,1.6671388,-1.2420983,-0.8149273
1642,A,1472409093931000,-11.58471,-0.81909674,1.0825489,1.4444987,-0.7861652,-0.50600064
1642,A,1472409114126000,-9.845925,-1.7651294,0.5292993,0.829841,-0.11504856,-0.32810146
1642,A,1472409134222000,-7.702383,-1.5567628,3.1039455,0.8863,0.6263755,0.1470065
1642,A,1472409154414000,-7.668853,0.083825685,5.2929935,0.87777793,1.0727214,0.4048005
1642,A,1472409174510000,-7.1299734,0.78556645,4.030818,0.39947417,0.74248934,-0.10013486
1642,A,1472409194700000,-6.725215,0.6394702,3.0296998,0.17896444,-0.098004326,-0.76272935
1642,A,1472409214796000,-6.3970976,0.1341211,2.3255641,0.13635385,-0.12996227,-0.38029942
1642,A,1472409234991000,-5.49178,-0.7041358,1.0562036,0.165116,0.45699844,0.18642128
1642,A,1472409255087000,-4.4619217,-1.4322218,0.732876,-0.41545314,0.07669904,0.098004326
1642,A,1472409275278000,-3.9972878,-1.7483643,1.456172,-1.3422332,1.2665994,1.0279802
1642,A,1472409295374000,-4.4451566,-1.587898,2.929109,-0.67324716,1.551025,0.8000136
1642,A,1472409315568000,-5.8677983,-1.336421,4.536167,-0.54648066,0.86179894,0.34088463
1642,A,1472409335664000,-7.673643,-1.575923,6.1719656,-0.22370553,1.0578076,0.6317018
1642,A,1472409355882000,-10.073453,-2.198628,6.7874856,-0.4346279,1.3326459,0.7052051
1642,A,1472409375978000,-12.207415,-4.1146436,6.7731156,-0.7669904,0.89588743,0.628506
1642,A,1472409396176000,-11.5751295,-5.4175344,6.5479836,-0.5400891,1.284709,0.8213189
1642,A,1472409416272000,-8.186177,-3.9805226,7.1371584,-0.41864893,0.74781567,0.6764429
1642,A,1472409436466000,-7.2449346,-0.8310718,6.4258375,-0.0958738,-0.12144015,0.31318775
1642,A,1472409456562000,-15.529307,-0.21315674,2.7638526,0.20559604,-0.56459016,-0.068176925
1642,A,1472409476761000,-26.15601,3.05844,-6.229446,0.22264028,-1.6245283,-1.0088054
1642,A,1472409496857000,-17.06691,6.8425713,-3.3937428,-0.46232477,-2.066613,-1.4871092
1642,A,1472409517051000,-3.7577858,3.5853443,3.2356715,-0.86392945,-1.7608821,-1.2538162
1642,A,1472409537147000,-1.8609302,2.5099807,0.24189699,0.0010652645,-1.6714,-0.9257148
1642,A,1472409557345000,-5.5636306,-1.9279908,-0.6658155,0.5368933,-1.2218584,-0.8479505
1642,A,1472409577441000,-10.195599,-3.1542408,1.719624,1.3145363,-0.9235843,-0.8607337
1642,A,1472409597634000,-12.765454,-1.6214283,0.7831714,1.3113406,-0.5997439,-0.6583334
1642,A,1472409617730000,-11.515254,-1.5591577,-0.28740236,0.9374327,-0.12996227,-0.3920173
1642,A,1472409637908000,-8.020921,-1.3507911,2.5027955,0.96406436,0.6540724,0.011717909
1642,A,1472409658004000,-6.239026,-1.4082716,3.06323,0.87138635,1.1845741,0.54648066
1642,A,1472409678191000,-5.609136,-1.3795313,1.1136842,0.49960902,0.83516735,0.30040458
1642,A,1472409698287000,-6.4042826,-0.62989014,0.14130616,0.1736381,-0.128897,-0.62744075
1642,A,1472409718481000,-8.260423,0.16286133,-0.79035646,-0.24181503,-0.44847634,-0.5858955
1642,A,1472409738577000,-10.008787,0.3784131,-0.1820215,-0.49960902,0.1438107,-0.20026971
1642,A,1472409758768000,-8.59333,0.22752686,1.8250049,-1.0823087,0.76485986,1.071656
1642,A,1472409778864000,-8.286768,-0.29698244,1.2741505,-0.8809737,1.4285196,1.7555559
1642,A,1472409799057000,-8.600515,-0.34967285,0.086220704,-0.29933932,1.3539511,0.52837116
1642,A,1472409819153000,-9.010064,-1.0298585,0.15567628,-0.26525086,0.902279,0.26738137
1642,A,1472409839349000,-9.915381,-1.829795,0.045505375,0.11717909,1.1749867,0.6040049
1642,A,1472409859445000,-10.332115,-2.2537134,0.80712163,-0.30360037,1.171791,0.61572284
1642,A,1472409879633000,-10.7943535,-3.1470559,1.2310401,-0.660464,0.90973586,0.7616641
1642,A,1472409899729000,-10.7943535,-3.439248,1.341211,-0.6423545,0.98430437,0.78936094
1642,A,1472409919924000,-10.289004,-2.5291407,1.453777,-0.15659387,0.3323625,0.36964676
1642,A,1472409940020000,-10.423125,-2.1435425,0.56522465,0.11611383,-0.27164245,0.068176925
1642,A,1472409960212000,-10.557246,-1.7363893,-0.68737066,-0.054328486,-1.0024139,-0.5454154
1642,A,1472409980308000,-10.4566555,0.031135255,-0.7592212,0.19707392,-1.8855181,-1.4828482
1642,A,1472410000499000,-9.73815,1.1903248,-0.4382886,-0.3110572,-1.8823223,-1.6362462
1642,A,1472410020595000,-11.211087,1.9950514,0.48139894,-0.025566347,-1.8333201,-1.1323761
1642,A,1472410040788000,-14.808407,1.6908839,1.1424243,-0.004261058,-1.4498249,-0.87032104
1642,A,1472410060884000,-14.827566,1.5447876,2.0118165,0.4165184,-0.9310411,-0.8841695
1642,A,1472410081082000,-11.888878,1.5519727,2.9770093,1.5382419,-0.89375687,-0.660464
1642,A,1472410101178000,-10.693763,0.3544629,2.2393434,1.4114754,-0.5635249,-0.26418558
1642,A,1472410121338000,-9.457932,-1.331631,1.2454102,0.69987875,0.2790993,0.13102753
1642,A,1472410141466000,-7.4676714,-2.5051906,1.9303858,0.5858955,1.1568772,0.38775626
1642,A,1472410161626000,-8.0305,-0.8909473,4.169729,0.37390783,1.1568772,0.3174488
1642,A,1472410181804000,-8.171807,-0.09101075,4.0499783,0.12463594,-0.036218993,-0.5635249
1642,A,1472410201910000,-7.438931,-0.040715333,2.5243506,0.3174488,-0.5656554,-0.9012137
1642,A,1472410222006000,-7.0006423,-0.4742139,1.949546,0.4282363,0.1257012,0.010652645
1642,A,1472410242199000,-6.70366,-0.86220706,1.2981006,0.13315806,0.38456047,0.0479369
1642,A,1472410262295000,-5.9228835,-0.9627979,0.97237796,-1.5158713,0.70200926,0.60507023
1642,A,1472410282503000,-5.0439115,-0.8885523,1.3603711,-1.7225326,1.3667343,1.3741912
1642,A,1472410302599000,-4.6846585,-0.5005591,2.0549269,-0.9864349,1.3550164,0.6508766
1642,A,1472410322800000,-5.0894165,-0.5748047,2.7159522,-0.7765778,0.95447695,0.50813115
1642,A,1472410342896000,-6.224656,-1.219065,3.8464015,-0.34940675,1.2665994,0.757403
1642,A,1472410363083000,-7.688013,-2.2848487,5.247488,-0.8681905,1.2186625,0.6423545
1642,A,1472410383179000,-9.498648,-4.174519,5.0582814,-1.0396981,0.7765778,0.70840085
1642,A,1472410403371000,-11.280542,-5.384004,5.9204884,-0.6146576,0.8490158,0.83729786
1642,A,1472410423467000,-11.342813,-4.617598,6.799461,-0.5603291,0.50387007,0.5816344
1642,A,1472410443661000,-10.885365,-2.186653,8.231683,-0.09374327,0.10546118,0.27164245
1642,A,1472410463757000,-19.430794,0.60833496,3.9493873,0.26631612,-0.55074173,-0.26631612
1642,A,1472410483952000,-25.801546,3.6380348,-6.564749,0.28442562,-1.8642128,-1.3145363
1642,A,1472410504048000,-11.670931,4.9145803,-1.5016773,-0.128897,-2.207228,-1.6437031
1642,A,1472410524243000,-2.2848487,3.4512234,4.148174,-0.2790993,-1.9142802,-1.1622036
1642,A,1472410544339000,-1.7172291,3.6548,-3.173401,0.13315806,-1.7512947,-0.84368944
1642,A,1472410564515000,-6.0306597,-0.21794678,-1.2286451,0.51452273,-1.3177321,-0.85753787
1642,A,1472410584611000,-14.073135,-1.7004639,2.2201831,1.4668691,-1.0972224,-0.7030745
1642,A,1472410604805000,-16.00831,-3.410508,0.047900394,1.4104102,-0.85327685,-0.4101268
1642,A,1472410624901000,-11.520044,-4.176914,-0.5388794,0.8788432,-0.082025364,0.083090626
1642,A,1472410645097000,-7.182664,-2.3135889,3.8607717,0.5592638,1.1025487,0.479369
1642,A,1472410665193000,-5.2283278,-1.104104,2.074087,0.3717773,1.3337111,0.45806372
1642,A,1472410685383000,-4.9433208,0.4047583,1.1184741,0.20453078,0.47297743,-0.24074976
1642,A,1472410705479000,-6.095325,0.1101709,0.7831714,0.06178534,-1.1632688,-0.6423545
1642,A,1472410725675000,-7.8772197,0.15567628,-0.4766089,-0.1768339,-0.4346279,-0.30466563
1642,A,1472410745771000,-9.321417,-0.2203418,-0.8167017,-0.9054748,0.7595336,0.5209143
1642,A,1472410765966000,-9.635164,-0.70174074,0.6227051,-0.98856544,1.5520903,1.7374463
1642,A,1472410786062000,-9.249566,-0.90771246,1.477727,-0.32170987,1.478587,1.0386329
1642,A,1472410806280000,-8.274793,-1.7148341,1.8106349,-0.7435546,1.1408982,0.17150758
1642,A,1472410826376000,-8.0999565,-2.7351124,1.8154249,-0.6508766,1.160073,0.3355583
1642,A,1472410846581000,-9.105865,-3.1374757,1.8537452,-0.20133498,1.3379722,0.628506
1642,A,1472410866677000,-10.3512745,-2.8141482,1.5926881,-0.58483016,1.1675298,0.660464
1642,A,1472410886867000,-10.291399,-3.1853762,1.0609937,-0.89588743,1.026915,0.8032094
1642,A,1472410906963000,-10.370435,-2.7159522,-0.15328126,-0.5411543,0.660464,0.59228706
1642,A,1472410927155000,-11.496095,-1.4873072,-0.4622388,0.07882957,0.27696875,0.3089267
1642,A,1472410947251000,-10.95961,0.2706372,-0.2203418,-0.24181503,-0.78083885,-0.18109496
1642,A,1472410967446000,-10.399176,1.8489552,-0.016765138,-0.04261058,-2.1038973,-1.2048141
1642,A,1472410987542000,-14.959292,2.694397,0.12933107,-0.082025364,-2.1017668,-1.8024274
1642,A,1472411007725000,-17.56268,2.8740237,0.244292,-0.23861924,-1.6927053,-1.4082797
1642,A,1472411027821000,-14.283897,2.8907888,2.3902297,0.23435818,-1.5925703,-1.1163971
1642,A,1472411047978000,-11.697276,1.1687696,2.9770093,0.5422196,-1.1526161,-1.1025487
1642,A,1472411068074000,-10.437495,-0.32572266,0.9915381,1.6841831,-1.128115,-0.94275904
1642,A,1472411088231000,-7.9155397,-0.7711963,0.9508228,1.8013622,-0.82877576,-0.5305017
1642,A,1472411108327000,-6.9958525,-0.40954837,2.572251,1.0705907,-0.11504856,0.00958738
1642,A,1472411128518000,-7.32876,0.6610254,3.8440065,0.6593987,0.93423694,0.41758367
1642,A,1472411148614000,-7.0150127,0.60594,3.1542408,0.6487461,1.381648,0.47297743
1642,A,1472411168808000,-6.246211,-0.100590825,1.8106349,0.25246766,1.0567423,-0.14807177
1642,A,1472411188904000,-5.9540186,-0.76880133,1.5160475,0.41438788,-0.46019423,-0.6743124
1642,A,1472411209106000,-5.9037232,-1.2070899,1.1112891,0.34621096,-0.5613944,-0.18216023
1642,A,1472411229202000,-5.4822,-1.3004956,1.1232642,-0.47723848,0.28229508,0.113983296
1642,A,1472411249393000,-4.984036,-1.223855,2.095642,-1.5574167,1.454086,1.2719258
1642,A,1472411269489000,-5.1684523,-1.2166699,3.0201197,-0.76485986,1.5414376,1.4040185
1642,A,1472411289682000,-5.7887626,-1.1472144,3.542234,-0.60933125,1.216532,0.28868666
1642,A,1472411309778000,-6.706055,-1.2789404,4.9624805,-0.6562029,1.0301107,0.3057309
1642,A,1472411329971000,-8.911868,-1.587898,6.346802,-0.19707392,1.3326459,0.60293967
1642,A,1472411350067000,-11.208692,-2.4668703,7.32876,-0.60293967,1.1973573,0.56245965
1642,A,1472411370258000,-11.910433,-4.495452,6.9168167,-0.97897804,0.87138635,0.74675035
1642,A,1472411390354000,-9.575289,-4.8666797,6.552774,-0.6679208,0.9012137,0.7882957
1642,A,1472411410547000,-10.583591,-1.5423926,7.1467385,-0.15765914,0.23435818,0.42290998
1642,A,1472411430643000,-18.697918,-0.08861572,2.4932153,-0.051132694,-0.6327671,-0.10652645
1642,A,1472411450837000,-25.794361,4.2104445,-7.8844047,0.43356264,-1.5020229,-0.9651296
1642,A,1472411470933000,-12.274476,5.6809864,-0.61073,0.29933932,-1.933455,-1.5425029
1642,A,1472411491112000,-3.0009596,2.6584718,1.8154249,-0.3387541,-1.7204021,-1.3060142
1642,A,1472411511208000,-2.0142114,2.562671,-3.2428565,0.080960095,-1.6607473,-0.9917612
1642,A,1472411531404000,-7.3958206,-0.6179151,-0.30416748,0.32490566,-1.1558119,-0.9736517
1642,A,1472411551500000,-12.456497,-2.2129982,1.8345851,1.2719258,-0.9012137,-0.8607337
1642,A,1472411571690000,-13.869558,-1.5663428,0.07903565,1.6085494,-0.9108011,-0.50813115
1642,A,1472411591786000,-10.545272,-1.3579761,-0.0047900393,1.103614,-0.43569317,-0.18322548
1642,A,1472411611978000,-7.086863,-1.9854712,2.936294,0.7222493,0.58696073,0.18216023
1642,A,1472411632074000,-6.361172,-1.5998731,0.8981324,0.67324716,1.1664646,0.39627838
1642,A,1472411652278000,-5.886958,-0.9436377,0.42152345,0.42077947,0.8788432,-0.1107875
1642,A,1472411672374000,-5.7839723,-0.5388794,0.16046631,0.25353295,-0.2759035,-0.89162636
1642,A,1472411692605000,-7.446116,0.07185059,-0.31374758,0.48043427,-0.8564726,-0.33981937
1642,A,1472411712701000,-8.758587,0.10538086,-0.21555176,0.3291667,0.49534798,0.3089267
1642,A,1472411732924000,-9.153765,0.48379397,0.66342044,-0.7488809,0.588026,0.3270362
1642,A,1472411753020000,-9.414823,0.22273682,0.7232959,-1.5936357,1.2751216,1.0780476
1642,A,1472411773211000,-9.2256155,-1.1424243,0.62510014,-0.74248934,1.4924355,0.9257148
1642,A,1472411793307000,-9.718989,-3.3242872,1.84177,-0.8181231,1.1462245,0.33662358
1642,A,1472411813498000,-10.095008,-4.4667115,2.1195924,-0.44741106,1.2452941,0.5486112
1642,A,1472411833594000,-9.721385,-4.526587,1.9854712,-0.40586576,1.4146712,0.7318367
1642,A,1472411853787000,-10.406361,-4.045188,1.83219,-0.95447695,0.99708754,0.7105314
1642,A,1472411873883000,-11.064991,-2.6321266,0.87178713,-0.829841,1.1185277,0.8490158
1642,A,1472411894079000,-12.264895,-1.5974782,-0.5412744,-0.32277513,0.76272935,0.6263755
1642,A,1472411914175000,-12.058924,0.44786867,-0.6394702,-0.4079963,-0.113983296,0.28655612
1642,A,1472411934352000,-9.462723,1.2885206,0.6322852,0.04474111,-0.69348717,-0.29294774
1642,A,1472411954448000,-11.953543,1.9351759,2.3447242,0.26205507,-1.804558,-1.4391723
1642,A,1472411974635000,-17.435743,3.06323,1.1951149,-0.35899413,-2.0900488,-1.6213325
1642,A,1472411994731000,-15.153289,3.8727467,0.4143384,-0.37923414,-1.8184065,-1.0301107
1642,A,1472412014924000,-11.60387,2.095642,1.5328126,0.084155895,-1.4913702,-0.8032094
1642,A,1472412035020000,-11.242222,-0.85741705,2.2968237,0.47297743,-1.0173275,-0.88843054
1642,A,1472412055213000,-8.861572,-2.7279274,0.97956306,1.4498249,-0.96939063,-0.6178534
1642,A,1472412075309000,-7.1156034,-1.4082716,2.2824538,1.28897,-0.8181231,-0.30679616
1642,A,1472412095501000,-7.4988065,0.8646021,4.5385623,0.753142,-0.0777643,-0.040480047
1642,A,1472412115597000,-6.449788,0.8646021,3.515889,0.58909124,0.850081,0.3653857
1642,A,1472412135808000,-5.611531,0.08861572,2.8836036,0.47723848,0.8223842,0.23648871
1642,A,1472412155904000,-5.745652,-0.1939966,2.1555176,0.165116,0.12463594,-0.6540724
1642,A,1472412176097000,-5.6354814,-0.75203615,1.2502003,0.40266997,-0.76272935,-0.7105314
1642,A,1472412196193000,-5.221143,-1.3100758,0.6442603,0.35899413,0.36751625,0.08841695
1642,A,1472412216384000,-4.9864306,-1.3124708,1.0633887,-0.25885928,0.30360037,0.21731395
1642,A,1472412236480000,-4.9529004,-1.1520045,2.1698878,-1.7832527,0.9896307,0.8926916
1642,A,1472412256673000,-5.5516553,-1.0729688,3.7242556,-0.9832391,1.4210628,1.3326459
1642,A,1472412276769000,-7.1611085,-1.6118482,5.8175025,-0.5997439,1.252751,0.5390238
1642,A,1472412296958000,-10.312955,-1.5974782,6.3132715,-0.5305017,0.99708754,0.4101268
1642,A,1472412317054000,-12.957056,-1.7794995,5.43909,-0.24820662,1.365669,0.6295713
1642,A,1472412337246000,-11.845767,-4.9337406,8.090376,-0.63915867,1.2697952,0.78936094
1642,A,1472412357342000,-9.15616,-4.2200246,8.629255,-0.9757822,1.0066749,0.813862
1642,A,1472412377540000,-8.423284,-0.31374758,7.1706886,-0.5486112,0.55287224,0.52624065
1642,A,1472412397636000,-15.495777,0.050295413,1.9711012,-0.16085494,-0.068176925,0.28868666
1642,A,1472412417790000,-24.941734,2.9698243,-8.013736,-0.054328486,-0.79894835,-0.44528055
1642,A,1472412437886000,-15.723304,5.0678616,0.3520679,0.056459017,-1.8546255,-1.4487597
1642,A,1472412458057000,-4.8571,3.652405,1.8513502,-0.6540724,-1.9142802,-1.4807175
1642,A,1472412478153000,-1.5136524,3.3889527,-2.1483326,-0.5230448,-1.8397117,-1.1206582
1642,A,1472412498344000,-6.3132715,-0.08861572,-0.2706372,0.28442562,-1.6447684,-0.7616641
1642,A,1472412518440000,-11.081756,-2.565066,1.0514137,1.2378373,-1.1888351,-0.96299905
1642,A,1472412538632000,-13.201348,-3.5781593,-0.21794678,2.0421119,-1.0471549,-0.9267801
1642,A,1472412558728000,-10.734478,-2.0429518,-0.82388675,1.7150757,-0.664725,-0.43675843
1642,A,1472412578939000,-7.1084185,-0.17483643,3.1374757,0.9416938,0.24820662,-0.1555286
1642,A,1472412599035000,-5.6857767,-0.17723145,3.3218923,0.70840085,1.2761868,0.0777643
1642,A,1472412619231000,-6.05461,-0.4742139,1.1496094,0.2428803,1.4274544,0.3888215
1642,A,1472412639327000,-6.9311867,-0.6658155,0.45984375,-0.21731395,0.45806372,-0.12037488
1642,A,1472412659518000,-8.193362,-0.21794678,0.36164796,-0.18535602,-0.84581995,-0.49002165
1642,A,1472412679614000,-9.347761,-0.14849122,0.3424878,-0.44528055,-0.24074976,-0.014913702
1642,A,1472412699808000,-9.10347,-1.0035132,1.2669654,-1.2261194,0.5539375,0.37710363
1642,A,1472412719904000,-8.823253,-1.1975098,1.2310401,-1.5297197,1.4775218,1.2090752
1642,A,1472412740098000,-9.189691,-0.51732427,0.61552006,-0.25672874,1.2261194,0.8245147
1642,A,1472412760194000,-10.044712,-0.81191164,0.32332766,-0.28122982,1.0088054,0.2908172
1642,A,1472412780384000,-10.0063925,-2.0094216,0.57959473,-0.04261058,1.2655342,0.5134575
1642,A,1472412800480000,-9.108259,-2.43813,1.3891114,-0.24394555,1.257012,0.72970617
1642,A,1472412820672000,-10.32972,-2.5411158,1.3483961,-0.95447695,0.8309063,0.82877576
1642,A,1472412840768000,-10.574012,-3.1135256,0.7376661,-0.8309063,0.98856544,0.75101143
1642,A,1472412860962000,-10.4494705,-3.3578174,0.8382569,-0.27377295,0.51026165,0.27164245
1642,A,1472412881058000,-11.376344,-3.2644117,0.17244141,0.36645097,0.13848437,0.15339808
1642,A,1472412901243000,-12.612173,-1.1663746,-0.5604346,0.35473305,-0.83516735,-0.48363006
1642,A,1472412921339000,-12.114009,0.7424561,-0.4981641,-0.099069595,-2.0208068,-1.3177321
1642,A,1472412941517000,-10.32014,1.585503,0.37362307,-0.8404937,-2.1209416,-1.3464943
1642,A,1472412961613000,-12.343931,2.1076174,1.0130934,-0.6498113,-1.7928401,-1.0024139
1642,A,1472412981798000,-14.64315,2.4093897,1.2813355,0.04474111,-1.4391723,-0.87138635
1642,A,1472413001894000,-12.9115505,1.947151,1.7938697,0.9853696,-1.0982877,-0.9395633
1642,A,1472413022071000,-10.375225,0.76880133,3.0225148,1.510545,-0.93849796,-0.4048005
1642,A,1472413042167000,-9.699829,-0.28979737,2.7806177,0.9012137,-0.6668556,0.056459017
1642,A,1472413062399000,-8.57417,-1.334026,1.4441968,0.5336975,0.12250541,0.24074976
1642,A,1472413082495000,-7.7239385,-1.6453785,3.027305,0.36325517,1.3187973,0.5603291
1642,A,1472413102715000,-7.391031,-0.91010743,4.1625443,0.022370555,1.3635385,0.36005938
1642,A,1472413122811000,-7.544312,0.07185059,3.2045362,-0.33449304,0.36325517,-0.51665324
1642,A,1472413142987000,-6.8880763,-0.08861572,1.9687061,-0.010652645,-0.7456851,-0.37816888
1642,A,1472413163083000,-7.067703,-0.16765137,1.5926881,0.21092236,-0.18855181,-0.07137272
1642,A,1472413183281000,-7.434141,-0.17723145,1.343606,-0.8032094,0.40906155,0.350472
1642,A,1472413203377000,-6.9072366,-0.4981641,1.5088624,-1.3006879,1.0929613,1.3113406
1642,A,1472413223572000,-5.951624,-0.7209009,2.4141798,-0.19707392,1.2271847,0.78723043
1642,A,1472413243668000,-5.616321,-0.5484595,3.295547,-0.11824436,0.89162636,0.25672874
1642,A,1472413263860000,-5.894143,-0.5604346,3.4440382,0.21518342,1.063134,0.5454154
1642,A,1472413283956000,-6.2821364,-0.8861573,4.119434,-0.15765914,1.2229236,0.753142
1642,A,1472413304200000,-6.574329,-1.5040723,5.4462748,-0.6327671,0.86392945,0.8671253
1642,A,1472413324296000,-8.052056,-2.2824538,6.607859,-0.53476274,1.0237192,0.7957525
1642,A,1472413344456000,-9.467513,-4.026028,5.7839723,-0.19068234,0.5294364,0.4293016
1642,A,1472413364584000,-10.4566555,-3.547024,5.9133034,0.19920446,-0.18216023,0.26631612
1642,A,1472413384744000,-9.395662,-1.961521,6.6749196,0.48363006,-0.829841,-0.5305017
1642,A,1472413404927000,-9.323812,-0.847837,7.0916533,0.43995422,-1.7065537,-1.4604776
1642,A,1472413425038000,-17.016615,1.0777588,2.6369166,-0.47404268,-1.8780613,-1.5883093
1642,A,1472413445134000,-25.198002,3.5949244,-6.598279,-0.49428272,-1.6181368,-1.2719258
1642,A,1472413465330000,-14.918577,4.3373804,2.4740553,0.43249738,-1.0908308,-1.1813782
1642,A,1472413485426000,-3.5949244,3.417693,0.45505372,1.7342505,-0.9321064,-1.1941614
1642,A,1472413505609000,-0.852627,2.299219,-3.1973512,2.2732744,-0.9321064,-0.50387007
1642,A,1472413525705000,-6.622229,-1.214275,0.9029224,1.3262542,-0.55287224,-0.19387813
1642,A,1472413545914000,-12.336746,-1.9303858,2.818938,0.6498113,0.18109496,-0.10226539
1642,A,1472413566010000,-15.313756,-3.0368848,0.68976563,0.5475459,1.015197,0.3536678
1642,A,1472413586204000,-12.339141,-3.295547,0.25387207,0.30146983,1.2857742,0.47723848
1642,A,1472413606300000,-7.568262,-0.8765772,3.9877076,-0.084155895,0.4676511,-0.28442562
1642,A,1472413626500000,-5.6714063,-0.50534916,1.8250049,0.08841695,-0.44101948,-0.7520767
1642,A,1472413646596000,-5.407954,-0.6442603,0.5556446,0.21198763,-0.28336033,-0.096939065
1642,A,1472413666808000,-6.3899126,0.0,0.58198977,-0.3121225,-0.013848438,0.12357068
1642,A,1472413686904000,-7.6449027,0.8861573,-0.24668702,-1.2879047,0.8245147,0.850081
1642,A,1472413707087000,-8.454419,0.14130616,-0.24668702,-0.9310411,1.3582122,1.3624732
1642,A,1472413727183000,-8.464,-1.0849439,0.8262818,-0.7137272,1.2271847,0.5049353
1642,A,1472413747376000,-8.684341,-1.6142433,0.46702883,-0.71798825,1.0460896,0.23542345
1642,A,1472413767472000,-9.16574,-1.3388159,0.20357667,-0.2514024,1.3432984,0.6466155
1642,A,1472413787678000,-9.606423,-1.9160157,0.7711963,-0.6849651,1.0769824,0.8085357
1642,A,1472413807774000,-9.649534,-2.7111623,1.21188,-1.0684602,0.89801794,0.8831042
1642,A,1472413827953000,-10.097403,-3.1302907,1.5926881,-0.7840346,0.92038846,0.5944176
1642,A,1472413848049000,-10.7799835,-3.4057178,1.5040723,-0.2396845,0.36432046,0.35899413
1642,A,1472413868220000,-10.662627,-2.8931837,1.5040723,0.08841695,-0.014913702,0.23861924
1642,A,1472413888316000,-10.554852,-2.3974147,0.60594,0.3717773,-1.1345067,-0.6775082
1642,A,1472413908497000,-11.445799,-1.1903248,-0.22992188,0.32170987,-2.0357203,-1.4231933
1642,A,1472413928593000,-11.692486,-0.6658155,-0.8310718,-0.3834952,-1.9568908,-1.3401027
1642,A,1472413948786000,-9.929751,0.63707525,-0.40715334,-0.44208476,-1.7299895,-0.8628642
1642,A,1472413968882000,-11.745176,1.8753004,1.2885206,0.029827405,-1.4349113,-0.77870834
1642,A,1472413989070000,-15.8694,2.3782544,1.8633252,1.2058793,-1.0812434,-0.8788432
1642,A,1472414009166000,-15.26825,3.0943654,1.4825171,1.555286,-0.9310411,-0.47617322
1642,A,1472414029383000,-11.158397,2.4045997,1.6094532,0.83516735,-0.479369,-0.19387813
1642,A,1472414049479000,-9.560919,0.26105714,1.343606,0.608266,0.47723848,0.029827405
1642,A,1472414069687000,-8.969349,-0.3544629,1.2837305,0.46552056,1.438107,0.4644553
1642,A,1472414089783000,-8.056846,-0.73048097,2.1674929,-0.23329292,1.3773869,0.3270362
1642,A,1472414109967000,-7.798184,-0.30895755,2.9410841,-0.10013486,-0.14807177,-0.6828345
1642,A,1472414130063000,-8.073611,0.9316626,3.0895753,0.20453078,-0.5837649,-0.60507023
1642,A,1472414150257000,-7.6137676,1.0538087,2.2249732,0.40906155,0.3355583,0.11930962
1642,A,1472414170353000,-7.038963,0.41912845,1.3507911,-0.07563378,0.25033715,0.28868666
1642,A,1472414190541000,-6.8976564,-0.016765138,0.8909473,-1.1089402,0.77231675,0.9555422
1642,A,1472414210637000,-6.4210477,-0.6682105,0.78556645,-0.51452273,1.2761868,1.1185277
1642,A,1472414230831000,-5.877378,-0.9987232,1.3388159,-0.32384038,1.0077401,0.386691
1642,A,1472414250927000,-6.0186844,-0.9508228,2.555486,0.099069595,1.0460896,0.39414784
1642,A,1472414271118000,-6.344407,-0.61073,3.276387,0.07350325,1.4104102,0.70840085
1642,A,1472414291214000,-6.734795,-1.0562036,4.28469,-0.54648066,1.0301107,0.8905611
1642,A,1472414311386000,-7.32876,-1.6501685,5.9133034,-0.50387007,1.0950918,0.8021441
1642,A,1472414331482000,-8.770562,-2.3686745,6.1240654,-0.25885928,0.6785734,0.36218992
1642,A,1472414351673000,-10.545272,-3.6811452,5.6714063,0.011717909,-0.010652645,0.20559604
1642,A,1472414371769000,-10.612332,-3.8008962,6.08814,0.1768339,-0.41864893,-0.13635385
1642,A,1472414391959000,-8.56938,-3.8368216,6.6821046,0.16724652,-1.5201324,-1.180313
1642,A,1472414412055000,-8.950189,-2.8907888,7.7287283,-0.4079963,-2.0932446,-1.5808525
1642,A,1472414432247000,-18.20694,-1.4226416,2.5387208,-0.89375687,-2.066613,-1.216532
1642,A,1472414452343000,-23.454428,3.7362306,-6.974297,-0.24181503,-1.8066885,-0.7094661
1642,A,1472414472550000,-13.280384,6.950347,0.5460645,0.37923414,-1.3837786,-0.71159667
1642,A,1472414492646000,-4.129014,3.8344264,2.8955786,1.1749867,-1.0961571,-0.9257148
1642,A,1472414512852000,-1.7483643,1.7938697,-2.802173,1.176052,-0.6945524,-0.50387007
1642,A,1472414532948000,-6.4426026,-1.1472144,-1.4825171,0.56245965,0.0053263223,-0.0053263223
1642,A,1472414553145000,-12.403807,-1.9567311,1.346001,0.40373522,1.0695255,0.18961707
1642,A,1472414573241000,-13.749807,-2.0022364,-0.021555176,0.1949434,1.8184065,0.36005938
1642,A,1472414593427000,-10.533297,-2.076482,0.021555176,0.08522116,0.773382,0.096939065
1642,A,1472414613523000,-8.044871,-1.8705103,3.2308815,0.3920173,-0.5305017,-0.515588
1642,A,1472414633716000,-6.593489,-1.8896705,2.7087672,0.31318775,-0.406931,-0.113983296
1642,A,1472414653812000,-6.09293,-1.1112891,1.1328443,-0.2695119,0.32490566,0.16831179
1642,A,1472414674004000,-6.5336137,0.16525635,1.0394385,-1.2921658,1.0641992,1.1813782
1642,A,1472414694100000,-8.140672,0.6610254,0.23471193,-0.9193232,1.1973573,1.506284
1642,A,1472414714291000,-9.041199,0.12933107,0.19878663,-0.76059884,1.2335763,0.37284255
1642,A,1472414734387000,-8.902288,-0.7759864,1.6094532,-0.51771855,1.0833739,0.26312032
1642,A,1472414754552000,-9.297466,-1.1064991,1.7651294,0.2130529,1.3891048,0.5944176
1642,A,1472414774648000,-9.079519,-1.5519727,1.1615845,-0.39095205,1.1835088,0.6785734
1642,A,1472414794822000,-8.988508,-2.1770728,1.6334034,-0.8767126,0.8543421,0.83942837
1642,A,1472414814918000,-9.328602,-2.9171338,1.7292042,-0.63915867,0.7850999,0.700944
1642,A,1472414835108000,-9.390872,-3.3506324,1.6022681,-0.17044231,0.36218992,0.36751625
1642,A,1472414855204000,-9.927357,-3.4416432,1.3483961,0.12250541,-0.26312032,0.0958738
1642,A,1472414875395000,-10.281819,-3.3937428,1.3388159,0.47617322,-1.3709954,-0.8873653
1642,A,1472414895491000,-10.2387085,-2.9051588,0.9436377,0.30786142,-2.2903185,-1.6990968
1642,A,1472414915686000,-11.103311,-2.7087672,0.64186525,-0.36751625,-2.0772657,-1.3891048
1642,A,1472414935782000,-11.718831,-1.8848804,0.07664063,-0.14487597,-1.845038,-1.0205233
1642,A,1472414955982000,-11.223062,-0.5676197,0.13172609,0.1107875,-1.3528858,-0.99282646
1642,A,1472414976078000,-9.651929,1.3100758,-0.081430666,1.1132014,-1.1334413,-1.063134
1642,A,1472414996293000,-9.730965,2.0237916,1.2573853,1.5020229,-0.83516735,-0.65194184
1642,A,1472415016389000,-13.622871,2.1291726,2.189048,0.9406285,-0.38029942,-0.07456851
1642,A,1472415036582000,-15.2610655,2.675237,2.1603076,0.6359629,0.53476274,0.29614353
1642,A,1472415056678000,-11.60866,1.5807129,2.327959,0.58909124,1.1046792,0.39627838
1642,A,1472415076871000,-10.097403,-0.11496094,2.1627028,0.4293016,0.6146576,-0.18002969
1642,A,1472415096967000,-9.85311,-0.89573735,1.8489552,0.3121225,-0.39840892,-0.6530071
1642,A,1472415117158000,-8.698711,-1.3699512,2.8309133,0.28336033,-0.26205507,-0.13315806
1642,A,1472415137254000,-7.565867,-0.9915381,4.112249,-0.096939065,0.33449304,0.008522116
1642,A,1472415157447000,-7.055728,0.38320315,3.8607717,-0.6870956,0.7414241,0.7350325
1642,A,1472415177543000,-6.8425713,0.90052736,2.6009912,-0.80533993,1.3230585,1.3326459
1642,A,1472415197739000,-6.9551373,0.22273682,1.9064356,-0.5006743,1.3422332,0.55287224
1642,A,1472415217835000,-6.912027,-0.32572266,1.4920973,-0.49215218,1.0908308,0.2396845
1642,A,1472415238032000,-6.471343,-0.80712163,1.4154567,-0.15020229,1.5243934,0.57417756
1642,A,1472415258128000,-5.9061184,-0.9244776,1.8729054,-0.20026971,1.5073493,0.7797736
1642,A,1472415278288000,-5.961204,-0.77359134,2.816543,-0.6764429,1.1930962,0.83516735
1642,A,1472415298384000,-6.588699,-0.6227051,3.5182838,-0.8926916,1.128115,0.6924219
1642,A,1472415318575000,-6.8808913,-1.0274634,4.4595265,-0.38136467,0.42077947,0.294013
1642,A,1472415338671000,-7.189849,-2.0932472,5.601951,0.08628642,-0.10333065,0.099069595
1642,A,1472415358863000,-8.52627,-3.0799952,5.992339,0.11930962,-0.9033443,-0.47830373
1642,A,1472415378959000,-10.30577,-3.295547,5.824688,0.11504856,-2.3158848,-1.526524
1642,A,1472415399185000,-11.54639,-3.1494508,6.11688,-0.05752428,-2.3116238,-1.4945661
1642,A,1472415419281000,-10.217154,-3.5182838,6.495293,-0.03834952,-1.8855181,-1.0354371
1642,A,1472415439486000,-10.607542,-2.1579127,7.94907,-0.25246766,-1.5584819,-0.93849796
1642,A,1472415459582000,-18.032103,-1.2454102,3.6380348,0.67537767,-1.3049489,-0.8511463
1642,A,1472415479776000,-19.30865,1.8609302,-3.6140847,1.6373115,-1.0727214,-0.664725
1642,A,1472415499872000,-10.5764065,5.9947343,-3.535049,1.3475596,-0.6668556,-0.23755397
1642,A,1472415520067000,-4.30385,4.6966333,3.3673975,0.6402239,0.37071204,0.21518342
1642,A,1472415540163000,-4.624783,4.28469,1.4968873,0.3653857,1.5680692,0.40906155
1642,A,1472415560356000,-7.201824,0.6993457,-2.5914114,0.34940675,1.3177321,0.28336033
1642,A,1472415580452000,-12.406201,-3.283572,0.33290774,0.3110572,-0.027696876,-0.28549087
1642,A,1472415600649000,-13.859979,-3.8464015,0.7209009,0.16298546,-0.26844665,-0.4644553
1642,A,1472415620745000,-10.847044,-2.0405567,0.24908204,-0.21198763,0.30999196,0.34514567
1642,A,1472415640937000,-8.384964,-0.43589357,2.3662794,-0.6562029,0.5603291,0.57311225
1642,A,1472415661033000,-6.68929,-1.5328126,3.0919704,-1.3432984,0.7755125,0.6956177
1642,A,1472415681217000,-5.9707837,-1.453777,1.2813355,-1.2921658,1.3869743,1.2676647
1642,A,1472415701313000,-6.325247,-0.42870852,0.8214917,-0.92038846,1.200553,0.628506
1642,A,1472415721488000,-7.340735,-0.4143384,0.34488282,-0.9416938,0.87138635,0.19920446
1642,A,1472415741584000,-8.667576,-0.33530274,-0.98435307,-0.25885928,1.3667343,0.38029942
1642,A,1472415761781000,-8.396939,-0.31853762,0.45505372,-0.406931,1.1707256,0.4889564
1642,A,1472415781877000,-8.286768,-0.57959473,2.1004322,-0.7456851,0.9235843,0.7499462
1642,A,1472415802071000,-9.163345,-1.4394068,1.1687696,-0.5496765,1.1472899,0.757403
1642,A,1472415822167000,-8.976534,-2.066902,1.0202783,-0.25033715,0.43249738,0.40373522
1642,A,1472415842361000,-9.268726,-2.7566676,1.2454102,-0.128897,-0.43782368,0.13848437
1642,A,1472415862457000,-9.793235,-2.4836354,1.6765138,0.06178534,-1.3017532,-0.56885123
1642,A,1472415882648000,-10.322535,-1.9711012,1.7531544,0.15765914,-2.299906,-1.6682042
1642,A,1472415902744000,-11.019485,-2.2297633,1.4968873,-0.30999196,-2.1486385,-1.5030881
1642,A,1472415922964000,-11.766731,-1.9902613,1.1663746,0.10333065,-1.9217371,-0.9235843
1642,A,1472415943060000,-11.199112,-1.6429834,-0.009580079,0.23116238,-1.5957662,-0.77125144
1642,A,1472415963253000,-11.376344,-1.0705738,-0.852627,0.68389976,-1.0641992,-0.97258645
1642,A,1472415983349000,-11.247012,0.09340577,-1.1280543,1.3145363,-0.78083885,-0.9736517
1642,A,1472416003544000,-9.517808,0.90771246,0.7544312,1.196292,-0.5773733,-0.5432849
1642,A,1472416023640000,-11.484119,1.2597803,1.6262183,0.7595336,0.41758367,0.10013486
1642,A,1472416043832000,-15.632293,2.1219873,0.8646021,0.61891866,1.530785,0.36432046
1642,A,1472416063928000,-14.4874735,1.5280225,1.2070899,0.31318775,1.6170714,0.24501082
1642,A,1472416084121000,-10.839859,-0.031135255,2.5770411,0.41864893,-0.43782368,-0.5454154
1642,A,1472416104217000,-9.230406,-0.57001466,1.7315992,0.30466563,-0.61891866,-0.28549087
1642,A,1472416124409000,-9.568104,-0.6945557,1.3867164,-0.15446335,0.28442562,0.28975195
1642,A,1472416144505000,-8.667576,-0.62749517,3.2500417,-0.9736517,0.72011876,0.7819041
1642,A,1472416164695000,-7.965835,-0.47181886,4.253555,-1.3848438,1.3454291,1.5137408
1642,A,1472416184791000,-6.3875175,-0.1580713,3.3434474,-0.7755125,1.3592775,0.9395633
1642,A,1472416204982000,-6.339617,0.32572266,1.7507594,-0.86179894,0.9534117,0.21518342
1642,A,1472416225078000,-7.9155397,0.24908204,1.2957057,-0.23222765,1.2452941,0.36005938
1642,A,1472416245270000,-6.3875175,-0.3161426,0.8310718,-0.12037488,1.3901701,0.5656554
1642,A,1472416265366000,-5.5372853,-0.22752686,-0.7089258,-0.6764429,0.95660746,0.7914915
1642,A,1472416285559000,-5.3097587,0.4167334,0.4382886,-0.64555025,1.0237192,0.88843054
1642,A,1472416305655000,-4.6654983,0.18681154,2.0525317,-0.10652645,0.9800433,0.52411014
1642,A,1472416325848000,-5.50136,-0.63707525,2.8428884,-0.022370555,-0.17044231,0.19281286
1642,A,1472416345944000,-6.8928666,-1.9998415,6.236631,-0.05752428,-1.2687299,-0.46339005
1642,A,1472416366149000,-9.053174,-3.9853127,7.647298,0.11504856,-1.816276,-1.490305
1642,A,1472416386245000,-11.699671,-5.484595,6.6365995,-0.43888897,-2.0229373,-1.4871092
1642,A,1472416406435000,-12.0182085,-4.749324,5.6187162,-0.13528858,-1.8141453,-0.9981528
1642,A,1472416426531000,-8.320298,-5.0343313,5.7696023,0.06924219,-1.4253238,-1.0279802
1642,A,1472416446723000,-9.642349,-2.926714,7.6185575,0.84688526,-1.1451592,-0.9470201
1642,A,1472416466819000,-20.041525,-1.1831397,4.4571314,1.478587,-1.0535465,-0.67005134
1642,A,1472416487008000,-23.753805,5.750442,-5.719307,1.1313108,-0.7765778,-0.36218992
1642,A,1472416507104000,-11.088941,6.8497562,-1.1352394,0.9054748,0.13848437,0.029827405
1642,A,1472416527313000,-0.75203615,2.9003687,1.4226416,0.71479243,1.3432984,0.49002165
1642,A,1472416547409000,-1.5974782,2.3902297,-3.6284547,0.22690132,1.2580773,0.13954964
1642,A,1472416567569000,-8.969349,-0.855022,1.3675562,0.3749731,-0.5134575,-0.81066626
1642,A,1472416587697000,-14.822777,-2.560276,3.4057178,0.49854377,-0.46019423,-0.6061355
1642,A,1472416607857000,-14.152171,-2.936294,-0.34009278,0.43569317,0.84581995,0.37603834
1642,A,1472416628035000,-9.565708,-2.9961696,0.100590825,0.0127831735,0.31851408,0.32277513
1642,A,1472416648184000,-6.583909,-1.7531544,3.558999,-1.4562165,1.2016183,0.82557994
1642,A,1472416668280000,-5.5492606,-0.974773,1.3220508,-0.93423694,1.6458336,1.1121361
1642,A,1472416688473000,-6.12646,-0.2562671,0.34967285,-0.8117315,0.96939063,0.48043427
1642,A,1472416708569000,-6.4928985,0.23950197,1.0035132,-0.59228706,1.0013486,0.4016047
1642,A,1472416728756000,-6.998247,0.8981324,0.5388794,-0.6679208,1.1632688,0.68389976
1642,A,1472416748852000,-8.183782,0.51013917,0.15328126,-1.2751216,0.958738,0.7850999
1642,A,1472416769045000,-9.21364,-0.7041358,0.4167334,-1.0791129,1.2218584,0.8000136
1642,A,1472416789141000,-9.7812605,-1.1855347,0.7424561,-0.7978831,0.39521313,0.43888897
1642,A,1472416809336000,-9.6758795,-1.7435743,1.1999048,-0.24181503,-0.3089267,-0.029827405
1642,A,1472416829432000,-9.414823,-3.04886,1.2813355,0.3089267,-0.8064052,-0.6860303
1642,A,1472416849622000,-9.316627,-3.422483,0.9532178,0.1555286,-1.8056233,-1.3837786
1642,A,1472416869718000,-10.35367,-2.3614893,1.0442286,-0.62317973,-2.0367856,-1.4253238
1642,A,1472416889913000,-10.933265,-2.059717,0.78556645,-0.75420725,-1.7065537,-1.176052
1642,A,1472416910009000,-11.062595,-2.0118165,0.119750984,-0.13528858,-1.2271847,-1.0279802
1642,A,1472416930201000,-11.838582,-2.3447242,-0.5125342,0.850081,-1.0428939,-1.0940266
1642,A,1472416950297000,-12.456497,-1.4322218,0.011975098,1.6852484,-0.94808537,-0.6562029
1642,A,1472416970503000,-10.41115,-0.043110352,0.06227051,1.1984226,-0.5368933,-0.20772657
1642,A,1472416990599000,-10.159674,1.6573536,-0.2778223,0.7584683,0.2066613,-0.015978966
1642,A,1472417010794000,-14.271922,2.1219873,0.59156984,0.83729786,1.3060142,0.39840892
1642,A,1472417030890000,-16.686102,1.9758912,0.9388477,0.48149952,1.7193369,0.624245
1642,A,1472417051083000,-13.273199,2.0070264,2.308799,0.294013,0.015978966,-0.14061491
1642,A,1472417071179000,-10.516531,-0.119750984,2.5387208,0.36751625,-0.58056915,-0.59761333
1642,A,1472417091326000,-9.666299,-1.4968873,1.223855,0.10226539,0.036218993,0.14807177
1642,A,1472417111422000,-7.829319,-1.8920655,1.9926564,-0.44847634,0.15659387,0.4495416
1642,A,1472417131595000,-6.974297,-0.8334668,3.6883302,-1.8152106,1.1451592,0.8564726
1642,A,1472417151691000,-6.6294146,0.7424561,4.1553593,-1.1664646,1.4945661,1.2037488
1642,A,1472417171884000,-5.2594633,0.48139894,2.5387208,-0.7190535,1.1408982,0.40053943
1642,A,1472417191980000,-4.90979,0.0047900393,1.5399976,-0.42397526,0.9331717,0.26418558
1642,A,1472417212171000,-5.5229154,-0.34727785,0.93405765,-0.11824436,1.3060142,0.5134575
1642,A,1472417232267000,-6.047425,-0.91250247,0.38080812,-0.7073356,1.1068097,0.6221144
1642,A,1472417252463000,-5.927674,-0.8861573,0.57959473,-0.70627034,1.0407634,0.6327671
1642,A,1472417272559000,-5.46304,-0.7496411,1.9663111,-0.16085494,1.0247844,0.4016047
1642,A,1472417292747000,-5.5803957,-0.9053174,3.657195,-0.40586576,0.221575,0.20559604
1642,A,1472417312843000,-6.239026,-1.6860938,5.9085135,-0.5997439,-0.34088463,0.10759171
1642,A,1472417333008000,-8.178992,-2.787803,6.950347,-0.34088463,-1.4146712,-0.3355583
1642,A,1472417353104000,-11.778707,-3.9589674,6.1575956,-0.06391586,-2.247708,-1.3187973
1642,A,1472417373299000,-12.20502,-4.775669,5.760022,0.10439592,-1.6820526,-1.1174624
1642,A,1472417393395000,-9.13221,-4.495452,7.8556643,0.3174488,-1.8578212,-0.8969527
1642,A,1472417413584000,-9.577683,-2.3710694,8.155042,0.4612595,-1.7491642,-0.9576728
1642,A,1472417433680000,-18.003363,-0.37362307,3.04407,1.4508902,-1.2911005,-0.5795039
1642,A,1472417453873000,-24.364534,4.6966333,-7.4676714,1.5393071,-1.2538162,-0.4101268
1642,A,1472417473969000,-14.729371,6.552774,-0.23471193,0.93636745,-0.572047,-0.2130529
1642,A,1472417494162000,-4.526587,3.1207106,2.6776319,0.46019423,0.8905611,0.1736381
1642,A,1472417514258000,-1.8489552,2.5219557,-2.9937747,0.26418558,1.4881744,0.29614353
1642,A,1472417534443000,-6.6102543,-0.3065625,-1.2885206,0.33449304,0.50813115,-0.32597092
1642,A,1472417554539000,-12.446917,-1.5950831,1.219065,0.30999196,-0.60720074,-1.0546118
1642,A,1472417574710000,-13.919854,-1.4394068,-0.33530274,0.34301516,-0.4889564,-0.5816344
1642,A,1472417594806000,-9.989627,-1.2022998,-1.6070582,0.5273059,-0.2428803,0.00958738
1642,A,1472417614996000,-6.74198,-1.0154883,2.6776319,-0.55606806,0.6785734,0.8202536
1642,A,1472417635092000,-5.407954,-1.1160791,2.304009,-1.0365024,1.7779263,1.2612731
1642,A,1472417655283000,-5.489385,-0.8047266,1.092129,-0.5123922,1.7044232,0.34301516
1642,A,1472417675379000,-6.69408,-0.26584718,0.031135255,-0.1470065,1.1100056,0.3568636
1642,A,1472417695571000,-7.913145,0.29698244,-0.30895755,0.257794,1.4008228,0.6870956
1642,A,1472417715667000,-8.947793,-0.7161109,-0.2706372,-0.35473305,1.4295849,0.8245147
1642,A,1472417735904000,-9.383687,-1.6549586,1.4873072,-0.7584683,1.2719258,0.8362326
1642,A,1472417756000000,-9.572893,-2.069297,2.0405567,-0.5933523,0.7137272,0.5752428
1642,A,1472417776214000,-9.1130495,-2.5051906,2.1698878,-0.35579833,-0.025566347,0.3888215
1642,A,1472417796310000,-8.667576,-2.2968237,1.954336,-0.04580637,-0.35260254,0.051132694
1642,A,1472417816507000,-9.491463,-2.1076174,1.4992822,0.30679616,-1.139833,-0.829841
1642,A,1472417836603000,-10.473421,-3.3266823,1.1639795,0.13741912,-1.743838,-1.4530207
1642,A,1472417856795000,-10.921289,-3.3362625,0.8382569,-0.19813919,-1.7193369,-1.3177321
1642,A,1472417876891000,-11.53202,-0.53169435,0.5508545,0.18109496,-1.6447684,-0.9395633
1642,A,1472417897086000,-12.140354,-1.8441651,-1.22625,0.32277513,-1.0396981,-1.0439591
1642,A,1472417917182000,-12.22418,-1.089734,-1.0442286,1.1867046,-0.9576728,-1.0588728
1642,A,1472417937372000,-9.79084,-0.61073,-0.16765137,1.4519554,-1.1068097,-0.4346279
1642,A,1472417957468000,-9.4435625,1.1376343,1.092129,0.7435546,-0.5368933,-0.111852765
1642,A,1472417977679000,-15.287411,2.6464968,1.8872755,0.4495416,0.42397526,0.033023197
1642,A,1472417997775000,-17.131575,3.755391,0.2083667,0.39947417,1.1163971,0.30146983
1642,A,1472418017938000,-12.942686,2.9722195,0.57719976,0.39095205,0.809601,0.16618125
1642,A,1472418038034000,-10.97398,-0.05269043,1.8848804,0.34088463,-0.13635385,-0.4250405
1642,A,1472418058227000,-10.37762,-1.4418018,0.49097902,0.3291667,-0.44847634,-0.30040458
1642,A,1472418078323000,-8.028106,-1.2669654,1.6741188,-0.011717909,-0.19707392,0.46019423
1642,A,1472418098517000,-6.5288234,-0.15088624,4.423601,-0.8032094,0.20985709,0.39627838
1642,A,1472418118613000,-5.985154,0.5412744,3.784131,-1.4892397,1.2399678,0.67324716
1642,A,1472418138800000,-6.2845316,0.13172609,3.1997461,-0.6593987,1.582983,1.071656
1642,A,1472418158896000,-6.3851223,0.21555176,2.8788135,-0.5933523,1.0705907,0.5635249
1642,A,1472418179099000,-5.8175025,0.12933107,1.3795313,-0.5795039,1.0620687,0.40053943
1642,A,1472418199195000,-4.9505057,-0.79035646,0.71371585,-0.21624869,1.4658039,0.6061355
1642,A,1472418219417000,-4.263135,-1.8800904,1.5423926,-0.74461985,0.99495703,0.5901565
1642,A,1472418239513000,-4.485872,-2.3135889,3.3697927,-0.88949585,1.0823087,0.65194184
1642,A,1472418259703000,-5.503755,-2.339934,5.4534597,-0.6530071,0.9491506,0.5422196
1642,A,1472418279799000,-7.3072047,-2.088457,6.0402393,-0.44528055,0.035153728,0.33662358
1642,A,1472418299994000,-10.688972,-0.68976563,4.9648757,-0.18961707,-0.30040458,0.14913702
1642,A,1472418320090000,-11.591895,-4.366121,7.335945,0.03195793,-1.2229236,-0.5763081
1642,A,1472418340277000,-11.232642,-6.0043144,8.998089,0.13528858,-2.062352,-1.3624732
1642,A,1472418360373000,-7.1491337,-2.1459377,6.447393,-0.23009712,-1.8524948,-1.200553
1642,A,1472418380567000,-6.991062,1.5926881,4.6511283,0.025566347,-1.7502295,-0.9821738
1642,A,1472418400663000,-22.364693,2.44292,-2.4860303,0.36964676,-1.3390374,-0.9235843
1642,A,1472418420858000,-33.274006,8.741821,-7.414981,1.3486248,-1.0056096,-0.9395633
1642,A,1472418440954000,-9.627979,4.471502,0.99393314,1.7406421,-0.85327685,-0.7052051
1642,A,1472418461099000,1.099314,0.023950197,-0.732876,1.0365024,-0.38562572,-0.36751625
1642,A,1472418481195000,-2.0501368,-1.0322535,-1.1520045,0.46019423,0.6295713,-0.060720075
1642,A,1472418501373000,-7.89638,-1.5184424,0.5963599,0.39414784,1.5275892,0.33768883
1642,A,1472418521469000,-12.487633,-1.3795313,1.477727,0.22370553,1.0610034,0.32597092
1642,A,1472418541641000,-15.095809,-2.5123756,0.7113208,0.2396845,-0.1555286,-0.5049353
1642,A,1472418561737000,-11.014695,-1.6334034,0.37601808,0.21837921,-0.24714136,-0.6114618
1642,A,1472418581931000,-7.486831,-0.5724097,4.018843,0.16405073,0.4261058,0.37923414
1642,A,1472418602027000,-6.05461,-1.707649,2.4572902,-0.12996227,0.28868666,0.26525086
1642,A,1472418622233000,-5.6570363,-1.096919,0.6682105,-1.0887003,0.87777793,1.0279802
1642,A,1472418642329000,-6.720425,0.3544629,0.5005591,-0.7680557,1.3550164,1.3305153
1642,A,1472418662554000,-6.6485744,1.5040723,1.0178833,-0.4889564,0.8543421,0.22690132
1642,A,1472418682650000,-8.408914,-0.119750984,-0.20118165,0.28122982,1.1014835,0.350472
1642,A,1472418702842000,-8.782537,-1.6357985,0.17244141,0.31638354,1.6447684,0.5390238
1642,A,1472418722938000,-8.461604,-1.0585986,1.0083033,-0.17044231,1.3891048,0.55606806
1642,A,1472418743132000,-9.153765,0.019160157,1.0562036,-0.6327671,0.64768076,0.81066626
1642,A,1472418763228000,-9.72378,-1.3507911,1.2334352,-0.57098174,0.32810146,0.5752428
1642,A,1472418783421000,-9.13221,-2.6081765,1.4034815,-0.18322548,-0.0063915867,0.1768339
1642,A,1472418803517000,-9.105865,-2.5027955,1.5950831,-0.034088463,-0.4878911,-0.1949434
1642,A,1472418823706000,-9.980047,-2.4908204,1.583108,0.28975195,-1.5776566,-1.0045444
1642,A,1472418843802000,-10.245894,-2.8524685,1.4130616,-0.04580637,-2.0335898,-1.3677995
1642,A,1472418863993000,-10.389595,-2.0190015,0.58198977,-0.5795039,-1.8801918,-1.1014835
1642,A,1472418884089000,-11.718831,-1.6477735,-0.39517823,-0.0958738,-1.5680692,-0.94488955
1642,A,1472418904282000,-12.693604,-1.9663111,-0.36883304,0.8277105,-1.1696603,-0.958738
1642,A,1472418924378000,-10.894944,-0.51971924,-0.31374758,1.8919097,-1.026915,-0.74461985
1642,A,1472418944541000,-9.019644,1.0274634,1.0130934,1.6458336,-0.6988135,-0.4133226
1642,A,1472418964637000,-14.05158,1.336421,2.1818628,0.69029135,-0.14807177,-0.3323625
1642,A,1472418984798000,-17.727936,3.2117214,0.43349856,0.49960902,0.6178534,-0.19068234
1642,A,1472419004894000,-13.706697,2.8548634,0.37122804,0.721184,0.9619338,-0.004261058
1642,A,1472419025078000,-10.99314,0.24189699,1.6621436,0.608266,0.7233146,0.0010652645
1642,A,1472419045174000,-10.255474,-1.7459693,1.5040723,0.3355583,0.25566345,-0.19920446
1642,A,1472419065366000,-8.028106,-1.7818946,1.6190332,0.50173956,-0.18961707,-0.47510794
1642,A,1472419085462000,-7.4916215,0.30177248,3.6979103,0.5613944,-0.3153183,0.008522116
1642,A,1472419105703000,-7.4101906,1.3148658,4.873865,-0.22264028,-0.12144015,0.30999196
1642,A,1472419125799000,-7.180269,0.76880133,3.7218604,-1.6405072,0.624245,0.3920173
1642,A,1472419146009000,-6.6437845,-0.021555176,1.9232007,-1.5968314,1.865278,1.1579424
1642,A,1472419166105000,-6.574329,-0.8430469,0.87897223,-0.7126619,1.4231933,0.72011876
1642,A,1472419186312000,-6.4066777,-1.3843213,0.27542725,-0.8852348,0.69135666,0.28016454
1642,A,1472419206408000,-5.934859,-1.334026,0.79035646,-0.53795856,1.051416,0.34940675
1642,A,1472419226603000,-5.48699,-0.81909674,1.6429834,-0.44315,1.2506205,0.4079963
1642,A,1472419246699000,-5.360054,-0.37362307,2.7614577,-0.70627034,0.7840346,0.44741106
1642,A,1472419266892000,-5.381609,-0.8334668,3.7362306,-0.57098174,0.8831042,0.73290193
1642,A,1472419286988000,-6.080955,-1.9926564,4.758904,-0.57311225,0.8767126,0.67218184
1642,A,1472419307181000,-7.3575,-2.687212,4.854705,-0.16937704,0.6295713,0.3749731
1642,A,1472419327277000,-9.12263,-1.9734962,4.26553,-0.34514567,-0.43995422,0.018109497
1642,A,1472419347467000,-10.830278,-2.5051906,4.993616,-0.46978164,-1.4839134,-0.60933125
1642,A,1472419367563000,-10.341695,-3.8368216,7.671248,-0.1949434,-2.4586303,-1.3869743
1642,A,1472419387717000,-8.725057,-3.661985,6.940767,-0.4857606,-1.8290591,-1.3156016
1642,A,1472419407813000,-9.172925,-1.6453785,6.552774,-0.049002163,-1.7896442,-1.0226538
1642,A,1472419428005000,-18.458416,-0.2682422,0.74724615,0.24074976,-1.4231933,-0.8926916
1642,A,1472419448101000,-28.09358,4.799619,-6.0833497,0.96086854,-1.1046792,-0.8223842
1642,A,1472419468295000,-14.5713,4.905,3.151846,1.4285196,-1.0024139,-0.58696073
1642,A,1472419488391000,-2.4165747,2.7111623,0.9532178,0.9076053,-0.4250405,-0.28122982
1642,A,1472419508585000,1.1424243,0.88376224,-3.6548,0.4527374,0.47191215,0.070307456
1642,A,1472419528681000,-6.0258694,-1.949546,-0.5843848,0.39840892,1.3060142,0.36218992
1642,A,1472419548871000,-12.667259,-1.9711012,1.9950514,0.31851408,1.320928,0.18002969
1642,A,1472419568967000,-15.960411,-1.7986598,-0.10538086,0.3653857,-0.17896444,-0.5422196
1642,A,1472419589193000,-12.640914,-1.839375,0.7113208,0.535828,-0.6508766,-0.64341974
1642,A,1472419609289000,-7.7574687,-0.75203615,4.3278003,0.48469532,-0.013848438,0.06178534
1642,A,1472419629516000,-6.2510014,-0.90771246,1.6813037,-0.029827405,0.30146983,0.22903186
1642,A,1472419649612000,-5.961204,-0.23231691,-0.031135255,-1.0546118,0.8564726,0.47191215
1642,A,1472419669812000,-6.6988697,0.80712163,-0.62749517,-0.8788432,1.4913702,1.1206582
1642,A,1472419689908000,-7.810159,0.8646021,0.10777588,-0.8085357,1.3326459,0.5933523
1642,A,1472419710102000,-8.361013,-0.8214917,0.9627979,-0.9960223,1.0333065,0.18002969
1642,A,1472419730198000,-8.131092,-1.5926881,1.8082398,-0.51026165,1.32945,0.53263223
1642,A,1472419750399000,-8.279583,-1.0178833,1.1496094,-0.77870834,1.1249193,0.7392935
1642,A,1472419770495000,-9.517808,-0.7568262,0.27542725,-1.0610034,0.81066626,0.7850999
1642,A,1472419790655000,-10.1189575,-1.8968556,2.0166066,-0.84155893,1.0855045,0.8064052
1642,A,1472419810783000,-9.256751,-4.0835085,2.43813,-0.41438788,0.7094661,0.51026165
1642,A,1472419830943000,-9.163345,-4.30385,1.7794995,-0.03089267,0.257794,0.26205507
1642,A,1472419851122000,-10.075848,-3.1901662,1.7315992,-0.12357068,-0.34834146,-0.22264028
1642,A,1472419871198000,-10.708133,-1.829795,1.3100758,-0.37603834,-2.0133498,-1.1930962
1642,A,1472419891294000,-11.031461,-1.4920973,0.364043,-0.5784386,-2.3371902,-1.6223978
1642,A,1472419911488000,-11.407478,-1.6501685,-0.4742139,-0.5368933,-2.018676,-0.9598033
1642,A,1472419931584000,-11.06978,-0.6394702,-0.31853762,-0.22050974,-1.8109496,-0.60933125
1642,A,1472419951755000,-8.710687,1.089734,-0.33769777,0.45806372,-1.2389026,-0.6860303
1642,A,1472419971851000,-11.148816,2.7494826,-0.3305127,1.7374463,-1.0173275,-0.6689861
1642,A,1472419992045000,-15.7185135,3.168611,0.059875492,1.6138756,-0.8266452,-0.4825648
1642,A,1472420012141000,-16.48971,3.03928,1.3939015,0.6860303,-0.070307456,-0.13315806
1642,A,1472420032367000,-13.141473,2.0573218,3.4009278,0.14913702,0.8724516,0.20985709
1642,A,1472420052463000,-10.676997,-0.4239185,2.5291407,0.17257284,0.9214538,0.45167214
1642,A,1472420072666000,-8.883128,-2.3686745,1.343606,0.2609898,-0.09161274,0.06498113
1642,A,1472420092762000,-7.3455253,-1.6860938,2.6033864,-0.43356264,-0.69135666,-0.406931
1642,A,1472420112953000,-7.563472,0.34727785,4.138594,-0.86179894,-0.15446335,-0.2790993
1642,A,1472420133049000,-7.5155716,-0.06227051,4.471502,-0.9416938,0.5134575,0.43036684
1642,A,1472420153244000,-6.461763,-0.6442603,2.955454,-1.6202673,1.6714,0.6327671
1642,A,1472420173340000,-6.3084817,-0.87418216,2.320774,-0.716923,1.4285196,-0.46339005
1642,A,1472420193533000,-6.128855,-1.223855,1.5040723,1.8674086,0.3121225,0.98750013
1642,A,1472420213629000,-5.5708156,-1.583108,1.1951149,1.2357068,1.128115,0.95234644
1642,A,1472420233816000,-5.1828227,-1.6645386,1.5399976,-0.38242993,1.2953615,0.60933125
1642,A,1472420253912000,-5.0702567,-0.85023195,1.8992506,-0.84368944,0.8905611,1.1110709
1642,A,1472420274105000,-5.489385,0.0071850587,2.8548634,-0.80533993,1.019458,0.9406285
1642,A,1472420294201000,-6.5144534,-0.43349856,4.2248144,-0.20240025,0.36432046,0.40373522
1642,A,1472420314393000,-7.89638,-1.3723463,5.5540504,0.48043427,0.60507023,0.73609775
1642,A,1472420334489000,-9.735755,-1.8082398,5.6690116,0.98430437,-1.9909793,-1.3379722
1642,A,1472420354662000,-10.935659,-2.3830445,2.8141482,0.3898868,-2.2061627,-2.163552
1642,A,1472420374758000,-10.655442,-4.3062453,6.9024467,-0.5635249,-1.6724652,-1.6309199
1642,A,1472420394950000,-11.730806,-4.030818,9.82437,0.0958738,-1.3454291,-1.3219932
1642,A,1472420415046000,-20.578009,-2.7183473,3.8535867,0.54435015,-0.9576728,-1.0641992
1642,A,1472420435277000,-24.556137,1.7627344,-5.592371,1.1408982,-0.9214538,-1.0301107
1642,A,1472420455373000,-11.369158,7.0269876,-2.2680836,1.5488945,-0.7680557,-0.5368933
1642,A,1472420475563000,-2.9817994,4.631968,5.8917484,1.5339808,-0.3930826,0.05006743
1642,A,1472420495659000,-1.9351759,3.3482375,-2.3327491,1.1451592,0.51665324,0.46339005
1642,A,1472420515855000,-5.1708474,0.23231691,-2.8357031,0.15978967,1.3784522,0.84688526
1642,A,1472420535951000,-13.002562,-2.692002,2.3447242,-0.1257012,0.9619338,0.40373522
1642,A,1472420556140000,-15.126944,-4.3493557,1.0250684,-0.05539375,-0.314253,-0.34834146
1642,A,1472420576236000,-11.256593,-3.1278956,-0.39278322,-0.14594123,-0.62317973,-0.11504856
1642,A,1472420596429000,-6.9168167,-1.695674,4.277505,-0.5486112,0.041545313,0.39947417
1642,A,1472420616525000,-5.3552637,-1.0322535,3.2356715,-0.6135923,-0.053263225,0.22370553
1642,A,1472420636723000,-5.2666483,-0.20118165,1.0705738,-0.92784536,1.7566211,1.2431636
1642,A,1472420656819000,-6.6605496,0.16286133,0.56522465,-0.33662358,1.4104102,0.5773733
1642,A,1472420677010000,-8.169412,0.38080812,-0.4263135,-0.41438788,1.6522251,0.22796659
1642,A,1472420697106000,-8.56459,0.28261232,-0.16765137,0.41971418,1.1185277,0.61572284
1642,A,1472420717300000,-8.933423,-0.18441652,1.1855347,-0.034088463,1.2133362,0.4878911
1642,A,1472420737396000,-9.16095,-0.30177248,1.0801538,-0.27164245,0.99069595,0.61572284
1642,A,1472420757583000,-9.125025,-1.2717555,0.488584,-0.29827404,0.9832391,0.62104917
1642,A,1472420777679000,-9.666299,-2.5818312,1.1352394,-0.026631612,0.26418558,0.19068234
1642,A,1472420797829000,-9.333391,-3.408113,2.0405567,-0.060720075,-0.68389976,-0.0031957934
1642,A,1472420817925000,-9.022039,-3.535049,2.1315675,-0.21198763,-1.6106799,-0.51026165
1642,A,1472420838082000,-9.778865,-2.9889846,0.9316626,-0.23116238,-2.139051,-1.4615428
1642,A,1472420858178000,-10.578802,-2.4980054,0.6777906,-0.70840085,-1.7417074,-1.3006879
1642,A,1472420878386000,-9.405242,-3.0416749,0.65384036,-0.49002165,-1.4849787,-0.81066626
1642,A,1472420898482000,-10.33451,-1.477727,0.13891114,0.13741912,-1.1994878,-0.80107886
1642,A,1472420918674000,-11.567945,-0.26105714,1.0250684,1.1227888,-0.95234644,-0.6412892
1642,A,1472420938770000,-10.049502,0.38320315,-0.31374758,1.0961571,-0.60293967,-0.41758367
1642,A,1472420958961000,-10.380015,1.7962648,0.59156984,0.4857606,0.15765914,-0.128897
1642,A,1472420979057000,-15.701749,2.4165747,0.95561284,0.027696876,0.7861652,0.18109496
1642,A,1472420999269000,-18.353035,3.4775686,0.42870852,-0.12250541,1.284709,0.5539375
1642,A,1472421019365000,-14.08032,3.278782,2.2345533,0.08841695,0.59761333,0.36964676
1642,A,1472421039552000,-11.452984,0.98435307,2.0333717,0.002130529,-0.2428803,-0.42717105
1642,A,1472421059648000,-9.5561285,-0.72569096,0.44547364,-0.00958738,0.12037488,-0.43036684
1642,A,1472421079865000,-7.7550735,-1.8513502,1.9208057,0.24820662,0.36964676,0.08628642
1642,A,1472421099961000,-7.182664,-0.44307864,4.4283915,-0.1470065,0.19920446,0.257794
1642,A,1472421120145000,-7.592212,0.5245093,5.3289185,-0.567786,0.7669904,0.49002165
1642,A,1472421140241000,-6.9551373,-0.009580079,3.8368216,-0.34088463,1.2602079,0.2066613
1642,A,1472421160451000,-6.0354495,-0.74006104,2.6105714,-0.65726817,1.0801781,0.25566345
1642,A,1472421180547000,-5.5684204,-1.2430152,1.4370118,-0.38775626,1.0897655,0.406931
1642,A,1472421200742000,-4.9073954,-1.4992822,0.41194338,-0.38242993,1.1920309,0.20133498
1642,A,1472421220838000,-4.3134303,-1.1807446,0.6442603,-0.6498113,0.9821738,0.20772657
1642,A,1472421241029000,-4.643943,-0.4263135,1.8681153,-0.6221144,1.0460896,0.1555286
1642,A,1472421261125000,-5.4199295,-0.10777588,3.151846,-0.23222765,0.8266452,0.16937704
1642,A,1472421281271000,-6.835386,-0.39517823,4.873865,0.06391586,0.5699165,0.2695119
1642,A,1472421301367000,-8.181387,-1.9711012,5.877378,0.10865697,0.32277513,-0.11717909
1642,A,1472421321561000,-10.540482,-2.4764502,4.2056546,-0.17789917,-0.9054748,-0.74461985
1642,A,1472421341657000,-11.749967,-5.879773,8.473579,-0.27483824,-2.0431771,-0.8159926
1642,A,1472421361854000,-11.153606,-5.719307,6.8521514,-0.20240025,-2.1667478,-0.5837649
1642,A,1472421381950000,-8.358619,-3.297942,6.8904715,0.29188246,-1.4466292,-0.033023197
1642,A,1472421402143000,-7.790999,-0.22513184,6.5240335,0.8085357,-0.406931,0.4261058
1642,A,1472421422239000,-16.568747,0.4406836,3.4248781,1.2772521,0.19707392,0.73822826
1642,A,1472421442479000,-27.272089,3.9637575,-7.965835,0.85327685,0.16298546,1.9494339
1642,A,1472421462575000,-15.294596,6.940767,-1.4825171,-0.50813115,1.8663434,4.480502
1642,A,1472421482807000,-2.6488917,2.7255323,2.5387208,-0.44528055,0.83516735,2.0634172
1642,A,1472421502903000,-0.68976563,2.9458742,-2.9746144,-0.4111921,-0.41758367,0.21411815
1642,A,1472421523097000,-7.0437527,0.21315674,-0.855022,-0.17470337,0.099069595,0.4250405
1642,A,1472421543193000,-12.87802,-1.7627344,1.6381935,0.2908172,-0.3568636,-0.17896444
1642,A,1472421563388000,-15.208375,-2.8380983,0.98435307,0.4314321,-0.8671253,-0.8021441
1642,A,1472421583484000,-11.359578,-3.7625759,-0.2945874,0.75633776,0.8522116,0.0
1642,A,1472421603676000,-7.4820414,-2.3950195,3.415298,0.7520767,2.461826,0.33129725
1642,A,1472421623772000,-6.006709,-1.1879297,3.027305,0.101200126,0.7669904,-0.4048005
1642,A,1472421643961000,-5.0702567,-0.49337405,0.91729254,0.17150758,0.92038846,-0.43036684
1642,A,1472421664057000,-5.8749833,-0.07424561,0.2945874,-0.5273059,-0.71479243,0.13422333
1642,A,1472421684191000,-7.6113725,0.41912845,-0.55324954,-0.4495416,-0.809601,0.6412892
1642,A,1472421704287000,-8.677156,-0.083825685,-0.29698244,0.16724652,1.2857742,0.8319715
1642,A,1472421724469000,-8.57417,-0.7807764,1.1328443,-0.12357068,1.1558119,1.4711303
1642,A,1472421744565000,-8.808882,-0.73527104,1.7818946,-0.49534798,0.5603291,1.9036276
1642,A,1472421764683000,-9.295072,-0.8861573,0.83586186,-0.59761333,0.2609898,1.490305
1642,A,1472421784779000,-9.314231,-1.2310401,1.3771362,1.2410331,-0.46339005,6.107161
1642,A,1472421804971000,-9.539363,-1.961521,0.93405765,2.3883228,0.75420725,4.4251084
1642,A,1472421825067000,-8.933423,-5.4342995,1.0394385,0.79894835,0.28975195,1.8865833
1642,A,1472421845263000,-9.333391,-4.9409256,2.0142114,0.8543421,-0.5273059,0.37603834
1642,A,1472421865359000,-10.617122,-2.7351124,2.0070264,-0.17896444,-2.654639,-3.4099116
1642,A,1472421885550000,-10.95482,-1.9136207,1.5280225,-1.0290455,-3.9574575,-2.867692
1642,A,1472421905646000,-11.328443,-1.8250049,0.364043,-0.9800433,-5.019526,-1.1749867
1642,A,1472421925886000,-12.293635,-1.0801538,0.031135255,-0.96086854,-5.111139,-2.964631
1642,A,1472421945982000,-11.57034,-0.49097902,-0.21555176,2.5832663,-4.8331046,-2.1294637
1642,A,1472421966175000,-9.594449,0.97237796,0.54366946,2.2221417,-4.6498795,-0.4527374
1642,A,1472421986271000,-13.376184,1.8753004,1.0418335,-0.22796659,-3.46424,-1.4029533
1642,A,1472422006464000,-17.826132,2.6704469,-0.050295413,-0.30040458,-1.9409119,-2.6652918
1642,A,1472422026560000,-15.639479,3.5973196,1.2813355,0.7616641,-2.9230857,-1.8876486
1642,A,1472422046756000,-12.14275,2.668052,3.0704153,0.68816084,-2.183792,-1.4306501
1642,A,1472422066852000,-10.3393,0.72569096,1.5208374,1.2346416,-3.3694315,-1.0343717
1642,A,1472422087044000,-7.8029737,-2.1315675,0.87178713,1.1877699,-3.8679752,-0.31638354
1642,A,1472422107140000,-6.6916847,-2.2776637,3.923042,0.036218993,-1.6064188,-1.3859091
1642,A,1472422127333000,-6.7970657,0.43349856,5.1852174,-0.39414784,-1.196292,-1.9995013
1642,A,1472422147429000,-5.8175025,-0.16765137,3.887117,-0.033023197,-3.2501218,-1.3827133
1642,A,1472422167618000,-5.829478,-0.6562354,2.8452833,-0.30466563,-3.0871365,-1.0205233
1642,A,1472422187714000,-6.016289,-0.4981641,1.9399658,-0.36112466,-2.481001,-0.98110855
1642,A,1472422207871000,-5.7648125,-0.728086,1.0538087,-0.2695119,-2.2391858,-1.0705907
1642,A,1472422227967000,-5.103787,-0.9316626,0.7496411,-0.19281286,-1.603223,-0.77125144
1642,A,1472422248164000,-4.533772,-0.9244776,1.341211,-0.015978966,-1.1888351,-0.76592517
1642,A,1472422268260000,-4.512217,-0.5891748,2.4788454,0.04580637,-1.4828482,-0.5592638
1642,A,1472422288452000,-5.247488,-0.49337405,4.629573,0.054328486,-1.442368,-0.29827404
1642,A,1472422308548000,-6.70366,-1.4178516,6.998247,0.28549087,-1.200553,-0.12144015
1642,A,1472422328799000,-10.193204,-1.2861255,5.8055277,0.386691,-1.0705907,0.43356264
1642,A,1472422348895000,-13.677958,-0.9484278,3.8487966,0.28655612,-0.72437984,1.0333065
1642,A,1472422369092000,-12.0182085,-4.5768824,11.00751,0.0063915867,0.4111921,0.7669904
1642,A,1472422389188000,-14.640755,-2.435735,10.097403,0.0031957934,0.066046394,0.33449304
1642,A,1472422409459000,-25.427923,-1.9447559,3.7074904,0.56672066,0.080960095,0.29933932
1642,A,1472422429555000,-20.13493,4.711004,-6.550379,0.6924219,0.6295713,0.020240024
1642,A,1472422449751000,-5.5324955,6.912027,-3.396138,0.03089267,1.0343717,-0.4857606
1642,A,1472422469847000,0.2802173,2.299219,3.4895437,-0.20453078,0.6263755,-0.6412892
1642,A,1472422490038000,-3.3171022,1.0609937,-2.193838,-0.3121225,0.664725,-0.48469532
1642,A,1472422510134000,-8.480764,-0.30177248,-0.4622388,0.1107875,-0.0628506,-0.21518342
1642,A,1472422530329000,-14.784456,-3.163821,1.9663111,0.49002165,-0.47830373,-0.07669904
1642,A,1472422550425000,-14.135406,-3.5494192,0.27303225,0.29294774,-0.084155895,-0.07350325
1642,A,1472422570612000,-9.587264,-1.0130934,0.48379397,0.0,0.098004326,-0.23116238
1642,A,1472422590708000,-6.224656,0.23471193,4.0667434,-0.30999196,0.15020229,-0.33662358
1642,A,1472422610901000,-5.3025737,-0.8765772,1.8800904,-0.21944448,0.49428272,-0.24501082
1642,A,1472422630997000,-5.5372853,-0.7879615,0.6945557,-0.1555286,0.10013486,-0.5028048
1642,A,1472422651175000,-6.715635,0.07664063,1.1855347,-1.087635,0.44101948,-1.0237192
1642,A,1472422671271000,-7.798184,0.55324954,0.5843848,-0.5581986,0.20026971,-0.99495703
1642,A,1472422691449000,-8.655601,-0.27303225,-0.06945557,0.094808534,-0.5294364,-0.9150622
1642,A,1472422711545000,-8.832832,-0.87897223,0.78556645,-0.17470337,0.11930962,-0.8021441
1642,A,1472422731738000,-8.617281,-0.12933107,1.2813355,0.04474111,-0.30466563,-0.5954828
1642,A,1472422751834000,-9.060359,-0.12933107,0.95561284,-0.068176925,-0.3834952,-0.6114618
1642,A,1472422772028000,-9.707015,-1.7603394,1.4370118,0.12037488,-0.53795856,-0.35260254
1642,A,1472422792124000,-9.371712,-3.2404616,1.7172291,0.20985709,-0.3898868,-0.26631612
1642,A,1472422812316000,-9.575289,-3.1901662,1.5974782,0.16405073,-0.35899413,-0.10439592
1642,A,1472422832412000,-10.950029,-2.2369483,1.5352076,0.5006743,-0.6743124,0.04580637
1642,A,1472422852636000,-10.042317,-3.5757644,1.4944923,0.567786,-0.8181231,0.15765914
1642,A,1472422872732000,-9.268726,-3.0009596,0.22513184,0.58696073,-0.26631612,0.20133498
1642,A,1472422892924000,-10.643467,-1.6334034,0.37601808,-0.15233281,0.099069595,0.14274544
1642,A,1472422913020000,-11.043435,-1.4154567,0.8909473,-0.45486793,0.28336033,0.09374327
1642,A,1472422933214000,-8.681946,0.3065625,0.5412744,0.26738137,-0.4079963,0.12037488
1642,A,1472422953310000,-12.485237,1.6669337,1.4489869,0.38562572,-0.5581986,0.026631612
1642,A,1472422973519000,-18.858385,2.6297317,-0.27542725,0.011717909,0.28016454,-0.023435818
1642,A,1472422993615000,-17.833317,3.7529957,0.7089258,-0.22796659,0.8628642,-0.25033715
1642,A,1472423013775000,-13.567786,2.1722827,2.5890162,-0.1736381,1.1249193,-0.68389976
1642,A,1472423033903000,-11.656561,-0.32093263,2.3806496,-0.13635385,2.0154803,-0.84155893
1642,A,1472423054063000,-8.962164,-2.1411476,0.7927515,-0.7052051,3.4855454,-0.81066626
1642,A,1472423074240000,-7.067703,-1.3148658,3.8320315,-1.6650083,3.987285,-0.9193232
1642,A,1472423094363000,-7.189849,0.06466553,5.48699,-1.655421,0.165116,-0.9331717
1642,A,1472423114459000,-6.502478,0.038320314,4.392466,-0.22050974,-0.24607609,-0.608266
1642,A,1472423134652000,-5.9468336,-0.488584,3.0177248,-0.18535602,-0.60507023,-0.8202536
1642,A,1472423154748000,-5.8031325,-0.8382569,1.8226099,-0.11504856,-2.549178,-0.92038846
1642,A,1472423174922000,-5.3145485,-0.8334668,0.50534916,-0.80533993,0.060720075,-1.1590078
1642,A,1472423195018000,-4.5864625,-1.1999048,-0.17962648,-0.5368933,1.325189,-0.9310411
1642,A,1472423215197000,-4.148174,-1.0011182,0.39996827,1.1707256,-0.44315,-0.63702816
1642,A,1472423235293000,-4.406836,-0.28979737,2.2129982,1.3827133,-1.619202,-0.6327671
1642,A,1472423255484000,-5.0894165,-0.20597169,3.9206471,0.5475459,-1.4359765,-0.72437984
1642,A,1472423275580000,-6.13604,-1.463357,6.1599903,0.50813115,-1.0375676,-0.3291667
1642,A,1472423295772000,-8.356223,-2.8357031,6.72761,0.5422196,-0.5251754,-0.20985709
1642,A,1472423315868000,-11.951148,-2.304009,1.2430152,0.7137272,-0.29188246,-0.21198763
1642,A,1472423336074000,-12.027788,-3.3099172,8.372989,1.0034791,-0.5219796,-0.18322548
1642,A,1472423356170000,-10.451866,-3.784131,11.716436,1.216532,-1.2612731,-0.23648871
1642,A,1472423376368000,-15.26825,-1.3699512,7.1132083,1.7054884,-0.9821738,-0.18216023
1642,A,1472423396464000,-26.24702,-0.4766089,-0.081430666,1.4913702,-0.5901565,0.026631612
1642,A,1472423416659000,-19.617605,7.31918,-8.020921,0.92464954,-0.12783173,-0.09161274
1642,A,1472423436755000,-4.608018,5.688172,1.7651294,0.26844665,-0.46019423,-0.15765914
1642,A,1472423456949000,0.22273682,2.5027955,-0.47181886,-1.1685951,-2.3499734,-0.23116238
1642,A,1472423477045000,-4.157754,1.4825171,-2.5842261,-0.5858955,-1.816276,0.39840892
1642,A,1472423497239000,-11.323653,-1.477727,1.4441968,0.6849651,0.23542345,0.62104917
1642,A,1472423517335000,-15.368841,-3.803291,2.2489235,-0.4527374,0.026631612,0.040480047
1642,A,1472423537529000,-12.822935,-4.0906935,-0.13891114,-0.7350325,0.4889564,0.101200126
1642,A,1472423557625000,-8.193362,-1.5328126,2.1531227,-0.39734364,1.0791129,0.2609898
1642,A,1472423577800000,-5.815108,-0.47900394,3.8104763,-0.0010652645,0.7765778,0.04474111
1642,A,1472423597896000,-5.0343313,-0.38080812,1.3483961,-0.002130529,0.36964676,-0.30466563
1642,A,1472423618070000,-5.807923,0.25387207,0.58677983,-0.082025364,0.26312032,-0.3174488
1642,A,1472423638166000,-7.0413575,0.66342044,0.29937744,0.15446335,0.19281286,-0.31957933
1642,A,1472423658343000,-8.210127,0.26345217,-0.613125,0.32810146,0.20985709,-0.29614353
1642,A,1472423678439000,-8.868757,-0.57719976,0.19160157,0.30466563,-0.094808534,-0.28655612
1642,A,1472423698631000,-8.832832,-0.12454102,1.5016773,0.10333065,-0.05006743,-0.45486793
1642,A,1472423718727000,-9.1130495,0.57001466,0.9268726,-0.5699165,0.5123922,-0.24607609
1642,A,1472423738942000,-9.769285,-0.8765772,0.51971924,-0.71798825,0.24501082,0.15446335
1642,A,1472423759038000,-10.011182,-2.9099488,1.707649,-0.027696876,-0.34514567,0.12783173
1642,A,1472423779237000,-9.750125,-2.6129665,2.5075855,0.16618125,-0.3291667,-0.21944448
1642,A,1472423799333000,-9.841136,-4.009263,2.5315359,0.068176925,-0.11504856,-0.24607609
1642,A,1472423819539000,-9.1849,-6.825806,1.4801221,0.1917476,0.17576863,-0.020240024
1642,A,1472423839635000,-9.690249,-3.0752053,1.3867164,0.6412892,-0.3355583,-0.023435818
1642,A,1472423859841000,-11.232642,-1.6789087,0.17962648,0.5581986,-0.660464,-0.18961707
1642,A,1472423879937000,-12.497212,-1.6310084,0.13172609,0.28016454,-0.07456851,-0.16724652
1642,A,1472423900131000,-10.985955,0.43349856,0.2203418,0.10013486,0.28442562,0.096939065
1642,A,1472423920227000,-10.93087,1.7579445,0.7185059,-0.08948222,0.34088463,0.39521313
1642,A,1472423940420000,-15.708934,2.804568,-0.0023950196,-0.5049353,0.44528055,0.42077947
1642,A,1472423960516000,-17.490828,3.4368532,0.1101709,-0.90973586,0.83516735,0.1107875
1642,A,1472423980714000,-14.104271,3.04407,1.22625,-1.4604776,1.406149,0.21198763
1642,A,1472424000810000,-11.326048,1.1352394,1.8369801,-1.4157364,0.17257284,0.19920446
1642,A,1472424020992000,-9.026829,-1.453777,1.8202149,0.68816084,-0.6945524,-0.05219796
1642,A,1472424041088000,-7.8556643,-2.0118165,1.8537452,0.55287224,-0.3717773,0.060720075
1642,A,1472424061275000,-7.2569094,-0.100590825,3.7242556,-0.013848438,-1.0056096,0.3898868
1642,A,1472424081371000,-7.2353544,0.8646021,4.8091993,0.21518342,-0.6402239,0.49002165
1642,A,1472424101548000,-6.3851223,0.07664063,3.3937428,-0.12463594,0.25885928,0.14487597
1642,A,1472424121644000,-5.704937,-0.54366946,2.088457,-0.043675844,-0.05965481,0.043675844
1642,A,1472424141837000,-5.8270826,-0.67539555,1.1975098,-0.31957933,0.025566347,0.16618125
1642,A,1472424161933000,-5.465435,-0.85023195,0.34727785,-0.26418558,0.5336975,0.15446335
1642,A,1472424182127000,-4.790039,-0.8286768,0.29698244,-0.06924219,0.2759035,0.010652645
1642,A,1472424202223000,-4.4595265,-0.6849756,1.7435743,0.0628506,0.37816888,0.13741912
1642,A,1472424222430000,-4.744534,-0.852627,3.412903,0.1257012,0.17896444,0.09054748
1642,A,1472424242526000,-5.6738014,-1.575923,5.0894165,-0.6199839,0.1555286,-0.3057309
1642,A,1472424262738000,-7.4844365,-2.7231374,6.375542,-0.7318367,0.6956177,-0.35579833
1642,A,1472424282834000,-11.009905,-2.4812403,6.4018874,0.39414784,-0.0777643,-0.32384038
1642,A,1472424303041000,-13.457615,-0.86220706,-0.1341211,0.06178534,-0.0063915867,-0.05752428
1642,A,1472424323137000,-10.217154,-4.5696974,10.660233,-0.10333065,0.19707392,0.015978966
1642,A,1472424343330000,-8.749006,-3.7410207,10.756033,0.18961707,0.28016454,-0.15126756
1642,A,1472424363426000,-11.179952,-1.7220191,6.212681,0.15233281,0.52624065,-0.36218992
1642,A,1472424383616000,-19.888243,-0.7783814,1.5639478,0.5635249,0.1438107,-0.55287224
1642,A,1472424403712000,-26.457783,6.5288234,-8.6627865,0.757403,-0.4314321,-0.3898868
1642,A,1472424423904000,-10.890154,6.4066777,-0.47900394,-0.40373522,-0.314253,-0.13741912
1642,A,1472424444000000,-1.3148658,2.1028273,0.974773,-0.55606806,0.2727077,-0.03834952
1642,A,1472424464197000,-1.3867164,0.98435307,-2.6057813,0.3174488,0.8223842,-0.07989483
1642,A,1472424484293000,-7.460486,-0.9699829,0.2203418,0.9033443,0.5454154,-0.1736381
1642,A,1472424504449000,-11.9128275,-1.9998415,2.083667,-0.71159667,0.7957525,-0.479369
1642,A,1472424524545000,-14.528189,-1.8824854,0.38080812,-2.5204158,2.118811,0.47830373
1642,A,1472424544731000,-11.187137,-2.088457,-0.15567628,-0.9864349,4.3686495,1.0407634
1642,A,1472424564827000,-7.1227884,-1.5735279,3.4631984,-1.2016183,8.53916,0.96939063
1642,A,1472424584985000,-6.09772,-1.099314,2.2632935,-2.787797,4.450675,0.1438107
1642,A,1472424605081000,-5.738467,0.035925295,0.5556446,-1.1707256,0.39095205,-0.90973586
1642,A,1472424625273000,-6.583909,0.61073,0.045505375,-0.69987875,3.1318774,-0.6221144
1642,A,1472424645369000,-8.291558,0.61073,-0.1341211,-1.055677,4.829909,-0.97258645
1642,A,1472424665582000,-9.15616,-0.36883304,0.33290774,-0.5400891,4.4485445,-0.90014845
1642,A,1472424685678000,-8.830438,-0.58677983,1.6022681,0.44101948,1.3432984,2.3691483
1642,A,1472424705868000,-8.713081,-0.4023633,1.1496094,0.28655612,1.2229236,4.065049
1642,A,1472424725964000,-9.12263,-1.4849122,0.79035646,-0.67537767,2.1816616,2.83893
1642,A,1472424746173000,-9.798025,-2.5243506,1.8274,-2.3222766,3.3971283,0.6775082
1642,A,1472424766269000,-9.613608,-2.5914114,2.0261867,-0.21731395,3.7124467,0.40373522
1642,A,1472424786458000,-9.388477,-5.384004,1.5040723,1.2410331,1.7939054,0.00958738
1642,A,1472424806554000,-10.0063925,-3.8775368,1.6022681,-0.19813919,1.1675298,-0.3291667
1642,A,1472424826746000,-10.753638,-1.6573536,1.1951149,-0.5901565,1.474326,-0.5592638
1642,A,1472424846842000,-11.048225,-2.0118165,-0.28500733,0.0958738,1.9078887,-0.61891866
1642,A,1472424867036000,-12.549903,-1.4729371,-0.5388794,-0.17896444,1.9494339,-0.63915867
1642,A,1472424887132000,-11.196717,-0.009580079,-0.14849122,-1.8919097,1.5052186,-0.21411815
1642,A,1472424907325000,-10.0063925,1.3867164,0.009580079,-2.847452,1.7939054,-0.5134575
1642,A,1472424927421000,-14.451549,2.5004005,1.343606,-2.9561088,1.8386464,-0.82344943
1642,A,1472424947614000,-18.547031,3.2069314,1.331631,-2.8229508,3.125486,-0.43675843
1642,A,1472424967710000,-15.122154,3.786526,0.6849756,-1.8439728,2.0879183,-0.43249738
1642,A,1472424987881000,-10.720108,1.5998731,1.7651294,-4.9247174,0.42290998,-1.4572818
1642,A,1472425007977000,-9.21364,-1.5519727,1.453777,-3.3055155,0.85966843,-0.99708754
1642,A,1472425028154000,-7.7526784,-2.6656568,0.74724615,-1.8013622,0.8767126,0.018109497
1642,A,1472425048250000,-6.564749,-0.45026368,3.3626075,-1.135572,0.31851408,0.40906155
1642,A,1472425068430000,-6.686895,1.1208692,4.988826,-0.29188246,0.2247708,0.7105314
1642,A,1472425088526000,-5.6570363,0.7065308,3.4536183,-0.79042625,0.20240025,1.4072144
1642,A,1472425108720000,-5.096602,0.023950197,2.6441016,-2.2540996,0.11717909,1.2729911
1642,A,1472425128816000,-5.223538,-0.5556446,1.5807129,-2.1880531,0.20879184,0.8905611
1642,A,1472425149045000,-5.2283278,-0.8909473,0.8047266,-1.0769824,0.51452273,0.753142
1642,A,1472425169141000,-5.127737,-0.8981324,0.9508228,-0.21944448,0.13102753,0.2790993
1642,A,1472425189342000,-5.3169436,-0.90052736,1.949546,0.5187838,-0.3153183,0.47617322
1642,A,1472425209438000,-5.6618266,-1.1711646,3.4440382,0.67324716,-0.83516735,1.2506205
1642,A,1472425229662000,-6.2941117,-1.8561403,5.9013286,0.70200926,-0.67537767,1.3486248
1642,A,1472425249758000,-8.749006,-2.6967921,6.912027,0.7190535,-0.86499476,1.5414376
1642,A,1472425269949000,-12.20981,-2.548301,4.9073954,1.3358417,-0.6924219,1.3219932
1642,A,1472425290045000,-12.240946,-3.0009596,2.8404932,2.3158848,-0.36325517,1.2516857
1642,A,1472425310239000,-9.80521,-5.0510964,12.058924,2.6802053,0.60293967,1.784318
1642,A,1472425330335000,-7.223379,-3.1398706,7.9347,0.6135923,0.83942837,0.5933523
1642,A,1472425350530000,-10.516531,-0.78556645,4.4547367,-0.83942837,0.94808537,0.8202536
1642,A,1472425370626000,-23.04967,1.7411792,-3.1614258,-0.11717909,0.5933523,1.7491642
1642,A,1472425390822000,-24.886648,6.967112,-6.7970657,-0.09161274,0.49747851,1.8002969
1642,A,1472425410918000,-8.947793,4.591253,2.7973828,-0.0053263223,0.79894835,0.5816344
1642,A,1472425431068000,0.1939966,3.558999,-0.51732427,-0.13102753,0.535828,-0.011717909
1642,A,1472425451164000,-1.9854712,0.8861573,-1.961521,-0.8447547,0.37923414,-0.51771855
1642,A,1472425471328000,-8.677156,-1.6669337,0.86220706,-0.850081,0.6146576,-0.34088463
1642,A,1472425491424000,-13.859979,-2.088457,2.555486,-0.85540736,1.2069446,0.28122982
1642,A,1472425511618000,-14.846726,-3.8056862,-0.48379397,-1.4828482,0.6135923,-0.025566347
1642,A,1472425531714000,-10.267449,-2.7854078,1.214275,-1.6373115,0.25246766,-0.07350325
1642,A,1472425551904000,-6.7324004,-1.5423926,4.2990603,-2.0271983,-0.24074976,0.26312032
1642,A,1472425572000000,-5.249883,-1.4226416,2.0621119,-2.593919,-0.25033715,-0.6221144
1642,A,1472425592196000,-5.113367,-0.6179151,0.7041358,-0.5049353,-1.4157364,-0.28655612
1642,A,1472425612292000,-6.461763,0.39278322,0.24189699,-0.3089267,-1.7811222,0.737163
1642,A,1472425632501000,-8.51669,0.9388477,-0.07903565,-0.9044095,-1.2037488,-0.23116238
1642,A,1472425652597000,-9.503438,-0.059875492,0.5556446,-1.1313108,-1.417867,-1.0205233
1642,A,1472425672810000,-9.237591,-0.8334668,1.7699195,-1.0940266,-0.88203895,-1.107875
1642,A,1472425692906000,-8.653206,-1.1759547,1.8489552,-1.3283848,-1.2559468,-0.85540736
1642,A,1472425713111000,-8.023315,-2.1698878,1.8896705,-0.2790993,-1.4626081,-0.16937704
1642,A,1472425733207000,-8.042476,-3.5134938,1.9639161,0.47723848,-0.73290193,-0.20133498
1642,A,1472425753400000,-9.050779,-3.1063404,1.7914747,0.4048005,-0.809601,-0.48043427
1642,A,1472425773496000,-10.308165,-2.818938,1.2502003,0.88843054,-0.7499462,-1.0727214
1642,A,1472425793688000,-10.241104,-2.7135572,0.29698244,1.2016183,-0.7105314,-0.47404268
1642,A,1472425813784000,-10.868599,-2.0453467,-0.66342044,1.1824435,-0.058589544,0.2695119
1642,A,1472425833976000,-13.146263,-0.8861573,0.6682105,0.63383234,1.2879047,-0.02130529
1642,A,1472425854072000,-11.194322,1.1472144,1.1160791,0.88203895,0.7755125,-0.56245965
1642,A,1472425874267000,-11.134446,2.6441016,0.5939649,0.08735169,0.85966843,-0.39840892
1642,A,1472425894363000,-15.689774,3.1159205,-0.2921924,-0.32490566,0.2034655,-0.20985709
1642,A,1472425914516000,-16.173567,2.7327175,0.4622388,1.1195929,0.3057309,-0.1470065
1642,A,1472425934612000,-13.002562,2.2345533,1.9830762,0.74035877,0.5795039,0.27057716
1642,A,1472425954785000,-11.266172,0.09101075,3.3769777,-0.2790993,0.18535602,0.5475459
1642,A,1472425974881000,-9.980047,-2.692002,2.1698878,-0.8000136,0.018109497,0.58269966
1642,A,1472425995058000,-8.363408,-3.3506324,2.2656887,-0.28122982,-0.60507023,0.44421527
1642,A,1472426015154000,-7.8580594,-1.3220508,4.87626,0.47510794,-0.7819041,-0.6327671
1642,A,1472426035346000,-7.1299734,-0.51732427,4.184099,-2.1177456,-0.34940675,-0.05965481
1642,A,1472426055442000,-6.4426026,-0.50774413,2.6896071,-4.818191,0.22050974,1.4008228
1642,A,1472426075681000,-6.2749515,-0.059875492,2.193838,-1.8386464,1.1089402,0.29188246
1642,A,1472426095777000,-5.9635987,-0.05269043,1.0538087,-0.8117315,-1.1408982,-0.34621096
1642,A,1472426115996000,-5.4295096,-0.6849756,0.2203418,-0.7318367,-1.1057445,0.04474111
1642,A,1472426136092000,-4.9073954,-1.0394385,0.8214917,-0.5486112,-0.5496765,0.12250541
1642,A,1472426156285000,-4.6104126,-1.0562036,2.2585034,-0.18216023,-1.1387677,0.06391586
1642,A,1472426176381000,-4.799619,-0.974773,3.415298,-0.51771855,0.1949434,1.0897655
1642,A,1472426196587000,-5.5684204,-1.0346485,5.134922,0.59867865,0.3834952,1.506284
1642,A,1472426216683000,-7.1635036,-1.1999048,6.466553,1.135572,-0.6423545,1.7939054
1642,A,1472426236843000,-11.074571,-0.9580079,5.2810183,0.6135923,-0.094808534,1.3560816
1642,A,1472426256971000,-13.922249,-1.2502003,3.5853443,0.52624065,1.3986923,0.958738
1642,A,1472426277131000,-9.903406,-2.565066,10.607542,0.9896307,0.5933523,0.71798825
1642,A,1472426297201000,-10.454261,-1.477727,8.964559,1.28897,0.49960902,0.3057309
1642,A,1472426317328000,-20.293001,-0.7592212,2.5339308,1.6724652,-0.040480047,0.16937704
1642,A,1472426337424000,-25.751251,5.4534597,-8.598121,1.8535602,0.22796659,-0.23116238
1642,A,1472426357591000,-9.678274,4.7397437,-0.49337405,0.93849796,0.75633776,-0.5251754
1642,A,1472426377687000,0.0047900393,1.6046631,1.3986914,0.83729786,0.4612595,-0.4079963
1642,A,1472426397867000,-0.15567628,0.7065308,-3.8392165,0.716923,0.1107875,0.23435818
1642,A,1472426417963000,-7.414981,-1.9734962,0.44547364,0.7307714,0.43995422,0.5933523
1642,A,1472426438152000,-14.741345,-2.9674294,4.2032595,0.535828,0.6327671,0.24181503
1642,A,1472426458248000,-15.608343,-3.2548318,0.37362307,-0.25246766,0.5954828,-0.07243799
1642,A,1472426478441000,-10.631493,-3.1231055,1.1735597,-1.3198626,0.36751625,-0.6348976
1642,A,1472426498537000,-6.4976883,-2.3806496,3.3793726,-2.5672874,0.18109496,-1.4040185
