Subject-Id,Activity Label,Time stamp,Accel_x,Accel_y,Accel_z,Gyro_x,Gyro_y,Gyro_z
1606,A,124124350384034,-7.4343567,-2.2369843,-0.2402649,0.2584381,0.52775574,-0.54766846
1606,A,124124400738038,-7.815628,-3.2985382,-2.0258636,1.4634857,-0.714386,0.2625885
1606,A,124124451092041,-7.0937347,-4.407181,-2.4433289,0.7216644,-0.76701355,-0.5072937
1606,A,124124501446045,-7.847519,-4.341339,-3.4398193,-0.04890442,-0.10050964,-0.2609558
1606,A,124124551800049,-8.971329,-5.433899,-4.1081085,0.012817383,0.38494873,0.16960144
1606,A,124124602154053,-10.374817,-4.272995,-1.4166412,-0.25474548,-0.45307922,0.5509033
1606,A,124124652508057,-12.705826,0.20428467,3.0796204,-0.7331543,-1.0358429,0.59103394
1606,A,124124702862061,-16.849136,-0.9175873,-0.48526,-1.3408203,0.2758026,0.053726196
1606,A,124124753216065,-12.777863,-9.022003,0.2795868,-1.6785583,-0.31341553,-0.61091614
1606,A,124124803570069,-4.5561066,-2.6024933,-2.343155,-1.0331421,-0.8517456,0.56604004
1606,A,124124853924073,-3.5243378,-1.9725189,-4.3840485,-0.42538452,0.02458191,0.15122986
1606,A,124124904278077,-7.364563,-3.818573,-0.49461365,1.5709381,-0.7918701,1.8014679
1606,A,124124954632081,-8.06543,-2.5214996,-1.6109009,0.010299683,0.6609955,-0.34729004
1606,A,124125004986084,-6.830017,-3.7061768,-3.4970093,-0.6884613,-0.74346924,-0.5870819
1606,A,124125055340088,-13.578842,-4.077835,-3.9044037,0.16548157,-0.0099487305,0.055923462
1606,A,124125105694092,-12.108124,-0.96281433,-1.7702637,0.48417664,0.16975403,-0.54039
1606,A,124125156048096,-16.013596,0.46002197,5.613846,0.15870667,-0.0957489,-1.0638123
1606,A,124125206402100,-10.497391,-6.9694366,2.9832153,0.55140686,-0.22483826,-0.012954712
1606,A,124125256756104,-7.5503693,-5.4778137,-1.8062439,0.37976074,0.46331787,0.110458374
1606,A,124125307110108,-9.96138,2.0772705,2.368103,0.625412,0.5276947,-0.3383484
1606,A,124125357464112,-6.6311035,0.3175354,0.7227936,0.8556061,0.79104614,-0.49954224
1606,A,124125407818116,-6.462387,-6.7578583,-1.3815308,0.7128601,0.79045105,-0.07450867
1606,A,124125458172120,-7.819275,-4.054077,0.33662415,0.8735962,-0.39065552,0.3063507
1606,A,124125508526124,-10.766205,-1.7228699,-1.2312622,0.39686584,-0.14370728,-0.8468323
1606,A,124125558880127,-9.394806,-2.972824,-1.1214752,0.08457947,0.728714,0.44404602
1606,A,124125609234131,-9.365967,-7.8320465,-2.0630493,0.496109,0.15106201,0.35691833
1606,A,124125659588135,-10.4879,-5.1300354,-1.024765,-0.15336609,-0.24024963,-0.0021209717
1606,A,124125709942139,-8.567337,-1.0473785,4.1077423,-0.47042847,-0.30358887,0.26638794
1606,A,124125760296143,-15.425262,-1.22966,-0.17097473,-0.42588806,0.21881104,-0.20480347
1606,A,124125810650147,-9.932816,-5.3012085,0.29071045,-0.7704468,0.2793579,-0.4223938
1606,A,124125861004151,-3.3360138,-2.799347,-1.4350586,-0.8679657,-0.39840698,-0.08731079
1606,A,124125911358155,-6.7776794,-2.3449554,-2.4890747,-0.6992645,0.07185364,0.04815674
1606,A,124125961712159,-10.154282,-2.5768433,-0.99620056,-0.08015442,0.34074402,-0.027633667
1606,A,124126012066163,-9.171661,-3.6412354,-1.352951,0.7935028,-0.22799683,0.62501526
1606,A,124126062420166,-7.4760284,-4.300812,-3.5658112,0.2670288,0.471344,0.1278534
1606,A,124126112774170,-9.246536,-4.28096,-3.025467,0.31152344,0.31748962,-0.4290161
1606,A,124126163128174,-11.942947,-2.056717,-2.7347107,1.4432678,0.3566742,-0.08479309
1606,A,124126213482178,-10.411484,-1.6505585,-0.32528687,1.2452698,0.43907166,0.03050232
1606,A,124126263836182,-12.601517,-2.0793457,4.997757,1.0602875,0.16123962,0.13822937
1606,A,124126314190186,-10.465073,-5.74469,-0.0965271,1.0988922,0.33654785,0.37252808
1606,A,124126364544190,-9.84874,-1.9830017,-0.7975769,0.83226013,0.56347656,0.30718994
1606,A,124126414898194,-7.581375,-1.4076996,0.9832001,0.37434387,0.25946045,-0.17645264
1606,A,124126465252198,-5.9062195,-3.420456,-0.99372864,0.2604065,0.08760071,-0.19963074
1606,A,124126515606202,-6.966751,-3.9848785,-2.0076447,0.8654785,-0.2661438,-0.43051147
1606,A,124126565960206,-8.687683,-3.5973358,-1.8775024,0.401474,-0.2743225,-0.811676
1606,A,124126616314209,-8.877274,-4.293274,-2.378067,-0.1566925,0.17454529,0.19651794
1606,A,124126666668213,-8.006836,-6.23291,-3.7167664,0.026809692,-0.091415405,0.4211731
1606,A,124126717022217,-9.604279,-5.169632,-0.99305725,-0.5262451,-0.6137848,0.19515991
1606,A,124126767376221,-13.837296,-0.23094177,1.7037201,-0.7324066,-0.51275635,0.33450317
1606,A,124126817730225,-14.26532,-2.1920013,-0.2170105,-0.5912018,0.08782959,-0.05883789
1606,A,124126868084229,-8.084778,-5.9341736,-0.96661377,-0.62757874,-0.3892517,-0.302063
1606,A,124126918438233,-4.11467,-2.605667,-2.2003021,-0.8772583,-0.15548706,0.036102295
1606,A,124126968792237,-7.317642,-2.0623932,-2.430893,-0.2238617,-0.04472351,0.5509491
1606,A,124127019146241,-9.827377,-2.8756714,-1.3887177,0.28016663,0.38975525,0.63197327
1606,A,124127069500245,-7.678726,-2.301422,-2.7410583,0.015777588,-0.05366516,0.1272583
1606,A,124127119854249,-7.9700775,-4.431473,-3.4073792,0.20805359,-0.2941742,-0.10748291
1606,A,124127170208252,-12.300369,-4.7217255,-3.050827,0.501297,0.22923279,-0.1695404
1606,A,124127220562256,-15.914825,-0.88946533,1.4900665,0.78414917,0.009796143,-0.4028473
1606,A,124127270916260,-11.430618,-2.0475311,3.7259064,0.9136658,-0.3090973,0.03227234
1606,A,124127321270264,-9.476059,-5.894806,0.41186523,0.3673401,0.4194336,0.25271606
1606,A,124127371624268,-9.59314,-2.115921,0.28730774,0.5632477,0.49769592,0.16934204
1606,A,124127421978272,-5.75531,1.2023315,0.46736145,0.6160126,0.5343628,-0.28207397
1606,A,124127472332276,-4.7692566,-3.4006805,-0.70887756,0.4355011,0.5188751,-0.2999115
1606,A,124127522686280,-8.672272,-6.225296,-0.9483185,0.8205261,-0.6612854,0.16305542
1606,A,124127573040284,-10.1970215,-3.532196,-1.7748566,-0.08644104,-0.13485718,-0.7355957
1606,A,124127623394288,-9.743088,-2.622223,-1.8173218,-0.15298462,0.5069885,-0.043655396
1606,A,124127673748291,-9.134018,-6.3103027,-3.299652,-0.14154053,0.1807251,0.217453
1606,A,124127724102295,-9.875488,-6.4547424,-0.5684509,-0.82940674,-0.23405457,-5.645752E-4
1606,A,124127774456299,-12.369507,-0.18815613,5.643982,-0.6243439,-0.96043396,0.22589111
1606,A,124127824810303,-14.960999,-0.61279297,0.39237976,-0.4784851,0.117111206,0.081344604
1606,A,124127875164307,-9.394913,-7.9526367,0.50923157,-0.4413147,0.2610016,-0.37545776
1606,A,124127925518311,-4.070175,-2.563507,-1.5621948,-0.6551666,-0.14837646,-0.008682251
1606,A,124127975872315,-5.2896576,-0.58740234,-2.2529907,-0.99142456,0.72229004,-0.1513977
1606,A,124128026226319,-8.890945,-2.774292,-0.27320862,0.4396057,-0.79849243,0.7062378
1606,A,124128076580323,-10.401276,-2.4349365,-1.634552,0.21009827,0.6739044,0.72584534
1606,A,124128126934327,-8.867355,-3.8982239,-3.7142792,-0.21110535,-0.1783905,-0.98805237
1606,A,124128177288331,-10.565277,-6.302307,-3.8706207,0.23588562,0.016311646,-0.20321655
1606,A,124128227642334,-10.247864,-3.5487976,-4.3463745,0.45510864,0.20202637,-0.020721436
1606,A,124128277996338,-16.328537,0.5016022,6.3441772,0.6124573,-0.4050598,-0.34587097
1606,A,124128328350342,-8.690765,-3.7702942,3.0543518,0.31121826,-0.16157532,0.10630798
1606,A,124128378704346,-10.936005,-5.3599243,-1.761673,0.22235107,0.22445679,0.266922
1606,A,124128429058350,-8.202301,-0.4485016,-0.5366516,0.806839,0.25653076,0.02104187
1606,A,124128479412354,-3.3692627,-1.4480438,0.7487335,0.3655243,0.8243561,-0.22491455
1606,A,124128529766358,-8.005905,-6.2441406,-1.5906067,0.23558044,-0.16723633,0.04386902
1606,A,124128580120362,-10.080261,-3.6689758,-1.7255249,0.3309021,-0.60639954,-0.25527954
1606,A,124128630474366,-8.843994,-2.2582245,-1.8260498,0.020935059,0.21607971,-0.20521545
1606,A,124128680828370,-10.312317,-4.3883667,-1.3935242,0.23683167,0.14091492,0.12187195
1606,A,124128731182374,-9.185516,-7.5961304,-3.6304169,-0.38121033,0.10723877,0.28022766
1606,A,124128781516168,-9.675964,-4.6417084,-1.0123596,-0.76582336,0.024887085,0.14309692
1606,A,124128831870172,-11.464386,-0.93855286,4.5850525,-0.31037903,-0.06599426,-0.05609131
1606,A,124128882224176,-12.689758,-1.520935,-0.4591217,-0.5394745,0.13331604,-0.31811523
1606,A,124128932578180,-9.308273,-7.0199738,-0.9849396,-0.78009033,-0.13534546,-0.2725525
1606,A,124128982932184,-5.6132813,-3.8872986,-1.2289124,-0.768219,-0.5538025,0.2020874
1606,A,124129033286188,-6.0872955,-0.092559814,-1.1589508,-0.7722626,0.03312683,0.14045715
1606,A,124129083640192,-7.4885406,-2.283661,-2.208786,-0.1729126,-0.094573975,0.74642944
1606,A,124129133994196,-7.7819977,-3.9997406,-2.4361267,0.19909668,-0.13452148,1.2525177
1606,A,124129184348200,-6.762726,-3.8198547,-2.6826782,-0.41964722,0.26391602,-0.46905518
1606,A,124129234702204,-9.401306,-2.9947968,-3.495636,0.4312744,-0.4369812,-0.23405457
1606,A,124129285056207,-11.909439,-3.3167267,-4.188507,0.83432007,0.13653564,0.173172
1606,A,124129335410211,-12.743866,-4.8069916,0.3663025,0.5773926,0.14329529,-0.072784424
1606,A,124129385764215,-14.232162,-5.077362,4.9715424,0.62809753,0.03819275,0.10418701
1606,A,124129436118219,-8.252914,-3.7397156,0.18992615,0.816391,0.22016907,0.38908386
1606,A,124129486472223,-9.094009,-1.4163971,-0.18096924,0.67871094,0.47229004,-0.025024414
1606,A,124129536826227,-7.0229797,-1.8733215,0.79499817,0.5467377,0.026672363,-0.47531128
1606,A,124129587180231,-6.4430847,-4.004898,-2.0928497,0.3056488,-0.40075684,-0.52375793
1606,A,124129637534235,-7.361603,-2.2316437,-2.4191284,0.16810608,-0.10202026,-0.5149994
1606,A,124129687888239,-9.0589905,-1.9860687,-1.5549011,0.46881104,-0.051651,-0.31599426
1606,A,124129738242243,-8.943054,-5.0733795,-0.2979889,-0.21031189,-0.4232788,-0.11004639
1606,A,124129788596247,-9.91481,-3.3020935,1.0617828,-1.111023,-0.2665863,-0.024108887
1606,A,124129838950250,-13.691437,-1.4932556,0.22105408,-0.894104,-0.10449219,-0.075424194
1606,A,124129889304254,-11.495728,-3.5709686,-0.67263794,-0.4029541,-0.15652466,-0.2243042
1606,A,124129939658258,-7.39946,-5.023926,-1.6568146,0.013366699,0.24502563,0.14067078
1606,A,124129990012262,-7.928833,-5.3987427,-2.4215393,0.21524048,0.16426086,0.74757385
1606,A,124130040366266,-7.005829,-3.8875427,-2.4800415,-0.329422,-0.33813477,0.7696533
1606,A,124130090720270,-5.6829224,-1.5816193,-2.6026917,-0.9656372,0.1134491,0.13258362
1606,A,124130141074274,-8.073761,-1.3137817,-2.477417,0.38720703,-0.29084778,0.041397095
1606,A,124130191428278,-9.865967,-2.3102722,-1.4969788,0.5691986,-0.17437744,-0.13217163
1606,A,124130241782282,-10.706741,-4.0242157,3.4360046,0.32418823,0.16033936,-2.89917E-4
1606,A,124130292136286,-13.373627,-6.8352356,2.5448456,0.21983337,0.5499573,-0.13548279
1606,A,124130342490290,-10.968414,-2.8301697,-0.95454407,0.161026,0.64671326,-0.033416748
1606,A,124130392844293,-9.1719055,0.75061035,-0.5245514,0.33006287,-0.03012085,0.099823
1606,A,124130443198297,-9.364273,-4.3439026,-0.119766235,0.8426819,-1.1279297,0.4630432
1606,A,124130493552301,-8.512436,-5.499771,-1.5154572,-0.14071655,0.36351013,-1.4560242
1606,A,124130543906305,-6.699829,-1.3917847,-2.1384888,0.27534485,-0.26753235,-0.19953918
1606,A,124130594260309,-5.101364,-3.67305,-1.8926544,-0.41732788,-0.5656738,0.6072235
1606,A,124130644614313,-6.4849396,-3.2454987,0.83961487,-1.2805176,-0.5133209,-0.007583618
1606,A,124130694968317,-16.706955,-0.057632446,3.4181213,-0.53196716,0.14782715,-0.25723267
1606,A,124130745322321,-15.430878,-3.4267883,-0.8492737,-0.18412781,0.29707336,-0.0121154785
1606,A,124130795676325,-6.801239,-9.932343,-1.0807495,-0.32565308,-0.58839417,-0.030883789
1606,A,124130846030329,-8.677063,-5.070862,-2.739212,0.61964417,0.43025208,0.23506165
1606,A,124130896384332,-9.911072,0.5290375,-0.81529236,0.61932373,1.2302246,0.12988281
1606,A,124130946738336,-5.1704865,-0.8991852,-2.455841,0.13621521,-1.2416382,0.73706055
1606,A,124130997092340,-2.5157166,-2.3402252,-3.0825043,-0.86912537,0.2819214,0.63609314
1606,A,124131047446344,-8.370712,-1.2769012,-2.317215,0.3162079,-0.5497894,-0.16026306
1606,A,124131097800348,-15.05629,-1.9029694,-1.5579529,1.2085724,0.3565216,-0.39460754
1606,A,124131148154352,-5.971283,-3.7990265,-2.9426117,1.2982788,0.44654846,-0.038635254
1606,A,124131198508356,-8.684799,-4.9631195,8.546967,0.8118439,0.682251,-0.4013977
1606,A,124131248862360,-19.145844,-11.239426,1.0898438,0.19525146,0.96003723,-0.48171997
1606,A,124131299216364,-7.133087,4.4481354,-2.9860687,-0.18652344,-0.17149353,0.4088745
1606,A,124131349570368,-8.399857,-2.6195374,-0.7409973,-0.5990448,-0.14596558,-0.10003662
1606,A,124131399924372,-9.158279,-7.4090576,-0.24568176,0.004776001,-0.8188629,0.03678894
1606,A,124131450278375,-6.6855164,-4.7062225,-3.7308502,-0.029708862,-0.1421814,-1.5901947
1606,A,124131500632379,-3.5170746,-2.6305695,-0.58688354,0.5761566,-0.040039063,0.29473877
1606,A,124131550986383,-4.039566,-7.788162,-1.4399109,0.25239563,-1.2207947,0.73405457
1606,A,124131601340387,-9.535126,0.07891846,2.6693726,-0.5196991,-0.008285522,0.12815857
1606,A,124131651694391,-19.380661,4.4184875,6.813156,0.1847229,0.64993286,-0.5041046
1606,A,124131702048395,-14.445297,-6.957138,-0.04876709,-0.07511902,0.5531311,-0.30358887
1606,A,124131752402399,-3.3523254,-8.81279,-3.2683105,-0.38581848,-0.08566284,0.35142517
1606,A,124131802756403,-10.042404,-1.837616,-4.2164154,0.32347107,-0.48498535,0.5203247
1606,A,124131853110407,-10.524429,1.3457642,-0.3356018,0.5842285,0.015625,0.28648376
1606,A,124131903464411,-4.8067474,-2.322754,-2.7137756,0.6806946,0.19654846,-0.5830841
1606,A,124131953818415,-4.5544586,-2.7749634,-3.5035706,1.4907532,0.013717651,-0.07537842
1606,A,124132004172418,-10.117218,-3.1020813,1.0631409,1.9766235,0.3924713,-0.13726807
1606,A,124132054526422,-15.875732,-1.6707001,7.337036,1.4665527,0.52153015,-0.42816162
1606,A,124132104880426,-15.964172,-4.001938,0.47312927,0.7989807,0.30543518,-0.14376831
1606,A,124132155234430,-9.621536,-2.7832184,-0.88853455,0.38578796,-0.06503296,0.07261658
1606,A,124132205588434,-8.053711,-1.2442932,0.13108826,0.6880951,0.026016235,-0.3998108
1606,A,124132255942438,-6.881714,-2.2011719,-0.23963928,0.79600525,0.33502197,-0.90675354
1606,A,124132306296442,-5.0821686,-4.4659576,-2.5856476,0.47380066,0.33467102,-0.16990662
1606,A,124132356650446,-5.1958313,-5.0937347,-2.5567474,0.5310211,0.2218628,0.6624756
1606,A,124132407004450,-10.116531,-5.5278473,-1.9751587,0.15734863,0.38360596,0.29858398
1606,A,124132457358454,-16.092194,-1.8881531,2.5571442,0.22521973,0.013671875,0.025054932
1606,A,124132507712457,-14.66333,-1.4449005,3.3795624,0.28338623,0.019515991,0.07006836
1606,A,124132558066461,-10.873199,-7.5224,1.0937653,0.13206482,-0.006515503,-0.13464355
1606,A,124132608420465,-7.857147,-4.516739,0.5148163,-0.17149353,0.274765,-0.25027466
1606,A,124132658774469,-5.807358,0.55329895,-1.4201355,-0.13093567,0.5059509,-0.25039673
1606,A,124132709128473,-6.62706,-1.8199768,-1.4941711,0.7049103,0.052993774,0.7387543
1606,A,124132759482477,-7.990753,-3.9477386,-1.409729,0.50024414,0.07952881,0.2506256
1606,A,124132809836481,-9.69136,-3.9222107,-2.1616974,0.46217346,0.33161926,-0.3552704
1606,A,124132860190485,-11.311829,-4.347229,-3.5675812,0.6385498,0.6896057,-0.33532715
1606,A,124132910544489,-11.916824,-2.9968262,0.46876526,0.97906494,-0.05480957,-0.11427307
1606,A,124132960898493,-9.998535,-1.6926117,3.2108612,0.7987366,-0.26654053,0.10417175
1606,A,124133011252497,-11.585724,-4.0117035,1.5359192,0.41912842,0.49894714,0.1733551
1606,A,124133061606500,-10.982666,-2.9692688,-0.29600525,0.5253296,0.40376282,-0.10697937
1606,A,124133111960504,-4.9525604,-0.70155334,-0.069610596,0.585968,0.45907593,-0.24609375
1606,A,124133162314508,-4.545227,-2.8193054,-0.6609955,1.0460663,0.12715149,0.16415405
1606,A,124133212668512,-9.833328,-5.3244324,-0.836792,1.115982,0.26737976,-0.68481445
1606,A,124133263022516,-10.533081,-4.483841,-1.1724854,0.89486694,0.5283203,0.23524475
1606,A,124133313376520,-9.018494,-4.2480164,-1.7991486,1.1358185,0.42167664,0.53829956
1606,A,124133363730524,-10.483856,-4.8944397,-1.8661041,0.64053345,0.5746155,0.04963684
1606,A,124133414084528,-11.529739,-1.1834564,2.943283,0.61383057,0.04600525,0.2654724
1606,A,124133464438532,-12.996307,0.1715393,0.708725,0.30108643,-0.08442688,-0.014785767
1606,A,124133514792536,-11.2361145,-6.0976105,0.6863251,-0.6460266,0.12310791,-0.30145264
1606,A,124133565146540,-6.3887634,-3.3660736,-0.5693512,-0.65078735,-0.47549438,0.3118744
1606,A,124133615500543,-6.4458466,-0.5430298,-2.1271057,-0.3030548,0.558136,0.55937195
1606,A,124133665854547,-7.2360687,-2.6256866,-2.3834229,-0.8944702,0.22193909,0.006881714
1606,A,124133716208551,-9.889191,-5.2734528,-2.1329346,-0.10736084,-1.172287,0.59620667
1606,A,124133766562555,-9.469772,-5.0144653,-2.9432678,0.29922485,-0.123168945,-0.14448547
1606,A,124133816916559,-14.569153,-2.7965698,-0.53645325,-0.019348145,-0.24023438,-0.64208984
1606,A,124133867270563,-13.8815155,-2.6368256,1.6911163,0.16864014,0.01902771,-0.30101013
1606,A,124133917624567,-5.977005,-3.017746,1.7245178,0.76467896,-0.21617126,0.06689453
1606,A,124133967978571,-7.683258,-3.7121277,1.1346588,0.42951965,0.08203125,0.07662964
1606,A,124134018332575,-10.388306,0.016418457,0.81677246,0.38671875,0.041000366,0.021652222
1606,A,124134068686579,-6.353302,-1.4562073,-0.7901764,0.07249451,0.4961853,-0.3171234
1606,A,124134119040582,-5.869507,-3.2111359,-0.22772217,0.3193512,-0.08093262,0.14459229
1606,A,124134169394586,-8.497009,-3.9901276,-0.5797119,0.1347351,-0.5829315,-0.21290588
1606,A,124134219748590,-12.092743,-5.0552063,-2.3585052,-0.46743774,0.24728394,-0.3269043
1606,A,124134270102594,-11.096695,-5.0581207,-1.1290588,0.08833313,0.17478943,0.40699768
1606,A,124134320456598,-11.81575,-6.210602,-1.0185547,-0.23579407,0.30052185,0.23710632
1606,A,124134370810602,-9.3129425,-4.2712097,2.6343231,-0.48472595,-0.23484802,0.0090789795
1606,A,124134421164606,-11.013687,0.2077179,3.7025146,-0.098464966,-0.36683655,-0.089538574
1606,A,124134471518610,-11.181,-2.3860626,0.81329346,-0.5990448,-0.02822876,-0.074783325
1606,A,124134521872614,-6.9752197,-4.791336,0.8636627,-0.8080902,-0.09991455,0.41430664
1606,A,124134572226618,-4.6442413,-1.5441437,-0.39726257,0.20108032,-0.2662506,1.119873
1606,A,124134622580622,-7.350998,-0.9108887,-1.6181183,0.07104492,0.062057495,0.58618164
1606,A,124134672934625,-10.719482,-4.45697,-1.6516113,-1.09935,0.36479187,-0.28138733
1606,A,124134723288629,-11.204361,-6.3880615,-2.089203,-0.6390686,-0.24951172,-0.036895752
1606,A,124134773642633,-11.650452,-4.0818176,-2.0733185,-0.28359985,-0.27235413,-0.008834839
1606,A,124134823996637,-13.950836,-1.3406067,3.4521484,-0.2642517,-0.20985413,-0.53012085
1606,A,124134874350641,-9.300125,-1.7608032,5.3004303,-0.3812256,-0.03100586,-0.7180786
1606,A,124134924704645,-7.5574036,-3.142517,-0.034942627,0.017868042,0.14848328,-0.055419922
1606,A,124134975058649,-9.221466,-2.1134033,-0.23716736,0.60446167,0.19073486,0.21679688
1606,A,124135025412653,-7.2460938,-0.7879486,0.8160095,0.822525,0.21224976,-0.34751892
1606,A,124135075766657,-5.673538,-2.1385803,-0.5901489,0.6132965,-0.08076477,-0.47654724
1606,A,124135126120661,-7.8973694,-3.8598938,-0.21812439,0.37220764,0.27246094,-0.21565247
1606,A,124135176474665,-9.525909,-3.6478424,-0.7651825,0.67349243,0.30978394,0.10395813
1606,A,124135226828668,-10.569946,-3.4615479,-1.5881042,0.74087524,-0.039001465,0.26193237
1606,A,124135277182672,-11.4770355,-5.1393433,-0.57910156,0.14335632,0.20956421,0.060134888
1606,A,124135327536676,-12.718124,-3.7962952,3.2026062,-0.19580078,-0.12698364,0.057495117
1606,A,124135377890680,-11.817825,-1.1983337,3.4516296,-0.40699768,-0.047424316,0.04837036
1606,A,124135428244684,-9.152542,-2.2150574,0.6230011,-0.64157104,-0.08293152,0.08377075
1606,A,124135478598688,-6.975067,-3.122116,0.23175049,-0.5516815,0.08326721,0.25704956
1606,A,124135528952692,-6.1385345,-2.3492584,-1.0690613,0.2811737,-0.36062622,0.7762146
1606,A,124135579306696,-8.144028,-2.6349182,-1.8260345,0.055496216,0.34432983,0.5692749
1606,A,124135629660700,-10.025833,-3.5345001,-1.1309357,-0.27116394,-0.06712341,-0.046417236
1606,A,124135680014704,-11.819962,-4.112671,-2.3901978,-0.21310425,-0.72572327,-0.34687805
1606,A,124135730368707,-12.900345,-3.0796814,-0.96183777,-0.049743652,0.006088257,-0.29023743
1606,A,124135780722711,-12.714401,-2.1715546,3.2922058,0.4319458,-0.052017212,-0.41918945
1606,A,124135831076715,-9.144531,-1.7084045,3.5827484,0.4413147,-0.15081787,-0.18432617
1606,A,124135881430719,-7.1591187,-3.5316467,0.44750977,0.19186401,-0.042633057,0.025970459
1606,A,124135931784723,-8.555176,-1.8338165,0.6465912,0.8531494,0.3048401,-0.29629517
1606,A,124135982138727,-6.9817047,-0.16072083,1.1426544,0.83625793,1.1789246,-0.8288574
1606,A,124136032492731,-6.7532196,-3.5434723,-0.41635132,0.27322388,-1.266571,-0.0635376
1606,A,124136082846735,-9.108002,-5.5375977,-0.6817169,0.063568115,0.27922058,0.025985718
1606,A,124136133200739,-10.8346405,-2.4288025,-0.14433289,0.085739136,0.014846802,0.02355957
1606,A,124136183554743,-12.925232,-3.092331,0.32595825,0.11138916,0.35890198,0.335083
1606,A,124136233908747,-11.470642,-7.9924164,-0.48432922,-0.5528259,0.07940674,0.26811218
1606,A,124136284262750,-8.769196,-5.9124146,4.4605865,-0.5909271,-0.12947083,0.26490784
1606,A,124136334616754,-12.332779,1.0675964,4.7654114,-0.38087463,-0.051696777,-0.38949585
1606,A,124136384970758,-11.383438,-1.996872,0.5977936,-0.6588898,0.44885254,-0.5336914
1606,A,124136435324762,-4.6302643,-4.600342,0.24958801,-0.43989563,0.045898438,-0.13313293
1606,A,124136485678766,-4.465393,-2.190979,-1.7963867,-0.25253296,-0.7188263,0.6551819
1606,A,124136536032770,-6.7822113,-0.45671082,-0.6712036,-0.5493469,0.8877411,-0.05140686
1606,A,124136586386774,-11.062958,-2.965973,-0.46784973,0.35716248,-0.25697327,0.6358795
1606,A,124136636740778,-9.027847,-3.5227966,-2.0784302,-0.28211975,0.12513733,0.65167236
1606,A,124136687094782,-6.489258,-3.9424133,-1.4882965,-0.3381958,-0.38362122,-0.22105408
1606,A,124136737448786,-14.9791565,-3.0400543,-1.2384033,-0.095825195,0.14038086,-0.6973114
1606,A,124136787802790,-12.352158,-2.3450165,-0.111831665,0.25852966,0.312088,-0.2900238
1606,A,124136838156793,-11.090027,-2.8894348,4.92688,1.0131836,-0.087142944,-0.040298462
1606,A,124136888510797,-7.460144,-6.877121,2.2550507,0.5810394,-0.015304565,0.1438446
1606,A,124136938864801,-11.706848,-2.4898376,0.18954468,0.13757324,0.2642517,0.098358154
1606,A,124136989218805,-7.325699,0.86001587,0.26409912,0.61102295,0.20056152,-0.20106506
1606,A,124137039572809,-3.366745,-0.98776245,-0.12623596,0.28215027,-0.40901184,-0.10684204
1606,A,124137089926813,-7.0743256,-5.0932465,-0.24736023,-0.25891113,-0.5743408,-0.38168335
1606,A,124137140280817,-11.204269,-5.4734497,-1.4594879,-0.5674286,0.47755432,-0.1444397
1606,A,124137190634821,-11.160126,-4.6280823,-1.7067871,0.25439453,0.16567993,0.28945923
1606,A,124137240988825,-10.464554,-5.9059143,-1.4654999,-0.3799591,0.37756348,0.10752869
1606,A,124137291342829,-10.643829,-7.1810913,2.1916962,-0.5616913,0.21546936,-0.19343567
1606,A,124137341696832,-12.4813385,-1.2084656,5.0502777,-0.0028381348,-0.1161499,-0.10517883
1606,A,124137392050836,-9.549606,0.09049988,0.4055786,-0.41461182,-0.20481873,0.01210022
1606,A,124137442404840,-7.6937256,-4.4691925,0.65597534,-0.8694458,-0.16412354,0.10812378
1606,A,124137492758844,-5.415634,-2.4265442,0.14147949,-0.65449524,-0.059768677,0.3589325
1606,A,124137543112848,-7.1243134,-0.75149536,-1.4022675,0.16436768,-0.12872314,0.7460022
1606,A,124137593466852,-8.549683,-2.8143158,-2.392395,-0.016113281,0.14500427,0.68466187
1606,A,124137643820856,-10.118011,-5.580307,-2.0893097,-0.2913971,-0.24632263,-0.40434265
1606,A,124137694174860,-11.378128,-5.2263794,-2.533432,0.017227173,-0.43070984,-0.5132599
1606,A,124137744528864,-13.405426,-1.9434357,-1.1943207,0.17192078,0.0041046143,-0.13821411
1606,A,124137794882868,-12.802155,-2.067154,5.0231323,0.6216583,0.037765503,-0.054901123
1606,A,124137845236872,-9.270966,-3.4015656,3.074829,0.2845459,0.10951233,0.08114624
1606,A,124137895590875,-8.150284,-3.0068817,-0.47782898,-0.06491089,-0.03413391,0.09776306
1606,A,124137945944879,-7.3237,-0.5173187,0.019714355,0.17372131,0.01600647,-0.38352966
1606,A,124137996298883,-5.0101013,-1.4620361,0.027740479,0.24926758,0.7448273,-0.5926056
1606,A,124138046652887,-7.6203766,-5.4634705,-0.90934753,0.7292633,-0.067718506,-0.063812256
1606,A,124138097006891,-9.856537,-5.315674,-1.634964,0.1927185,-0.7881012,-0.3733368
1606,A,124138147360895,-10.346725,-3.4772644,-1.144104,-0.5449066,0.63020325,0.017059326
1606,A,124138197714899,-12.590027,-4.989105,-1.0875854,-0.01600647,0.7598419,0.48234558
1606,A,124138248068903,-10.495544,-5.329117,-0.22898865,-0.27330017,-0.5283203,0.23695374
1606,A,124138298422907,-6.6199036,-1.9447937,3.9000397,-0.6295624,-0.56073,0.11936951
1606,A,124138348776911,-13.419006,-2.3860168,3.426529,-0.5962982,0.123306274,-0.25746155
1606,A,124138399130915,-11.806641,-6.0595245,0.7201233,-0.9147644,0.069503784,-0.04776001
1606,A,124138449484918,-2.8654785,-2.9618073,-1.5816803,0.10293579,-0.36149597,0.97216797
1606,A,124138499838922,-5.8195496,-0.27098083,-2.9989777,0.08358765,0.34049988,0.55537415
1606,A,124138550192926,-11.487335,-3.340149,0.07923889,-0.21765137,-0.070755005,-0.18804932
1606,A,124138600546930,-9.72168,-4.3842316,-1.6430511,-0.031906128,-0.38787842,-0.31929016
1606,A,124138650900934,-11.23082,-3.3305511,-3.7026062,0.013793945,0.07550049,-0.18829346
1606,A,124138701254938,-15.152695,-2.6533966,2.7764435,0.54081726,0.022750854,-0.2649536
1606,A,124138751608942,-10.49733,-1.6063385,3.7108612,0.8261719,-0.2169342,-0.016723633
1606,A,124138801962946,-8.055023,-4.1596527,0.44448853,0.7517853,0.12121582,0.3509674
1606,A,124138852305021,-8.549545,-2.382309,0.6651459,0.9267273,0.40245056,-0.17312622
1606,A,124138902659025,-6.2466125,-0.5201874,-0.08973694,0.5981293,0.3633423,-0.49066162
1606,A,124138953013028,-5.610138,-2.9024506,-0.29444885,0.056655884,-0.78175354,-0.3005829
1606,A,124139003367032,-8.640579,-3.778656,-0.17388916,-0.47174072,-0.08509827,-0.27011108
1606,A,124139053721036,-11.074387,-3.0727692,-0.42500305,0.24420166,-0.011703491,0.26333618
1606,A,124139104075040,-11.603363,-4.9619904,-1.3280792,0.34757996,-0.015899658,0.40447998
1606,A,124139154429044,-10.871948,-8.20578,-1.7117462,-0.17060852,0.1350708,0.47703552
1606,A,124139204783048,-11.093964,-4.0601044,3.84227,0.17781067,-0.0045318604,0.14639282
1606,A,124139255137052,-10.066376,0.08532715,2.3203125,0.025604248,0.2019043,-0.090530396
1606,A,124139305491056,-8.827881,-2.294403,1.3452606,-0.110839844,0.03199768,0.11164856
1606,A,124139355845060,-6.5385895,-3.0407562,0.6703491,-0.34083557,-0.24775696,0.48292542
1606,A,124139406199064,-7.544388,-1.1482849,-0.39305115,0.2490387,-0.18725586,0.4068756
1606,A,124139456553068,-9.086884,-1.3635406,-0.9991455,0.09989929,0.62127686,-0.023788452
1606,A,124139506907071,-9.726486,-3.3312988,-1.8230133,-0.45755005,-0.16882324,0.036621094
1606,A,124139557261075,-9.708084,-4.6128845,-2.893509,-0.1802063,-1.0890045,0.013076782
1606,A,124139607615079,-14.696808,-1.9068451,-1.6738586,-0.17272949,-0.03515625,-0.12593079
1606,A,124139657969083,-14.9644165,-2.5658417,3.5819092,0.093551636,0.27233887,-0.44189453
1606,A,124139708323087,-8.439957,-0.70140076,2.859787,0.1882782,-0.054138184,-0.102371216
1606,A,124139758677091,-4.061676,-4.949585,0.015930176,-0.11035156,0.05441284,0.11314392
1606,A,124139809031095,-9.733871,-2.641449,1.6399994,0.21368408,0.18663025,-0.04121399
1606,A,124139859385099,-8.13829,0.88404846,1.2484131,0.58506775,0.6857147,-0.22166443
1606,A,124139909739103,-7.0755157,-2.921997,-0.6663208,0.53027344,-0.3878479,-0.25039673
1606,A,124139960093107,-7.758499,-6.096039,-0.44439697,-0.41696167,0.042495728,-0.6009979
1606,A,124140010447111,-10.767288,-3.3141937,-1.1279602,0.19961548,-0.008636475,0.15576172
1606,A,124140060801114,-11.710022,-2.6756592,0.058807373,0.15863037,-0.045898438,0.34469604
1606,A,124140111155118,-11.3342285,-4.7669983,0.7805481,-0.8722992,0.14744568,-0.21914673
1606,A,124140161509122,-9.370728,-3.5447693,2.9528198,-0.39723206,0.016052246,-0.12806702
1606,A,124140211863126,-9.970749,0.47096252,0.9884796,-0.37135315,0.009414673,-0.06448364
1606,A,124140262217130,-9.613953,-3.866928,0.7352295,-0.6799011,-0.29544067,-0.15040588
1606,A,124140312571134,-7.3000183,-4.2335205,-0.63171387,-0.74586487,-0.013504028,0.14691162
1606,A,124140362925138,-7.097519,-1.2643585,-0.6659241,-0.6077881,0.47151184,0.23379517
1606,A,124140413279142,-6.740677,-1.9786682,-1.8300018,-0.13162231,-0.30696106,0.6495514
1606,A,124140463633146,-7.6852875,-3.0941925,-2.1497803,-0.36143494,0.23234558,0.42129517
1606,A,124140513987150,-9.232101,-4.146179,-1.5988312,-0.3138275,0.011474609,-0.828949
1606,A,124140564341153,-12.467331,-3.9378357,-1.847229,0.27612305,-0.12840271,-0.45828247
1606,A,124140614695157,-12.23526,-2.912445,-1.5276031,0.7781677,0.06774902,0.14108276
1606,A,124140665049161,-12.885132,-3.2913513,4.949875,0.7871399,-0.04446411,0.15638733
1606,A,124140715403165,-12.742432,-4.2684937,2.6480408,0.47424316,0.085617065,0.20030212
1606,A,124140765757169,-8.991165,-0.63116455,-0.70054626,0.6562958,0.41792297,0.06700134
1606,A,124140816111173,-4.7738953,-0.33265686,0.54296875,1.0573273,0.6335144,-0.34732056
1606,A,124140866465177,-4.9689484,-3.008255,0.10998535,1.0016785,0.15768433,-0.13452148
1606,A,124140916819181,-8.893936,-4.8341217,-1.5525818,0.098861694,-0.55711365,-0.5200958
1606,A,124140967173185,-10.390457,-3.6832275,-1.2270203,-0.4445343,0.33839417,-0.32310486
1606,A,124141017527189,-10.518066,-4.033188,-1.7979584,-0.0683136,0.64645386,0.36375427
1606,A,124141067881193,-10.977158,-5.2413177,-0.44285583,-0.6225891,-0.44548035,0.005630493
1606,A,124141118235196,-9.053192,-2.634552,3.4993439,-1.0110626,-0.8029938,0.11167908
1606,A,124141168589200,-13.547119,-2.5408936,1.9684296,-0.7622986,-0.1485138,0.13653564
1606,A,124141218943204,-13.05275,-5.1352997,1.0532074,-0.91407776,-0.3909912,-0.14453125
1606,A,124141269297208,-3.4078064,-2.4934998,-0.9146881,-0.8749542,-0.22251892,0.0791626
1606,A,124141319651212,-3.8563538,-0.9958496,-2.8995361,0.06478882,-0.32507324,1.107193
1606,A,124141370005216,-9.48526,-3.0389862,-0.46513367,-0.18571472,0.2789154,0.64686584
1606,A,124141420359220,-9.587357,-2.9944458,-1.8216248,-0.15299988,0.122665405,-0.2361908
1606,A,124141470713224,-11.0590515,-4.4283905,-3.8741608,0.098083496,0.12136841,-0.44436646
1606,A,124141521067228,-13.5694275,-4.1644745,-0.050125122,0.29730225,0.11286926,-0.21365356
1606,A,124141571421232,-13.661072,-0.72779846,4.2976074,0.93814087,-0.2551422,-0.06744385
1606,A,124141621775236,-10.607819,-2.3398285,3.1548462,0.85227966,-0.027572632,0.16775513
1606,A,124141672129239,-9.490555,-3.5449371,0.7767334,0.4825592,0.48054504,-0.16667175
1606,A,124141722483243,-5.9772797,-0.49069214,0.7605896,0.37036133,0.30784607,-0.6296387
1606,A,124141772837247,-2.7954407,0.0105896,-0.28233337,0.29882813,-0.05999756,-0.19639587
1606,A,124141823191251,-6.887665,-2.8944397,-0.5207062,0.50694275,-0.11628723,0.38562012
1606,A,124141873545255,-12.97905,-5.655838,-1.0716553,-0.10588074,-0.30361938,-0.82806396
1606,A,124141923899259,-11.516525,-3.7923584,-2.2009277,0.6053467,0.47177124,0.1191864
1606,A,124141974253263,-8.962692,-6.069168,-3.2693787,0.6073303,0.29689026,0.085632324
1606,A,124142024607267,-11.481857,-6.391922,1.5413055,-0.4691925,-0.28764343,-0.2069397
1606,A,124142074961271,-9.868057,1.0235138,5.127548,-0.3143463,-0.39004517,0.08833313
1606,A,124142125315275,-13.774033,0.013336182,0.6264496,-0.23358154,0.06304932,-0.21853638
1606,A,124142175669278,-8.692093,-4.3834534,1.8828125,-0.7665558,-0.1405487,0.031036377
1606,A,124142226023282,-2.6676483,-2.7890625,-1.620697,-1.0575104,0.82177734,0.011795044
1606,A,124142276377286,-6.468277,-1.497055,-2.3947449,0.506546,-1.4686432,1.1719055
1606,A,124142326731290,-11.027008,-2.883484,-1.3971863,-0.3826294,1.0018921,0.3026886
1606,A,124142377085294,-9.943771,-4.9862213,-1.3202667,-0.3787079,-0.23846436,-0.8050232
1606,A,124142427439298,-13.16333,-5.171173,-3.8162231,-0.034606934,-0.2746277,-0.33773804
1606,A,124142477793302,-10.216827,-4.146042,-0.8708496,0.14884949,0.40596008,0.24798584
1606,A,124142528147306,-12.312546,0.07002258,8.032166,0.6169586,-0.0015411377,-0.13937378
1606,A,124142578501310,-8.750748,-3.6208496,2.3180084,0.22383118,-0.2865448,0.29600525
1606,A,124142628855314,-7.846344,-4.099365,-1.5691986,0.032943726,-0.095321655,0.2011261
1606,A,124142679209318,-7.6317444,-0.85554504,0.43470764,0.22167969,0.34465027,-0.4754486
1606,A,124142729563321,-4.0883026,-0.5821228,0.83195496,0.64442444,-0.15583801,-0.07090759
1606,A,124142779917325,-6.8428497,-6.3747864,-1.3702545,-0.100357056,-0.7086792,-0.106277466
1606,A,124142830271329,-11.262405,-5.4489136,-1.7268982,-0.4567566,0.115234375,-0.59358215
1606,A,124142880625333,-11.965118,-3.3349304,-1.2211151,0.08427429,0.6852417,0.456604
1606,A,124142930979337,-11.194748,-5.1999207,-1.5689545,-0.16363525,0.0597229,0.013717651
1606,A,124142981333341,-9.596054,-5.0649414,2.32518,-0.5237427,-0.5391388,-0.07644653
1606,A,124143031687345,-12.061493,0.16703796,4.236496,-0.13163757,-0.3754425,-0.0022888184
1606,A,124143082041349,-13.172516,-3.9797974,1.4754181,-0.17341614,0.19664001,0.03427124
1606,A,124143132395353,-4.5495453,-3.9002533,0.6523285,-0.51727295,-0.0043945313,0.20178223
1606,A,124143182749357,-3.2595825,-0.82881165,-1.2757416,-0.24952698,0.021224976,0.595871
1606,A,124143233103361,-8.062683,-2.0775452,-0.94047546,0.49291992,-0.5302887,1.1646729
1606,A,124143283457364,-11.233948,-4.041382,-0.70973206,-0.22787476,0.5067444,0.09031677
1606,A,124143333811368,-10.598663,-4.223633,-2.3782654,-0.008270264,-0.13050842,-0.6068115
1606,A,124143384165372,-10.790421,-5.046707,-3.2259674,0.37187195,-0.10522461,-0.31021118
1606,A,124143434519376,-11.905304,-3.5879211,1.6565704,0.607605,-0.12704468,-0.024490356
1606,A,124143484873380,-12.075363,-1.6984711,6.0177,0.55688477,-0.09651184,0.0014190674
1606,A,124143535227384,-9.362198,-3.7256927,1.6291656,0.2612152,0.253891,0.019454956
1606,A,124143585581388,-7.7757416,-1.4311676,-0.6429596,0.30018616,0.26742554,-0.09088135
1606,A,124143635935392,-4.5519104,-0.6290436,0.9753418,0.5071411,0.1979065,-0.19799805
1606,A,124143686289396,-4.8984222,-3.0743103,0.671402,0.50964355,-0.38964844,-0.35513306
1606,A,124143736643400,-9.587265,-4.813751,-1.2442017,0.015594482,-0.3517456,-0.4673767
1606,A,124143786997403,-10.7079315,-3.589569,-1.133194,0.065826416,0.23864746,-0.02381897
1606,A,124143837351407,-10.283249,-4.6132355,-1.3148956,0.28416443,0.2738037,0.17788696
1606,A,124143887705411,-11.890579,-6.045395,0.03933716,-0.4031372,0.16732788,-0.08833313
1606,A,124143938059415,-12.313705,-3.265442,3.6388397,-0.5740051,-0.18626404,-0.083114624
1606,A,124143988413419,-11.541199,-0.6796875,2.7624817,-0.285614,-0.29859924,-0.20236206
1606,A,124144038767423,-9.88707,-3.1894226,0.8947296,-0.3638153,-0.33432007,0.016342163
1606,A,124144089121427,-5.982971,-3.8006134,-0.062408447,-0.83695984,0.2355957,0.10928345
1606,A,124144139475431,-5.0720215,-1.5921478,-1.238266,-0.18962097,-0.2724762,0.39671326
1606,A,124144189829435,-7.431061,-1.590683,-1.2700195,0.31471252,0.08744812,0.80130005
1606,A,124144240183439,-9.781677,-3.674591,-0.9496002,-0.16329956,0.23361206,-0.0362854
1606,A,124144290537443,-11.379623,-5.5618286,-1.6307678,-0.1388855,0.060821533,-0.5019684
1606,A,124144340891446,-12.363556,-5.0260773,-2.5433197,0.07521057,0.20840454,-0.036834717
1606,A,124144391245450,-13.131058,-2.072754,2.9961853,0.4551239,0.12432861,0.107559204
1606,A,124144441599454,-10.25676,-1.9448242,4.483032,0.5310211,0.02116394,-0.001373291
1606,A,124144491953458,-9.137497,-3.4297333,1.0041962,0.35421753,0.2195282,0.1756897
1606,A,124144542307462,-8.234253,-2.679016,0.12239075,0.3429718,0.2807312,-0.11412048
1606,A,124144592661466,-4.8836975,-0.8916168,0.74246216,0.19075012,0.07672119,-0.4042511
1606,A,124144643015470,-6.0195007,-2.562912,-0.669693,-0.017471313,-1.0500793,-0.47647095
1606,A,124144693369474,-9.437332,-4.2435455,-1.4060669,-0.41093445,0.0054626465,-0.112213135
1606,A,124144743723478,-10.277847,-4.479233,-1.3115692,0.1347351,0.1799469,0.18737793
1606,A,124144794077482,-10.453415,-5.0545807,-1.6239014,-0.12251282,0.28253174,0.13465881
1606,A,124144844431486,-11.705627,-6.923691,-0.38703918,-0.7416992,0.21878052,0.25202942
1606,A,124144894785489,-11.362335,-3.167984,5.266449,-0.0987854,-0.2624359,-0.035339355
1606,A,124144945139493,-11.63829,-0.2788086,2.552353,-0.31500244,-0.16835022,-0.22431946
1606,A,124144995493497,-9.232681,-4.049637,0.7075653,-0.66493225,-0.21826172,0.2149353
1606,A,124145045847501,-5.6348114,-4.037323,-0.30055237,-0.9734192,0.8556824,0.16430664
1606,A,124145096201505,-5.327591,0.12976074,-1.0951538,0.577713,-1.0256805,0.5486145
1606,A,124145146555509,-8.218643,-1.8856964,-2.169342,0.14164734,0.4520111,1.0659332
1606,A,124145196909513,-10.807068,-5.493881,-0.6212616,-0.54763794,0.3536682,-0.6906738
1606,A,124145247263517,-11.087112,-4.7557983,-2.416565,-0.20753479,0.020889282,-0.71191406
1606,A,124145297617521,-12.536133,-3.401413,-3.5804749,0.20884705,0.45968628,0.060333252
1606,A,124145347971525,-12.600983,-2.106308,5.1908264,0.7566681,-0.010650635,-0.039031982
1606,A,124145398325528,-11.61496,-4.5283813,3.3918152,0.3738098,-0.24595642,0.010375977
1606,A,124145448679532,-9.95726,-2.5070343,0.32281494,0.33422852,0.34707642,0.24028015
1606,A,124145499033536,-7.149765,-1.4016571,-0.25024414,0.57406616,0.37139893,-0.20135498
1606,A,124145549387540,-3.126831,-0.42991638,0.7175598,0.39544678,0.29396057,-0.5794678
1606,A,124145599741544,-6.529724,-4.4275055,-1.5689697,0.54663086,-1.1193085,0.0501709
1606,A,124145650095548,-10.8667755,-4.9379883,-1.5404205,-0.29844666,-0.085998535,-0.7988739
1606,A,124145700449552,-10.670364,-3.917694,-0.51594543,-0.07476807,0.58747864,0.3413086
1606,A,124145750803556,-9.85289,-4.9893036,-2.8868408,0.016036987,-0.09805298,0.29730225
1606,A,124145801157560,-10.288467,-6.6150665,-0.79434204,-0.41192627,-0.4727173,0.08268738
1606,A,124145851511564,-9.410721,-1.752655,4.1217804,-0.5058899,-0.527298,0.056549072
1606,A,124145901865568,-16.15483,-0.3436737,0.998703,-0.020309448,0.16584778,-0.3896942
1606,A,124145952219571,-8.970245,-5.2661743,2.1618347,-0.126297,0.12054443,-0.10673523
1606,A,124146002573575,-2.1203156,-2.8689423,-0.9003906,-0.60058594,0.036758423,0.22094727
1606,A,124146052927579,-7.113632,-1.3080292,-2.533081,0.16929626,-0.2605133,0.4900818
1606,A,124146103281583,-10.6796875,-1.1523895,-0.6122894,0.084869385,0.37983704,0.5595398
1606,A,124146153635587,-10.114899,-4.1619873,-1.5820923,-0.05870056,-0.09963989,-0.23110962
1606,A,124146203989591,-10.277969,-5.1170654,-3.150528,0.104278564,-0.114089966,-0.081848145
1606,A,124146254343595,-13.462494,-4.3561554,-0.9516144,0.31976318,0.15592957,0.1353302
1606,A,124146304697599,-12.0889435,-2.364746,5.6776886,0.63391113,0.07649231,-0.04637146
1606,A,124146355051603,-8.968246,-2.6615448,2.0351563,0.27394104,0.050247192,0.17602539
1606,A,124146405405607,-8.369186,-3.329071,0.2349701,0.3486023,0.21871948,0.2538452
1606,A,124146455759611,-6.9494934,-1.8421631,0.59095764,0.37431335,0.43385315,-0.34846497
1606,A,124146506113614,-5.187042,-1.6513214,0.5842438,0.25653076,0.05418396,-0.46180725
1606,A,124146556467618,-7.9905396,-4.522629,-1.0192261,0.040130615,-0.40834045,-0.35205078
1606,A,124146606821622,-9.742615,-4.9215546,-0.97184753,-0.20770264,-0.16700745,-0.28633118
1606,A,124146657175626,-10.319412,-3.8778076,-1.0239868,-0.11854553,-0.022369385,0.18617249
1606,A,124146707529630,-11.127914,-5.7558594,-1.814621,-0.4440918,-0.04423523,0.17025757
1606,A,124146757883634,-10.151184,-4.988083,1.4172516,-0.5657959,-0.40911865,0.14970398
1606,A,124146808237638,-10.928131,-0.8098755,3.2380981,-0.31752014,-0.36450195,0.0032043457
1606,A,124146858591642,-12.010666,-2.3691254,1.8486786,-0.26771545,-0.111312866,-0.175354
1606,A,124146908945646,-7.6764374,-4.3046722,0.73202515,-0.6058655,0.03907776,0.07040405
1606,A,124146959299650,-4.3381195,-1.7655334,-1.0850372,-0.5275116,0.039093018,0.22485352
1606,A,124147009653653,-6.78833,-1.0342102,-1.2083435,0.028167725,0.099609375,0.6550751
1606,A,124147060007657,-10.314041,-3.0062408,-1.3031921,-0.19680786,0.20957947,0.27119446
1606,A,124147110361661,-10.318161,-4.7878265,-1.2999573,-0.079452515,-0.15127563,-0.28840637
1606,A,124147160715665,-11.922043,-4.7648773,-2.882492,0.07141113,0.089416504,-0.17198181
1606,A,124147211069669,-13.494537,-3.2252197,1.2453156,0.4942932,0.039245605,-0.18373108
1606,A,124147261423673,-11.059814,-1.538147,4.4978485,0.7979889,-0.13180542,-0.063812256
1606,A,124147311777677,-8.693268,-3.2275848,2.0401917,0.31944275,0.13572693,0.37524414
1606,A,124147362131681,-9.525177,-3.145462,0.31947327,0.42692566,0.18106079,-0.029205322
1606,A,124147412485685,-6.5107117,-0.3611908,0.42796326,0.31471252,0.669754,-0.64974976
1606,A,124147462839689,-4.835617,-2.376419,-0.20942688,0.70150757,-0.0084991455,0.00831604
1606,A,124147513193693,-8.479355,-5.4295044,-0.7932739,0.4835968,-0.2933197,-0.51164246
1606,A,124147563547696,-10.579254,-3.9529724,-1.3966064,0.10469055,0.14878845,-0.35443115
1606,A,124147613901700,-10.400238,-3.7017517,-1.1233215,0.14071655,0.23594666,0.19535828
1606,A,124147664255704,-10.604141,-6.598282,-1.9620972,-0.45307922,0.2479248,-0.015609741
1606,A,124147714609708,-9.28862,-3.7819214,3.0956879,-0.5329132,-0.7497711,0.14512634
1606,A,124147764963712,-13.094376,2.4083252,2.2069244,-0.5534973,-0.31396484,0.07696533
1606,A,124147815317716,-13.086182,-4.973053,1.8559265,-0.29353333,-0.3199005,-0.22688293
1606,A,124147865671720,-5.121277,-4.361328,-0.102752686,-0.6850586,0.13493347,0.14926147
1606,A,124147916025724,-4.0731506,-1.2975159,-1.9337921,-0.32731628,-0.10787964,0.45210266
1606,A,124147966379728,-7.3954315,-1.9161072,-1.8920288,0.02142334,0.34747314,0.7055359
1606,A,124148016733732,-9.775696,-3.5215607,-1.3188629,-0.3549347,0.037887573,-0.1572113
1606,A,124148067087736,-9.770386,-3.693283,-1.2808533,0.10887146,-0.027160645,-0.20710754
1606,A,124148117441739,-12.984009,-5.1882324,-3.9193573,0.28024292,0.24989319,-0.18650818
1606,A,124148167795743,-15.8190155,-2.2584076,5.470001,0.7409973,0.016189575,-0.15040588
1606,A,124148218149747,-9.61795,-1.7383423,3.2050629,0.5561218,-0.23014832,0.20739746
1606,A,124148268503751,-9.813034,-3.5809479,1.0323334,0.034942627,0.16111755,0.24958801
1606,A,124148318857755,-9.539154,-1.4549866,0.89250183,0.39074707,0.076309204,-0.16113281
1606,A,124148369211759,-4.543106,-0.42800903,0.43663025,0.32714844,0.49510193,-0.41281128
1606,A,124148419565763,-5.3144073,-4.5291443,-0.7081299,0.3761902,0.24519348,-0.22991943
1606,A,124148469919767,-9.314545,-5.146103,-0.664978,0.5233154,-0.16352844,-0.5818329
1606,A,124148520273771,-10.226288,-3.3179321,-1.7448425,0.028182983,-0.018661499,-0.24235535
1606,A,124148570627775,-9.908035,-2.7823944,0.20323181,-0.22421265,0.093322754,0.29664612
1606,A,124148620981778,-10.765854,-6.8967743,-1.8717194,-0.8347626,0.11009216,0.12416077
1606,A,124148671335782,-10.388565,-3.3880005,2.195343,-0.6746216,-0.36166382,0.19644165
1606,A,124148721689786,-10.934479,0.3937378,2.844757,-0.37176514,-0.31044006,-0.05101013
1606,A,124148772043790,-13.634857,-5.4834747,1.1173401,-0.3677826,0.021255493,-0.24505615
1606,A,124148822418308,-6.8787994,-5.6803894,0.22111511,-0.12269592,-0.17907715,0.062942505
1606,A,124148872772312,-5.556961,-0.9732208,-0.85102844,0.08860779,0.1400299,0.48884583
1606,A,124148923126316,-7.50029,-1.1307068,-1.1420135,0.4131775,0.3559723,0.7210541
1606,A,124148973480320,-8.507965,-3.056015,-1.4374084,-0.01272583,0.2035675,0.30345154
1606,A,124149023834324,-8.369614,-3.5980377,-1.8540344,0.26190186,-0.6199188,0.24464417
1606,A,124149074188328,-9.932251,-3.79776,-1.4483032,0.27825928,0.17778015,-0.13995361
1606,A,124149124542332,-14.57692,-4.460037,-0.44519043,-0.16560364,0.33364868,-0.45716858
1606,A,124149174896335,-13.639404,-3.8035278,2.2574005,-0.0030822754,-0.10031128,-0.050338745
1606,A,124149225250339,-7.6130066,-1.6437836,1.2114716,0.0050811768,-0.029724121,0.30807495
1606,A,124149275604343,-9.031631,-2.7202759,1.3717651,0.10609436,-0.018112183,0.15916443
1606,A,124149325958347,-9.78447,-2.3617096,0.54800415,0.17366028,0.092819214,-0.2087555
1606,A,124149376312351,-5.905945,-3.1310425,-1.0713959,-0.15460205,0.4152069,-0.39216614
1606,A,124149426666355,-6.466522,-4.1129303,-0.6960907,0.11029053,0.024642944,-0.22662354
1606,A,124149477020359,-8.738861,-3.07576,-1.9384613,0.15379333,-0.53289795,-0.33444214
1606,A,124149527374363,-9.89476,-2.8206482,-1.368515,-0.18157959,0.053466797,-0.30395508
1606,A,124149577728367,-9.836456,-4.985138,-0.96151733,-0.10322571,0.6351166,0.18223572
1606,A,124149628082371,-10.101318,-6.260971,-2.055542,-0.36758423,0.11920166,0.28977966
1606,A,124149678436375,-8.671448,-2.7478485,0.5333252,-0.46965027,-0.7701721,0.22457886
1606,A,124149728790378,-12.2825775,-0.7956085,2.2416992,-0.100631714,-0.51364136,0.09176636
1606,A,124149779144382,-14.903183,-4.100418,1.4089203,-0.21733093,-0.12594604,-0.23986816
1606,A,124149829498386,-6.8025055,-4.286911,-0.30891418,-0.40516663,-0.22827148,0.053359985
1606,A,124149879852390,-3.065384,-1.2098236,-2.5378723,-0.092178345,-0.026062012,0.4409485
1606,A,124149930206394,-7.6508026,-1.7662506,-1.729538,0.09988403,0.2725067,0.5680847
1606,A,124149980560398,-10.440063,-3.0397186,-1.4205017,-0.55825806,0.20446777,0.28352356
1606,A,124150030914402,-9.112137,-3.5314484,-2.123825,-0.41906738,-0.33607483,-0.008010864
1606,A,124150081268406,-11.0941925,-3.728302,-2.7742004,0.09831238,-0.02696228,-0.31811523
1606,A,124150131622410,-13.900345,-3.7109375,0.22012329,0.28929138,0.09291077,-0.5627289
1606,A,124150181976414,-12.029755,-2.654419,2.6062164,0.62731934,-0.22245789,-0.19326782
1606,A,124150232330417,-7.9077606,-3.2718964,1.3183289,0.43891907,0.012084961,0.29534912
1606,A,124150282684421,-9.9140625,-2.6817017,0.6201019,0.40377808,0.1468811,-0.034240723
1606,A,124150333038425,-8.919586,-0.32574463,0.6942291,0.109939575,0.3286438,-0.38035583
1606,A,124150383392429,-4.9132233,-1.793045,-0.32011414,0.23764038,0.34545898,-0.2715454
1606,A,124150433746433,-6.3117676,-4.297653,-0.16033936,0.603302,-0.1400299,-1.1622314
1606,A,124150484100437,-10.316116,-4.2308044,-1.9989014,0.44589233,0.08320618,-0.642807
1606,A,124150534454441,-9.500641,-3.5615234,-0.9470062,0.84976196,0.17712402,0.58091736
1606,A,124150584808445,-10.056534,-6.3920135,-1.8443298,-0.31819153,0.034484863,0.46566772
1606,A,124150635162449,-11.849747,-4.545517,0.82673645,-0.64567566,-0.31866455,0.3479309
1606,A,124150685516453,-11.959946,1.5294342,2.2306366,-0.19474792,-0.45700073,0.27973938
1606,A,124150735870457,-11.682251,-3.5637665,1.5024872,-0.46705627,-0.03315735,-0.14506531
1606,A,124150786224460,-8.738586,-7.384369,-0.5056,-0.40422058,-0.36706543,0.08065796
1606,A,124150836578464,-6.020996,-2.239746,-1.2668457,-0.549881,0.29710388,0.25468445
1606,A,124150886932468,-6.6304626,-0.816803,-1.0192108,0.06686401,-0.012420654,0.060134888
1606,A,124150937286472,-9.313141,-2.8634338,-1.3449402,0.27615356,0.44602966,1.0418396
1606,A,124150987640476,-9.042297,-3.8232117,-1.6808014,-0.20947266,-0.08425903,0.20574951
1606,A,124151037994480,-9.925034,-4.4241486,-1.9289551,0.2373352,-0.5959625,-0.28453064
1606,A,124151088348484,-12.758209,-2.754181,-3.8621674,0.29093933,0.26281738,-0.29812622
1606,A,124151138702488,-13.554169,-2.5759583,4.376404,0.4223175,0.098739624,-0.38845825
1606,A,124151189056492,-9.297913,-1.3011475,3.061798,0.42245483,-0.16426086,-0.0473938
1606,A,124151239410496,-7.933487,-4.272293,-0.41438293,0.25028992,0.38845825,0.24041748
1606,A,124151289764500,-10.397629,-1.312973,0.885849,0.52189636,0.279068,3.0517578E-4
1606,A,124151340118503,-6.4685974,-1.1638947,0.86776733,0.18545532,0.2545929,-0.35964966
1606,A,124151390472507,-6.080185,-3.7991638,-1.2591705,0.35029602,-0.3403015,-0.08439636
1606,A,124151440826511,-9.036591,-4.013687,-1.2559052,-0.08432007,-0.03794861,-0.5091095
1606,A,124151491180515,-10.367569,-3.3038025,-1.601059,-0.24183655,0.3434906,-0.40742493
1606,A,124151541534519,-9.977997,-3.8039856,-2.1510925,0.11717224,0.1786499,0.3495636
1606,A,124151591888523,-10.220352,-6.088669,-1.5401459,-0.6608124,-0.1308136,0.3112793
1606,A,124151642242527,-11.300903,-3.8469543,3.0530853,-0.470047,-0.23356628,0.036224365
1606,A,124151692596531,-13.641037,-0.0152282715,1.587204,-0.11882019,-0.27038574,-0.090545654
1606,A,124151742950535,-10.117218,-3.9235382,0.49179077,-0.39707947,-0.15505981,-0.016784668
1606,A,124151793304539,-5.7469177,-5.026718,-0.78652954,-0.61502075,0.12956238,-0.03112793
1606,A,124151843658542,-6.050949,-0.7989044,-1.3057404,-0.3131256,0.09089661,0.24179077
1606,A,124151894012546,-7.576355,-1.006012,-1.3709259,0.08854675,-0.4125061,1.0961151
1606,A,124151944366550,-9.222855,-3.8276062,-1.8124237,-0.40197754,0.34524536,0.27708435
1606,A,124151994720554,-10.729309,-4.760254,-2.2993622,0.014633179,-0.095458984,-0.36201477
1606,A,124152045074558,-11.1783905,-3.8573456,-2.267044,0.2576294,0.26545715,-0.40345764
1606,A,124152095428562,-11.359528,-3.7091675,1.4194489,0.55503845,-0.1912384,-0.13117981
1606,A,124152145782566,-12.2191925,-2.7218475,3.992569,0.7547302,-0.39245605,0.22421265
1606,A,124152196136570,-10.404282,-2.9287872,0.44189453,0.6213684,0.3338623,-0.0071258545
1606,A,124152246490574,-8.986511,-1.483841,-0.08628845,0.33265686,0.5492859,-0.5628662
1606,A,124152296844578,-4.0390167,-1.177124,0.4754181,0.31871033,0.051452637,-0.26844788
1606,A,124152347198582,-4.661133,-2.6770477,-0.94247437,0.5278473,-0.48963928,-0.30033875
1606,A,124152397552585,-10.701157,-3.6469269,-1.2385712,-0.10328674,-0.113464355,-0.40855408
1606,A,124152447906589,-11.573105,-3.4635925,-1.3807983,-0.1251831,0.33061218,0.15730286
1606,A,124152498260593,-9.161209,-5.101776,-2.431076,-0.16719055,0.108947754,0.25784302
1606,A,124152548614597,-10.189209,-5.6058807,0.48312378,-0.7879486,-0.35536194,0.15126038
1606,A,124152598968601,-12.941635,-2.041748,4.1899414,-0.38934326,-0.6123047,0.19868469
1606,A,124152649322605,-13.308807,-1.8740845,1.891159,-0.17611694,-0.20452881,-0.03794861
1606,A,124152699676609,-8.890701,-4.5006714,0.4072876,-0.42140198,-0.16488647,0.116363525
1606,A,124152750030613,-5.0367737,-3.0520172,-1.1194763,-0.6333618,0.38121033,0.19125366
1606,A,124152800384617,-6.1688538,-1.2353363,-1.6391296,0.09034729,-0.36312866,0.73709106
1606,A,124152850738621,-9.066193,-2.3246307,-1.319931,-0.07649231,0.22465515,0.6370239
1606,A,124152901092625,-9.946213,-3.6713562,-1.2260132,-0.4425354,-0.11399841,-0.14154053
1606,A,124152951446628,-11.250168,-3.959198,-1.7646179,-0.13790894,-0.51319885,-0.38183594
1606,A,124153001800632,-11.98555,-3.3192291,-2.0635376,-0.033432007,0.08682251,-0.21061707
1606,A,124153052154636,-12.716354,-3.2987518,2.86969,0.23136902,0.017211914,-0.26278687
1606,A,124153102508640,-9.673569,-2.8246307,3.2430725,0.28851318,-0.06567383,-0.09260559
1606,A,124153152862644,-8.355362,-3.5750122,0.04260254,0.090789795,0.22299194,0.15304565
1606,A,124153203216648,-8.835892,-2.4344635,0.6296997,0.43110657,-0.034744263,0.019882202
1606,A,124153253570652,-6.455414,-0.87117004,0.5565338,0.32302856,0.36897278,-0.6225891
1606,A,124153303924656,-6.4031677,-2.773468,-0.6027832,0.64590454,-0.4185791,0.02748108
1606,A,124153354278660,-8.957947,-4.6645966,-1.1314392,0.2710266,0.067733765,-0.6372528
1606,A,124153404632664,-9.376785,-3.915039,-1.151413,-0.09587097,0.23077393,-0.27986145
1606,A,124153454986667,-9.109177,-3.8178558,-1.1178589,0.15428162,0.109939575,0.4953766
1606,A,124153505340671,-11.739532,-6.170929,-0.82102966,-0.28492737,0.205719,0.32589722
1606,A,124153555694675,-11.075806,-2.2214203,4.3736877,-0.34918213,-0.63087463,0.12287903
1606,A,124153606048679,-13.392288,0.12210083,1.1889496,-0.22468567,-0.113464355,-0.08792114
1606,A,124153656402683,-11.524719,-5.4075317,1.8278809,-0.22853088,0.19468689,-0.17689514
1606,A,124153706756687,-4.6209564,-3.5681763,-0.12927246,-0.21278381,-0.34217834,0.2066803
1606,A,124153757110691,-5.3926697,0.14202881,-1.8096161,-0.6095581,0.66319275,-0.12637329
1606,A,124153807464695,-8.436401,-1.7129822,-0.80955505,0.37200928,-0.7012329,1.251236
1606,A,124153857818699,-10.269119,-3.6453705,-0.9858093,-0.55914307,0.8247986,0.22807312
1606,A,124153908172703,-8.696426,-2.504593,-1.8938751,-0.13046265,-0.65026855,-0.6234131
1606,A,124153958526707,-11.429077,-3.5386658,-2.730896,0.0039978027,0.12416077,-0.3282013
1606,A,124154008880710,-12.423904,-5.4111023,0.4197998,0.15785217,0.43470764,-0.13131714
1606,A,124154059234714,-12.678772,-2.1893463,5.395172,0.5906372,-0.20596313,-0.22157288
1606,A,124154109588718,-6.9564667,-2.8963013,1.1262817,0.16711426,0.0018310547,0.14015198
1606,A,124154159942722,-10.488495,-2.9463043,-0.35679626,0.17576599,0.17869568,0.047470093
1606,A,124154210296726,-7.4733734,-1.2959595,1.0378265,0.24232483,0.045959473,-0.4747162
1606,A,124154260650730,-4.3060913,-1.707428,-0.86369324,0.27667236,0.24035645,-0.24642944
1606,A,124154311004734,-7.344345,-4.6054993,-1.1619873,0.29638672,-0.48544312,-0.32347107
1606,A,124154361358738,-10.795685,-4.870163,-1.3460693,-0.28604126,0.11515808,-0.6207123
1606,A,124154411712742,-9.793945,-4.151581,-0.9768677,0.014404297,0.548172,0.31472778
1606,A,124154462066746,-10.320648,-5.930481,-1.3684692,-0.25164795,0.27568054,0.11734009
1606,A,124154512420750,-11.687134,-4.383545,2.0587158,-0.41152954,-0.2401886,0.09301758
1606,A,124154562774753,-10.630081,0.3132019,2.7755432,-0.14657593,-0.19192505,0.13165283
1606,A,124154613128757,-13.4357605,-4.7746124,0.53752136,-0.36203003,-0.007446289,-0.141922
1606,A,124154663482761,-7.517151,-5.207794,1.0592499,-0.33233643,-0.3442688,0.19924927
1606,A,124154713836765,-4.38649,-0.6456909,-1.7876587,0.11981201,0.15359497,0.66944885
1606,A,124154764190769,-7.0967865,-1.3132324,-1.8148041,0.35533142,0.60365295,0.6465912
1606,A,124154814544773,-9.128311,-3.2230988,-1.2275696,-0.2651825,0.060546875,-0.024459839
1606,A,124154864898777,-9.564621,-3.9092712,-2.1246185,0.2069397,-1.0598145,0.24905396
1606,A,124154915252781,-12.126022,-3.6827393,-1.3132782,0.28222656,0.0029907227,-0.21662903
1606,A,124154965606785,-15.796997,-2.497879,1.7739105,0.1703186,0.16242981,-0.5794678
1606,A,124155015960789,-11.295853,-2.701767,1.8616486,0.4376068,-0.12214661,-0.06741333
1606,A,124155066314792,-5.9988556,-3.7421417,0.3409729,0.3370819,0.10771179,0.15945435
1606,A,124155116668796,-9.200684,-2.7325134,0.95150757,0.29013062,0.23208618,-0.0927887
1606,A,124155167022800,-9.294479,-0.5730133,0.39164734,0.21620178,0.210495,-0.24972534
1606,A,124155217376804,-5.864319,-3.153473,-0.82218933,0.17906189,0.2657318,-0.18780518
1606,A,124155267730808,-7.2887573,-4.20636,-0.17845154,0.30143738,-0.1534729,-0.6921692
1606,A,124155318084812,-9.85849,-3.183197,-1.722992,-0.115615845,-0.18101501,-0.67848206
1606,A,124155368438816,-9.888626,-4.4835205,-1.377655,-0.06465149,0.031936646,0.30503845
1606,A,124155418792820,-9.761398,-5.8827667,-0.6504059,-0.16955566,0.041534424,0.34321594
1606,A,124155469146824,-11.19429,-4.175003,1.2543182,-0.46783447,-0.30485535,0.060699463
1606,A,124155519500828,-11.70607,-1.1839752,2.1064453,-0.39666748,-0.3595276,0.08277893
1606,A,124155569854832,-11.711548,-3.4891205,1.0561676,-0.31243896,-0.17274475,-0.11550903
1606,A,124155620208835,-8.304932,-4.241791,0.3605957,-0.3234253,-0.16140747,0.055419922
1606,A,124155670562839,-4.9969177,-1.1948853,-0.9480896,-0.72554016,0.5905304,-0.058761597
1606,A,124155720916843,-6.8397827,-1.5315247,-1.4328613,-0.21742249,-0.30575562,0.40776062
1606,A,124155771270847,-9.810516,-2.9210815,-1.1040802,0.057174683,-0.07081604,0.9818268
1606,A,124155821624851,-10.018509,-3.418274,-1.0980682,-0.24243164,0.09515381,0.08508301
1606,A,124155871978855,-12.043732,-4.20401,-2.049469,-0.07897949,0.06970215,-0.43289185
1606,A,124155922332859,-10.771393,-4.6282654,-1.9761505,0.24841309,0.14880371,-0.059814453
1606,A,124155972686863,-10.68129,-2.841568,2.855713,0.6381836,-0.31195068,0.11190796
1606,A,124156023040867,-9.730804,-2.8038483,3.603592,0.45695496,-0.2472992,0.049728394
1606,A,124156073394871,-11.09346,-3.3140259,0.49613953,0.27085876,0.46697998,-0.06674194
1606,A,124156123748875,-8.534164,-1.7580872,-0.41348267,0.4233551,0.21295166,-0.08615112
1606,A,124156174102878,-3.8650513,-1.3456116,0.16714478,0.3510437,0.41371155,-0.15464783
1606,A,124156224456882,-6.603592,-3.3460388,-0.5128937,0.49899292,-0.78349304,-0.30317688
1606,A,124156274810886,-11.67746,-4.085907,-0.6667633,-0.29356384,0.18826294,-0.61753845
1606,A,124156325164890,-9.85498,-3.6768646,-0.78564453,0.13531494,0.22434998,0.19429016
1606,A,124156375518894,-8.824493,-5.630844,-1.9842682,0.045791626,0.04838562,0.16357422
1606,A,124156425872898,-11.72644,-5.784958,-0.4990692,-0.8601074,-0.0040893555,0.1326294
1606,A,124156476226902,-10.83493,-1.6049194,4.209137,-0.12084961,-0.4515381,0.16836548
1606,A,124156526580906,-11.8719635,-0.8313446,0.9806366,0.011459351,-0.174469,-0.16516113
1606,A,124156576934910,-9.5720215,-5.571808,1.4290924,-0.27912903,-0.12963867,0.016342163
1606,A,124156627288914,-5.770935,-3.3385773,-0.64482117,-0.5136719,0.26808167,0.13339233
1606,A,124156677642917,-6.419998,-0.14312744,-1.2799835,-0.11029053,-0.068496704,0.043930054
1606,A,124156727996921,-8.657059,-1.4849243,-1.0781555,0.04711914,0.026275635,0.99671936
1606,A,124156778350925,-9.888626,-4.6736298,-0.82762146,-0.66748047,0.21911621,0.11730957
1606,A,124156828704929,-10.433228,-4.2699738,-1.7954712,-0.11105347,-0.53990173,-0.41696167
1606,A,124156879058933,-12.410675,-3.0436096,-3.6615295,0.09020996,0.20866394,-0.22756958
1606,A,124156929412937,-12.365784,-4.1873627,3.001709,0.16786194,-0.13775635,-0.21282959
1606,A,124156979766941,-10.15303,-2.3825378,3.5139465,0.30825806,-0.42314148,-0.010696411
1606,A,124157030120945,-7.550064,-3.1907043,0.33096313,0.13241577,0.1449585,0.12643433
1606,A,124157080474949,-10.548233,-1.7219543,0.38471985,0.30078125,0.014846802,-0.022705078
1606,A,124157130828953,-5.853607,-1.1654053,0.57562256,0.16950989,0.31936646,-0.12860107
1606,A,124157181182957,-5.5581665,-3.4987793,-1.0464783,0.063186646,0.16592407,-0.21347046
1606,A,124157231536960,-9.627502,-4.093216,-0.33251953,0.30854797,-0.32106018,-0.4931183
1606,A,124157281890964,-10.189072,-3.6246643,-0.94026184,0.2979126,0.023117065,-0.46444702
1606,A,124157332244968,-9.583206,-3.95755,-0.3487091,0.45265198,0.12164307,0.15293884
1606,A,124157382598972,-11.063904,-6.4680634,-0.88967896,-0.06159973,0.25328064,0.19607544
1606,A,124157432952976,-10.935089,-4.0783844,1.0838013,-0.21917725,-0.114089966,0.12361145
1606,A,124157483306980,-10.037018,0.15956116,3.4597473,-0.037124634,-0.3955536,0.1844635
1606,A,124157533660984,-11.100647,-2.5377045,0.66838074,-0.22702026,-0.13687134,-0.09637451
1606,A,124157584014988,-10.219254,-6.031128,0.27114868,-0.3766632,-0.039642334,-0.10395813
1606,A,124157634368992,-5.9038544,-1.7340698,-0.9863434,-0.35177612,0.26264954,0.14753723
1606,A,124157684722996,-6.12442,-1.1037903,-1.2795868,0.02508545,0.16026306,0.30245972
1606,A,124157735077000,-9.033661,-3.207962,-1.13414,0.10044861,0.28199768,0.51394653
1606,A,124157785431003,-10.339767,-3.361206,-1.141861,-0.049102783,0.30384827,-0.07862854
1606,A,124157835785007,-11.165726,-3.737854,-1.8384857,0.20162964,-0.17977905,-0.19624329
1606,A,124157886139011,-12.932846,-3.7612,-1.329956,0.17919922,0.14331055,0.0030975342
1606,A,124157936493015,-11.547058,-2.4821167,3.4640045,0.36660767,-0.09121704,0.019119263
1606,A,124157986847019,-9.279037,-2.4410553,2.606903,0.33502197,-0.14266968,0.16430664
1606,A,124158037201023,-8.609558,-3.5883636,0.23153687,0.27886963,0.1671753,0.27459717
1606,A,124158087555027,-8.261719,-2.6338806,0.2197876,0.25639343,0.21896362,-0.0796051
1606,A,124158137909031,-6.0684814,-1.9317932,0.023025513,-0.10783386,-0.47166443,-0.62583923
1606,A,124158188263035,-6.8866577,-3.2394562,-1.00383,-0.4428711,-0.33613586,-0.7566681
1606,A,124158238617039,-9.031189,-3.9929504,-0.96051025,-0.06336975,0.19055176,-0.16181946
1606,A,124158288971042,-9.853836,-3.705719,-1.1468353,0.5521393,-0.16900635,0.32756042
1606,A,124158339325046,-10.553436,-5.3513947,-1.6806183,0.0057373047,0.005630493,0.24598694
1606,A,124158389679050,-12.8428955,-5.819687,1.4730682,-0.1405487,0.20733643,0.20787048
1606,A,124158440033054,-11.7005005,-1.9312592,3.4781036,0.12251282,-0.058303833,0.028656006
1606,A,124158490387058,-8.95285,-0.3645935,1.2161713,-0.10081482,-0.070892334,-0.21362305
1606,A,124158540741062,-8.923935,-3.3661041,0.07687378,-0.18180847,-0.10165405,-0.04460144
1606,A,124158591095066,-8.629837,-3.4681244,0.24333191,-0.44055176,0.33206177,-0.07872009
1606,A,124158641449070,-7.430008,-1.3340759,-0.8891754,0.045669556,-0.21720886,0.30073547
1606,A,124158691803074,-7.632126,-1.8605652,-1.7289276,-0.0642395,0.47158813,0.5648651
1606,A,124158742157078,-9.417923,-4.198639,-1.5745392,-0.21992493,0.04119873,0.07081604
1606,A,124158792511082,-10.744629,-4.1467896,-1.4998322,-0.006210327,-0.30696106,-0.41166687
1606,A,124158842852400,-11.769089,-3.6450195,-1.660492,-0.0010681152,0.22891235,-0.2724762
1606,A,124158893206404,-13.097839,-3.2772522,2.38974,0.30656433,0.0077056885,0.04699707
1606,A,124158943560408,-8.907883,-3.0712433,2.29216,0.3400421,-0.18630981,0.11071777
1606,A,124158993914412,-9.068344,-3.5661926,-0.15582275,0.098083496,0.31944275,0.23350525
1606,A,124159044268416,-9.2323,-2.1520233,0.5595093,0.37675476,0.100860596,0.05343628
1606,A,124159094622420,-6.295761,-1.8517303,0.04597473,-0.060806274,0.15841675,-0.39549255
1606,A,124159144976424,-6.0480957,-3.1252136,-1.0733337,0.016906738,-0.61312866,-0.11824036
1606,A,124159195330428,-9.066895,-4.2345276,-0.83161926,-0.44992065,-0.29307556,-0.6355438
1606,A,124159245684432,-9.406158,-3.5498657,-1.089035,-0.31855774,0.10847473,0.07182312
1606,A,124159296038436,-9.072418,-4.8068085,-1.8709869,0.5562439,0.060180664,0.6074524
1606,A,124159346392440,-11.497711,-6.932663,-1.9511871,-0.528244,-0.006225586,0.046401978
1606,A,124159396746443,-10.601166,-3.3686523,4.543747,-0.41378784,-0.111572266,0.061447144
1606,A,124159447100447,-12.102158,0.5378876,2.014618,0.10952759,-0.024353027,-0.08251953
1606,A,124159497454451,-11.307571,-3.3261566,0.95661926,-0.2094574,-0.14768982,-0.2660675
1606,A,124159547808455,-6.1958923,-4.2012177,-0.80459595,-0.37786865,-0.20314026,0.2383728
1606,A,124159598162459,-6.939865,-1.1627197,-0.92344666,-0.43275452,0.76020813,-0.18937683
1606,A,124159648516463,-8.118942,-1.6452179,-0.839859,0.25735474,-0.96409607,0.8391113
1606,A,124159698870467,-9.038605,-3.0476074,-2.160904,-0.4816742,0.5172119,0.54896545
1606,A,124159749224471,-9.285904,-4.652405,-1.7019348,-0.38336182,-0.21255493,-0.5180969
1606,A,124159799578475,-12.884537,-3.5612946,-2.3048706,-0.04019165,0.1351471,-0.46917725
1606,A,124159849932479,-10.14827,-3.8212738,-0.25672913,0.13459778,0.235672,-0.034988403
1606,A,124159900286482,-11.26207,-3.033493,4.3174133,0.56185913,-0.38519287,0.010574341
1606,A,124159950640486,-8.159317,-3.4738922,1.7176361,0.30197144,-0.012680054,0.23999023
1606,A,124160000994490,-10.53595,-2.6169128,-0.10298157,0.26104736,0.09446716,0.10321045
1606,A,124160051348494,-7.3297577,-0.8901825,0.3126068,0.27464294,0.29663086,-0.28881836
1606,A,124160101702498,-3.7570648,-1.9900208,-0.26887512,0.59132385,0.55384827,-0.118774414
1606,A,124160152056502,-8.3120575,-5.4001465,-1.0555573,0.71780396,-0.49447632,-0.26013184
1606,A,124160202410506,-11.374008,-4.503128,-1.312851,-0.08959961,0.03201294,-0.5870819
1606,A,124160252764510,-9.535568,-3.5534058,-1.0224762,-0.04901123,0.44570923,0.27233887
1606,A,124160303118514,-10.675232,-5.6899567,-1.3629913,-0.39909363,0.034317017,0.14448547
1606,A,124160353472518,-10.542709,-3.3457031,1.3834076,-0.67749023,-0.5147705,0.22015381
1606,A,124160403826522,-9.712997,0.061431885,3.7245483,-0.32287598,-0.42900085,0.09085083
1606,A,124160454180525,-14.3042755,-4.8877563,0.68203735,-0.38409424,-0.06825256,-0.18493652
1606,A,124160504534529,-7.413849,-6.274231,0.16052246,-0.42466736,0.06794739,-0.024551392
1606,A,124160554888533,-4.055191,-1.4617615,-1.3496094,-0.17532349,0.09642029,0.16026306
1606,A,124160605242537,-7.337784,-1.0752563,-1.2042389,0.17448425,-0.14878845,0.5959625
1606,A,124160655596541,-10.006073,-3.1212769,-1.1029663,-0.2874756,0.24069214,0.3690033
1606,A,124160705950545,-10.159576,-4.0094757,-1.506012,-0.20298767,-0.11590576,-0.32202148
1606,A,124160756304549,-11.147064,-3.835434,-2.5782166,0.23410034,0.21878052,-0.2822113
1606,A,124160806658553,-12.637329,-3.982315,-0.38438416,0.3535614,0.31324768,-0.15725708
1606,A,124160857012557,-11.403961,-2.9502563,3.7448425,0.38594055,-0.21035767,-0.03135681
1606,A,124160907366561,-8.988693,-2.7943726,1.5915833,0.32843018,-0.15029907,0.36209106
1606,A,124160957720565,-9.741348,-2.7703552,0.3083191,0.49809265,-0.009613037,0.24708557
1606,A,124161008074568,-7.3002777,-0.9808197,0.64082336,0.20361328,0.24864197,-0.49996948
1606,A,124161058428572,-4.8138275,-2.4350433,-0.5079498,0.11714172,0.2514038,-0.1763916
1606,A,124161108782576,-7.5989685,-4.7454376,-0.9220886,0.3896942,-0.37983704,-0.0118255615
1606,A,124161159136580,-10.170776,-3.7697296,-0.6828613,-0.17341614,-0.34259033,-0.45410156
1606,A,124161209490584,-10.809326,-3.9091034,-1.3116455,-0.13243103,0.46569824,0.020736694
1606,A,124161259844588,-11.3120575,-6.560913,-2.2634583,-0.07246399,0.47328186,0.09037781
1606,A,124161310198592,-9.653595,-4.9371643,1.2840118,-0.5068054,-0.37210083,-0.0043792725
1606,A,124161360552596,-9.445587,0.52334595,2.9358368,-0.37280273,-0.5506592,0.21063232
1606,A,124161410906600,-13.996323,-2.1149445,1.701889,-0.44381714,-0.13140869,-0.13517761
1606,A,124161461260604,-9.864212,-5.1542206,0.51997375,-0.55677795,-0.38813782,-0.14318848
1606,A,124161511614607,-4.2029266,-2.2400665,-1.4884644,-0.6123352,0.38705444,0.04940796
1606,A,124161561968611,-6.337723,-1.6591339,-1.7673187,0.2345581,-0.48414612,0.6233673
1606,A,124161612322615,-9.517105,-3.5543823,-1.1009521,0.085861206,0.17010498,0.63175964
1606,A,124161662676619,-9.617126,-3.5289612,-1.5319672,-0.23571777,0.15197754,-0.22065735
1606,A,124161713030623,-11.779007,-3.9752808,-2.4635315,0.1038208,-0.03300476,-0.3506775
1606,A,124161763384627,-11.421036,-4.1983337,-1.7464142,0.27960205,0.27297974,0.039016724
1606,A,124161813738631,-11.834488,-1.9546509,3.5436249,0.6759491,-0.042114258,-0.03514099
1606,A,124161864092635,-9.472473,-2.7885742,3.7643585,0.67077637,-0.18296814,0.19569397
1606,A,124161914446639,-9.697266,-4.274109,0.32112122,0.4636383,0.34707642,0.37675476
1606,A,124161964800643,-8.729324,-1.9287109,0.17256165,0.5383606,0.36332703,-0.42495728
1606,A,124162015154647,-4.5937805,-0.45100403,0.40177917,0.36444092,0.6203003,-0.41090393
1606,A,124162065508650,-6.215317,-3.9273071,-0.6619415,0.7253418,-0.6700592,0.1000824
1606,A,124162115862654,-10.486984,-4.446823,-0.729187,-0.050491333,0.097213745,-0.837265
1606,A,124162166216658,-10.511978,-2.6766968,-0.02772522,0.19012451,0.46873474,-0.078811646
1606,A,124162216570662,-9.929337,-5.874176,-2.0951538,0.18200684,0.1689148,0.19804382
1606,A,124162266924666,-11.403046,-6.4146423,-0.9946747,-0.6730957,-0.08799744,-0.012191772
1606,A,124162317278670,-9.506226,-0.0670166,5.4243317,-0.13328552,-0.49964905,0.08834839
1606,A,124162367632674,-14.9808655,-1.1379395,1.0983887,-0.118118286,0.09277344,-0.14727783
1606,A,124162417986678,-10.054565,-5.8071594,2.24971,-0.44184875,0.031921387,-0.23339844
1606,A,124162468340682,-4.2988434,-2.6421356,-1.1407166,-0.61701965,-0.14204407,0.13378906
1606,A,124162518694686,-6.6977386,-0.062316895,-1.5591736,-0.8138428,0.6161194,-0.19793701
1606,A,124162569048690,-8.34053,-2.456604,-0.5690155,0.41604614,-1.4897308,1.4781799
1606,A,124162619402693,-9.156586,-3.9639282,-1.6802521,-0.044052124,0.7815094,0.33807373
1606,A,124162669756697,-8.631958,-3.9810486,-1.9129486,0.25653076,-0.2099762,-0.9217377
1606,A,124162720110701,-11.918472,-4.4878845,-3.3544464,0.44075012,0.33494568,-0.17453003
1606,A,124162770464705,-8.522736,-5.051178,-0.7863312,0.56791687,0.0087890625,0.2666626
1606,A,124162820818709,-14.287003,-1.7206879,7.5749207,0.6701355,-0.28263855,0.028793335
1606,A,124162871172713,-7.5518646,-0.9820709,1.7402191,0.32806396,0.30641174,0.22579956
1606,A,124162921526717,-11.421234,-4.117035,-0.7805481,0.22566223,0.14778137,0.24595642
1606,A,124162971880721,-6.68544,-3.1574097,0.53256226,0.3478546,0.15010071,-0.045272827
1606,A,124163022234725,-4.3191833,-2.0205078,-0.13557434,0.23706055,0.27363586,-0.33694458
1606,A,124163072588729,-9.248428,-3.9935303,-0.8645325,0.35461426,-0.535141,-0.36010742
1606,A,124163122942732,-9.873322,-4.9246063,-1.3312988,-0.19300842,-0.022064209,-0.40548706
1606,A,124163173296736,-8.087799,-3.8327026,-0.85494995,-0.035324097,-3.2043457E-4,0.23971558
1606,A,124163223650740,-10.079025,-5.235428,-1.5461121,-0.11680603,0.09036255,0.13894653
1606,A,124163274004744,-11.64502,-4.4015656,0.015426636,-0.4682312,-0.09599304,-4.119873E-4
1606,A,124163324358748,-10.645218,-0.7075958,3.6447296,-0.27174377,-0.45603943,0.16275024
1606,A,124163374712752,-12.047958,-2.694168,0.7273865,-0.3337555,-0.12501526,-0.045639038
1606,A,124163425066756,-9.41983,-4.0136414,1.0250549,-0.41215515,-0.09147644,-0.20037842
1606,A,124163475420760,-6.3723145,-1.605423,-1.0016937,-0.50045776,0.21617126,0.03327942
1606,A,124163525774764,-6.641281,-1.7337341,-1.3491211,-0.31988525,0.25346375,0.3616333
1606,A,124163576128768,-8.793854,-2.9703522,-1.0740662,-0.2798462,-0.12232971,0.6752167
1606,A,124163626482772,-10.2400055,-2.673584,-1.3371887,-0.69673157,-0.009140015,0.27453613
1606,A,124163676836775,-11.268768,-3.8387756,-1.8261719,-0.5287323,-0.42637634,-0.28390503
1606,A,124163727190779,-12.540253,-4.298874,-1.7693176,-0.33502197,-0.05606079,-0.25483704
1606,A,124163777544783,-11.109131,-3.7610474,0.939682,0.007751465,-0.08102417,-0.0987854
1606,A,124163827898787,-9.591278,-3.3534088,2.8901367,0.31448364,-0.28749084,0.05987549
1606,A,124163878252791,-8.235367,-3.5464325,1.2420197,0.20223999,0.07891846,0.19087219
1606,A,124163928606795,-9.593842,-2.653778,0.50709534,0.30543518,0.28788757,-0.0332489
1606,A,124163978960799,-7.137207,-1.0211487,0.44424438,0.18383789,0.3417511,-0.54730225
1606,A,124164029314803,-5.793686,-2.622055,-0.47123718,0.115371704,0.038269043,-0.20303345
1606,A,124164079668807,-8.841766,-4.4416046,-0.8407593,0.3959198,-0.408844,-0.17024231
1606,A,124164130022811,-10.366104,-3.8202667,-0.84895325,0.24092102,-0.21603394,-0.4239502
1606,A,124164180376815,-9.933029,-5.0270233,-1.1494904,0.2891693,0.3270874,0.0034179688
1606,A,124164230730818,-10.1548,-6.832428,-2.3074493,-0.032684326,0.27511597,0.1252594
1606,A,124164281084822,-9.436768,-4.48201,1.0766449,-0.30718994,-0.2532959,0.15481567
1606,A,124164331438826,-9.610779,0.46704102,2.672821,-0.13447571,-0.47465515,0.13397217
1606,A,124164381792830,-14.071075,-1.432251,1.5653229,-0.22888184,-0.23522949,-0.20263672
1606,A,124164432146834,-9.896576,-5.49646,0.4526062,-0.56703186,-0.26707458,-0.13328552
1606,A,124164482500838,-4.7104187,-3.0957947,-0.8355713,-0.63887024,0.08911133,0.042526245
1606,A,124164532854842,-6.5918427,-0.93125916,-1.7387238,0.26968384,-0.44718933,0.6727905
1606,A,124164583208846,-9.625122,-2.859604,-1.3131561,-0.11413574,0.15588379,0.5674591
1606,A,124164633562850,-9.707596,-4.9205627,-0.95539856,-0.19430542,-0.24591064,-0.0070495605
1606,A,124164683916854,-11.361038,-4.5750885,-1.950882,-0.16877747,0.139328,-0.114151
1606,A,124164734270857,-12.341522,-3.1377563,-0.14369202,-0.09005737,0.33711243,-0.2064209
1606,A,124164784624861,-12.391342,-2.2439423,3.0509644,0.33877563,-0.18991089,-0.14212036
1606,A,124164834978865,-7.8211517,-2.486618,2.8697205,0.2796173,0.14477539,0.16331482
1606,A,124164885332869,-10.49588,-4.84671,1.1129303,0.1299591,0.24429321,-0.07102966
1606,A,124164935686873,-8.377426,-1.2369385,0.80784607,0.28253174,-0.018676758,-0.049087524
1606,A,124164986040877,-4.6641693,-1.2072754,-0.08778381,0.054626465,0.38232422,-0.3721161
1606,A,124165036394881,-7.168869,-4.031418,0.43434143,0.36112976,0.21560669,-0.13108826
1606,A,124165086748885,-9.672531,-4.619522,-0.9332733,0.34210205,-0.048721313,-0.66908264
1606,A,124165137102889,-9.418259,-4.144409,-1.0418854,0.17550659,0.044296265,-0.0544281
1606,A,124165187456893,-9.76976,-5.3722687,-0.46058655,0.47488403,0.12338257,0.50964355
1606,A,124165237810897,-12.08432,-5.9456635,-1.46315,-0.33052063,0.4494171,-0.0014038086
1606,A,124165288164900,-9.661346,-2.5199738,3.4335632,-0.06266785,-0.09703064,0.21728516
1606,A,124165338518904,-8.761642,1.769516,1.3330383,0.05305481,-0.019515991,0.1010437
1606,A,124165388872908,-13.346207,-4.800461,0.8973541,-0.35043335,0.1943512,-0.33613586
1606,A,124165439226912,-7.6859283,-5.3121185,-0.03866577,-0.38917542,-0.29067993,0.07876587
1606,A,124165489580916,-6.081543,-0.35853577,-0.7873993,-0.4326477,0.25512695,0.15814209
1606,A,124165539934920,-7.6982574,-1.1165771,-1.6223907,0.18890381,-0.049942017,0.7239227
1606,A,124165590288924,-9.353836,-3.7361603,-1.466568,-0.44725037,0.21212769,0.18493652
1606,A,124165640642928,-9.185059,-3.9170074,-1.7893677,-0.30212402,-0.3798828,-0.28396606
1606,A,124165690996932,-10.700165,-4.4820557,-2.7802124,0.057800293,0.12654114,-0.48449707
1606,A,124165741350936,-12.906723,-3.560852,0.41407776,0.1772461,0.09088135,-0.39881897
1606,A,124165791704940,-11.9328,-1.8821411,3.083786,0.36766052,-0.21836853,-0.030029297
1606,A,124165842058943,-7.424515,-4.0430756,1.2826233,0.16603088,-0.0101623535,0.21003723
1606,A,124165892412947,-10.198242,-2.6941376,0.2480011,0.16842651,0.031143188,0.010665894
1606,A,124165942766951,-7.5652466,0.09767151,0.77767944,0.24928284,0.16616821,-0.2949524
1606,A,124165993120955,-4.772476,-2.7641907,-0.87750244,0.21444702,0.3644104,-0.25956726
1606,A,124166043474959,-7.785309,-5.0054626,-0.8678894,0.5662689,-0.12220764,-0.09182739
1606,A,124166093828963,-9.698853,-4.2762146,-1.318222,0.42601013,0.012054443,-0.35211182
1606,A,124166144182967,-9.729523,-4.296234,-1.0281525,0.6963043,0.30700684,0.2358551
1606,A,124166194536971,-10.591995,-5.786133,-1.2047577,0.599411,0.47587585,0.31011963
1606,A,124166244890975,-10.875061,-4.713394,-0.070632935,0.0463562,0.1055603,0.19903564
1606,A,124166295244979,-10.319077,-1.1721802,3.1459656,-0.13676453,-0.18925476,0.23631287
1606,A,124166345598982,-11.848099,-0.45903015,1.2798157,-0.49293518,-0.24020386,-0.077301025
1606,A,124166395952986,-10.669083,-4.5230713,1.1533966,-0.42788696,-0.31521606,-0.084121704
1606,A,124166446306990,-5.5066223,-2.8079987,-1.0360413,-0.43537903,0.1598053,-0.06387329
1606,A,124166496660994,-6.22583,-1.9067078,-1.9871063,-0.55989075,-0.11784363,-0.08078003
1606,A,124166547014998,-8.316376,-3.6534271,-2.5650024,0.025268555,-0.7127533,0.4928894
1606,A,124166597369002,-8.85376,-3.1299438,-1.6144104,-0.2046814,0.037719727,0.27549744
1606,A,124166647723006,-11.197372,-2.8332672,-1.5892029,-0.121795654,0.049743652,-0.49339294
1606,A,124166698077010,-11.723206,-4.7472687,-3.191162,0.45809937,-0.0074310303,-0.33638
1606,A,124166748431014,-11.003586,-4.7795105,-0.46455383,0.49006653,0.04826355,0.048461914
1606,A,124166798785018,-11.903137,-2.1958466,4.521576,0.5159607,0.032180786,0.020553589
1606,A,124166849139022,-9.671997,-2.1496124,2.671936,0.3069458,0.31202698,0.045074463
1606,A,124166899493025,-8.903122,-2.4123993,0.027572632,0.5559845,-0.05491638,0.43771362
1606,A,124166949847029,-7.0812073,-1.960022,0.6173248,0.8863373,0.06138611,0.342865
1606,A,124167000201033,-5.9726105,-3.0779114,0.29794312,0.6845856,0.68811035,-0.08181763
1606,A,124167050555037,-8.353806,-4.26062,-0.5224457,0.75427246,-0.6267395,0.25793457
1606,A,124167100909041,-8.830765,-4.111023,-1.0416565,-0.20213318,-0.38749695,0.21310425
1606,A,124167151263045,-9.429977,-3.4339294,-0.1875,-0.58644104,-0.043502808,-0.2566986
1606,A,124167201617049,-11.5759735,-5.0503235,-0.38897705,-0.6506653,0.04727173,0.0128479
1606,A,124167251971053,-9.336487,-6.7697296,-0.6583557,-1.0387421,-0.1789856,0.12463379
1606,A,124167302325057,-7.3459167,-3.8026733,1.9416962,-1.0237122,-0.49331665,0.07347107
1606,A,124167352679061,-15.734741,-0.55615234,1.6689606,-1.1303253,0.09335327,-0.16722107
1606,A,124167403033065,-12.279373,-4.288803,1.0095367,-1.3712311,-0.14694214,-0.30937195
1606,A,124167453387068,-5.7233124,-1.6323853,-0.2621765,-0.9332886,-0.7850647,0.14778137
1606,A,124167503741072,-5.8426514,-0.5477905,-1.2970581,-1.0423126,0.17622375,-0.37364197
1606,A,124167554095076,-8.011688,-2.039856,0.71507263,-0.6407013,-0.4748993,-0.03112793
1606,A,124167604449080,-7.558777,-2.3024292,-1.2500153,-0.18267822,0.15797424,0.74121094
1606,A,124167654803084,-6.9690247,-4.1089478,-1.1285553,0.08480835,-0.2034607,0.061904907
1606,A,124167705157088,-12.743134,-3.77977,-0.26249695,0.77944946,0.29248047,-0.7128906
1606,A,124167755511092,-13.945816,-4.4723206,-3.1648865,0.996109,0.8792114,-0.63752747
1606,A,124167805865096,-13.078903,-2.3358307,1.7654419,1.1678009,0.60536194,0.081222534
1606,A,124167856219100,-10.764877,-3.3296204,5.764801,1.5784912,0.19258118,0.14668274
1606,A,124167906573104,-11.238586,-3.5835876,2.52359,1.1392975,0.73013306,-0.004211426
1606,A,124167956927107,-10.286346,-0.009735107,2.2251282,1.4093628,0.4487915,0.26333618
1606,A,124168007281111,-4.066864,-1.2128754,1.3198395,1.0672913,0.5454254,0.24230957
1606,A,124168057635115,-4.539871,-4.8495483,-0.078445435,0.36691284,0.6814575,-0.5228729
1606,A,124168107989119,-8.043808,-3.4403229,-0.13438416,0.4452362,-0.95910645,-0.3270874
1606,A,124168158343123,-7.525055,-3.6669617,-1.1768036,-0.6451874,0.44717407,0.11843872
1606,A,124168208697127,-9.456223,-5.2841034,-1.1584167,-0.9456787,-0.0723114,-0.31932068
1606,A,124168259051131,-10.902039,-6.5046844,-0.6612396,-0.97869873,-0.5365906,0.4982605
1606,A,124168309405135,-9.808746,-7.3786926,-1.4212036,-0.97836304,-0.2049408,0.30104065
1606,A,124168359759139,-11.146088,-3.0004425,1.9689789,-0.80255127,-0.25245667,0.40881348
1606,A,124168410113143,-14.524628,-1.7053528,0.99684143,-0.3656311,-0.1986084,-0.20397949
1606,A,124168460467147,-7.9924316,-5.731949,-0.8969116,-0.5015869,-0.17529297,-0.4513855
1606,A,124168510821150,-5.9006042,0.25917053,0.3637848,-0.46743774,-0.6538696,0.27516174
1606,A,124168561175154,-5.811493,-0.19863892,-0.82077026,-0.7126007,0.23640442,-0.07287598
1606,A,124168611529158,-8.513245,-2.399231,-0.8222809,-0.3276825,0.1348877,-0.014160156
1606,A,124168661883162,-9.912689,-2.7495117,-0.5669403,0.67012024,-0.34698486,0.9144592
1606,A,124168712237166,-7.981476,-6.1207886,-2.473755,-0.21461487,0.05999756,0.007797241
1606,A,124168762591170,-11.899902,-3.9608612,-1.090271,-0.40403748,-0.14317322,-0.4064331
1606,A,124168812934259,-13.161209,-2.1109467,-2.8722534,0.3666687,0.10244751,-0.36457825
1606,A,124168863288263,-10.953995,-3.1276703,0.65689087,0.26724243,-0.022964478,-0.30358887
1606,A,124168913642267,-10.599045,-1.18396,4.2372437,0.21669006,-0.19366455,0.025009155
1606,A,124168963996271,-9.260635,-3.7442322,1.3023529,0.1856842,0.08834839,0.3342743
1606,A,124169014350275,-9.763336,-3.3729858,0.20568848,0.10121155,0.006790161,0.025512695
1606,A,124169064704278,-6.2452545,-0.4069214,0.5251465,-0.07545471,0.09033203,-0.17749023
1606,A,124169115058282,-4.673477,-3.0497894,-0.77716064,0.40023804,0.41015625,-0.2902832
1606,A,124169165412286,-8.345703,-5.213257,-0.746048,0.8502655,-0.079559326,-0.44836426
1606,A,124169215766290,-10.047974,-3.643036,-1.6365051,0.22479248,0.045791626,-0.21577454
1606,A,124169266120294,-9.92778,-4.035507,-1.5118256,0.16661072,0.4915161,0.108184814
1606,A,124169316474298,-11.75914,-5.179199,-1.3983917,-0.052993774,0.48266602,0.10446167
1606,A,124169366828302,-11.548416,-3.4043274,0.6211853,-0.18844604,0.0034942627,0.24281311
1606,A,124169417182306,-9.85112,-2.5565948,3.5247192,0.073516846,-0.34448242,0.13867188
1606,A,124169467536310,-12.502121,-3.2445526,1.4398041,-0.07269287,-0.0493927,-0.16220093
1606,A,124169517890314,-9.537384,-4.713272,0.55181885,-0.2751007,-0.010406494,-0.019622803
1606,A,124169568244317,-4.2822113,-2.4276886,-0.676651,-0.53330994,0.15667725,0.027832031
1606,A,124169618598321,-4.8297424,-0.8995819,-1.7348328,-0.27664185,-0.33457947,0.47639465
1606,A,124169668952325,-9.233276,-2.8320313,-1.5361786,-0.49072266,-0.318985,0.62498474
1606,A,124169719306329,-10.610916,-4.93631,-1.0852509,-0.90356445,-0.12738037,-0.035247803
1606,A,124169769660333,-10.436554,-4.6916504,-2.19664,-0.37106323,-0.07008362,-0.4730835
1606,A,124169820014337,-10.6684265,-5.34079,-2.6048431,-0.0940094,0.13191223,-0.30717468
1606,A,124169870368341,-11.445419,-3.9300995,2.053543,-0.054214478,-0.32418823,-0.04837036
1606,A,124169920722345,-9.934082,-2.1273346,3.8287354,0.017730713,-0.42089844,0.26878357
1606,A,124169971076349,-9.893448,-2.9456482,0.65289307,-0.076675415,-0.14170837,0.19894409
1606,A,124170021430353,-8.996597,-1.7344208,0.20532227,-0.09869385,-0.0801239,-0.24404907
1606,A,124170071784357,-4.398468,-1.5545807,-0.20314026,0.109176636,0.3235016,-0.2263794
1606,A,124170122138360,-5.2843018,-3.973175,-1.098877,1.1502228,-0.5151825,-0.4412384
1606,A,124170172492364,-9.329361,-4.137192,-1.3464203,0.44796753,0.22306824,-0.46276855
1606,A,124170222846368,-10.206772,-3.3310394,-0.953949,0.5566406,0.4698639,0.19915771
1606,A,124170273200372,-10.5681,-5.3901367,-1.968689,0.46723938,0.62934875,0.3284912
1606,A,124170323554376,-12.685684,-3.990509,-0.5332489,-0.12554932,0.18937683,0.1754303
1606,A,124170373908380,-11.4795685,-2.4146729,3.8030853,0.27816772,-0.113723755,0.079330444
1606,A,124170424262384,-12.578629,-2.4699707,2.0059052,0.22613525,-0.05822754,-0.17588806
1606,A,124170474616388,-10.389847,-5.8269806,1.0960541,0.059005737,-0.26301575,0.14944458
1606,A,124170524970392,-4.8145447,-2.6283264,-0.2647705,-0.433609,0.62364197,0.058685303
1606,A,124170575324396,-5.2035217,-0.22000122,-1.0553436,-0.35954285,-0.10202026,0.1108551
1606,A,124170625678400,-8.316086,-2.395584,-2.0242767,-0.12805176,-0.06617737,0.9477844
1606,A,124170676032403,-8.81282,-4.5055084,-1.1191406,-0.8274994,-0.020523071,-0.23764038
1606,A,124170726386407,-11.256561,-4.523834,-1.5220184,-0.4900055,-0.39001465,-0.54878235
1606,A,124170776740411,-12.176346,-5.0920258,-4.0574493,-0.18527222,0.11239624,-0.23431396
1606,A,124170827094415,-12.880585,-3.4028473,1.9043121,-0.017868042,0.006576538,-0.240448
1606,A,124170877448419,-10.825317,-2.0287628,4.1400757,0.079818726,-0.33096313,-0.05168152
1606,A,124170927802423,-9.392242,-3.9844666,-0.060043335,-0.13728333,0.260849,0.27319336
1606,A,124170978156427,-9.52652,-2.1113281,0.14099121,0.31471252,-0.39292908,-0.025344849
1606,A,124171028510431,-4.9445496,0.47406006,0.769989,-0.18347168,0.45152283,-0.52215576
1606,A,124171078864435,-5.8299103,-4.6966705,-1.2718811,0.6779022,0.15429688,0.012374878
1606,A,124171129218439,-9.825378,-5.588669,-0.82543945,1.0609436,-0.21984863,-0.65296936
1606,A,124171179572442,-8.96933,-2.6354523,-1.7335205,0.18673706,0.46237183,0.002319336
1606,A,124171229926446,-9.501755,-4.4349976,-0.77763367,0.52560425,0.572876,0.39006042
1606,A,124171280280450,-12.584534,-6.7264404,-1.7694397,0.025894165,0.10372925,0.098724365
1606,A,124171330634454,-10.372787,-1.7708588,4.173126,-0.16566467,-0.59002686,0.29136658
1606,A,124171380988458,-12.53656,-1.0572205,1.3343964,-0.14935303,-0.25195313,-0.028335571
1606,A,124171431342462,-12.857605,-5.126297,1.1150055,-0.3476715,-0.075027466,-0.23016357
1606,A,124171481696466,-4.203369,-3.460846,-0.37083435,-0.57199097,-0.2509613,0.1472168
1606,A,124171532050470,-3.6237335,-1.2473145,-2.0844421,-0.9913788,0.18702698,0.073150635
1606,A,124171582404474,-8.554886,-2.081192,-1.9191742,-0.113601685,-0.55140686,0.69818115
1606,A,124171632758478,-10.202469,-3.2548065,-1.0380096,0.0049743652,0.24971008,0.6358795
1606,A,124171683112482,-9.128311,-4.618271,-2.0191956,-0.50050354,-0.19270325,-0.49674988
1606,A,124171733466485,-11.399963,-5.636551,-3.445694,0.024353027,-0.2578125,-0.2462616
1606,A,124171783820489,-11.312927,-3.528366,-2.0265503,0.31245422,0.21969604,0.017623901
1606,A,124171834174493,-14.324921,-1.4228363,5.010437,0.5168457,-0.13627625,-0.10998535
1606,A,124171884528497,-10.307983,-3.1861572,2.2342224,0.41889954,-0.22288513,0.22146606
1606,A,124171934882501,-9.418823,-4.3448334,-0.8873291,0.23468018,0.084991455,0.37072754
1606,A,124171985236505,-7.6894226,-1.3908386,0.64149475,0.29493713,0.23461914,-0.1081543
1606,A,124172035590509,-4.9254,-0.98236084,0.5641632,0.5084686,0.3567047,-0.26589966
1606,A,124172085944513,-7.3859863,-4.5377655,-1.2834625,0.65423584,-0.17533875,-0.41482544
1606,A,124172136298517,-9.582306,-4.5859985,-0.7502136,-0.0110321045,-0.13827515,-0.59806824
1606,A,124172186652521,-9.92337,-3.5637665,-1.2942505,-0.0066375732,0.14916992,0.08758545
1606,A,124172237006525,-11.375549,-4.311859,-1.7507324,-0.18530273,0.16537476,0.1251831
1606,A,124172287360528,-10.998154,-3.7201538,1.1470795,-0.54704285,-0.16946411,-0.051483154
1606,A,124172337714532,-10.447845,-2.1730652,3.2977905,-0.38381958,-0.20626831,-0.1599884
1606,A,124172388068536,-12.442902,-3.1437683,1.4826202,-0.322464,-0.210495,-0.09513855
1606,A,124172438422540,-8.84996,-4.203415,1.275116,-0.3672943,-0.3523407,0.18870544
1606,A,124172488776544,-5.3641205,-2.3664856,-0.94229126,-0.23768616,-0.06942749,0.2442627
1606,A,124172539130548,-6.923416,-1.922821,-1.3954773,0.16896057,0.18644714,0.43676758
1606,A,124172589484552,-8.040527,-3.085144,-1.1191406,-0.008758545,0.03529358,0.14222717
1606,A,124172639838556,-8.234314,-3.504898,-1.2206268,-0.051498413,0.06303406,-0.2659912
1606,A,124172690192560,-11.02652,-4.5607147,-2.0736237,0.034835815,0.5203705,-0.40351868
1606,A,124172740546564,-14.204437,-3.1333618,1.3231506,0.25376892,0.14685059,-0.32177734
1606,A,124172790900567,-11.886063,-1.9566956,3.3473969,0.2735443,-0.1676178,0.0716095
1606,A,124172841254571,-10.757095,-3.9654846,1.7469025,0.024719238,0.16548157,0.23414612
1606,A,124172891608575,-10.871796,-3.1080017,0.58158875,0.2118988,0.06594849,0.039916992
1606,A,124172941962579,-5.7875214,-0.59710693,0.20652771,0.09086609,0.004196167,-0.30108643
1606,A,124172992316583,-3.897049,-3.0302582,-0.27737427,0.07336426,-0.4636078,-0.16192627
1606,A,124173042670587,-7.959442,-4.9080505,-0.4747467,0.09510803,-0.2111969,-0.5653534
1606,A,124173093024591,-10.076141,-3.528183,-1.038208,-0.047805786,0.082092285,-0.12895203
1606,A,124173143378595,-9.72998,-4.0920105,-1.6988373,0.3414154,0.2783661,0.2716217
1606,A,124173193732599,-10.7148285,-6.5503693,-2.0054474,-0.13798523,0.55862427,0.44711304
1606,A,124173244086603,-11.421249,-5.227707,2.1212616,-0.36436462,0.056915283,0.32107544
1606,A,124173294440607,-11.243286,-0.45817566,3.5630798,0.06253052,-0.7875824,0.27394104
1606,A,124173344794610,-11.623642,-1.9726105,1.5301361,-0.38879395,-0.1429596,-0.12617493
1606,A,124173395148614,-9.162506,-5.873169,0.6272583,-0.21406555,-0.22921753,0.330307
1606,A,124173445502618,-5.357544,-2.5499878,-0.5941162,-0.294281,0.6698456,0.5648804
1606,A,124173495856622,-5.8211365,-0.051757813,-1.3493805,0.5693054,-0.6768036,0.70654297
1606,A,124173546210626,-8.421295,-1.6856537,-1.1652222,0.073028564,0.72146606,0.30749512
1606,A,124173596564630,-10.704941,-4.7732086,-1.4107819,-0.37753296,-0.57624817,-0.016937256
1606,A,124173646918634,-11.908279,-5.0769043,-1.407074,-0.37054443,-0.5758209,-0.3895111
1606,A,124173697272638,-12.077774,-2.934967,-1.9041443,-0.07392883,0.7190399,-0.43902588
1606,A,124173747626642,-13.063919,-1.5772552,3.115219,0.081832886,-0.020401001,-0.32940674
1606,A,124173797980646,-7.814438,-0.60998535,2.2681885,0.007751465,0.035079956,-0.056915283
1606,A,124173848334650,-8.782684,-4.6142426,0.23526001,0.1426239,0.23034668,0.22903442
1606,A,124173898688653,-10.658539,-2.020279,2.2391663,0.40348816,-0.13841248,-0.24559021
1606,A,124173949042657,-5.3776703,-0.52719116,0.09513855,0.32789612,0.1317749,-1.0768433
1606,A,124173999396661,-6.6233826,-3.8148346,-1.5540161,0.3386383,-0.2049408,0.06451416
1606,A,124174049750665,-8.767929,-4.807831,-0.2781372,0.3594818,-0.8301697,-0.14897156
1606,A,124174100104669,-8.900177,-2.2412262,-1.4463043,-0.09623718,0.36289978,-0.07991028
1606,A,124174150458673,-10.288742,-2.8227844,-1.1130829,0.47987366,0.27905273,0.1769867
1606,A,124174200812677,-11.754822,-8.1805725,-1.4102783,0.11010742,0.48506165,0.16174316
1606,A,124174251166681,-10.016266,-5.1254883,1.4775391,-0.07060242,0.16018677,0.013656616
1606,A,124174301520685,-9.611923,-1.1245422,4.5131073,0.06486511,-0.27189636,-0.032546997
1606,A,124174351874689,-12.802872,-0.537735,0.5948639,-0.13638306,-0.36676025,-0.068344116
1606,A,124174402228692,-8.773315,-5.059662,0.5806427,-0.57255554,-0.019821167,0.025939941
1606,A,124174452582696,-4.56781,-1.7791901,-0.8165283,-0.7176361,0.5175781,0.11123657
1606,A,124174502936700,-6.4306793,-0.2253418,-2.5608826,0.13267517,-0.33410645,0.7178955
1606,A,124174553290704,-8.682098,-3.3044586,-1.2506104,0.09062195,0.3530426,0.70025635
1606,A,124174603644708,-10.820206,-5.2707825,-0.8694,-0.6741333,0.16091919,-0.37849426
1606,A,124174653998712,-12.724045,-4.674576,-2.2016602,-0.14622498,-0.07841492,-0.21005249
1606,A,124174704352716,-11.663223,-3.45549,-1.4884949,0.40234375,0.008453369,-0.038589478
1606,A,124174754706720,-11.953644,-1.7412109,4.491928,0.52723694,-0.32969666,-0.1512909
1606,A,124174805060724,-10.810303,-3.1261597,3.5093536,0.13008118,-0.13014221,0.22273254
1606,A,124174855414728,-8.996841,-3.3082123,-0.19815063,0.022598267,0.0022583008,0.3489685
1606,A,124174905768732,-6.748169,-0.73786926,0.07637024,0.19073486,-0.040145874,-0.23408508
1606,A,124174956122735,-4.798645,-1.1942749,0.4832611,0.12896729,0.23568726,-0.41764832
1606,A,124175006476739,-8.058975,-5.1862793,-0.71502686,0.2850647,-0.23013306,-0.21594238
1606,A,124175056830743,-9.615799,-4.855606,-0.84017944,0.103897095,-0.26817322,-0.5618439
1606,A,124175107184747,-9.6779175,-2.9104462,-1.4559631,0.04434204,0.35705566,-0.046722412
1606,A,124175157538751,-11.250778,-4.7543793,-1.2935181,-0.045410156,0.4962921,0.31715393
1606,A,124175207892755,-11.272278,-6.0370483,-0.021652222,-0.49812317,-0.05366516,0.120513916
1606,A,124175258246759,-10.290894,-1.1551666,2.9870148,-0.3738556,-0.30215454,0.068618774
1606,A,124175308600763,-12.603424,-0.901001,2.6076202,-0.25723267,-8.392334E-4,-0.17008972
1606,A,124175358954767,-10.969543,-5.119934,1.0746307,-0.36473083,-0.17416382,-0.0683136
1606,A,124175409308771,-5.0950623,-3.1867676,-0.7861786,-0.570343,0.37452698,0.23274231
1606,A,124175459662775,-5.4715576,-0.42774963,-1.8577423,-0.6095581,0.32505798,0.002532959
1606,A,124175510016778,-8.499649,-1.6268768,-1.1674957,0.3670044,-0.79042053,1.0235138
1606,A,124175560370782,-9.201157,-3.4346924,-1.3574677,-0.17175293,0.06300354,0.35835266
1606,A,124175610724786,-10.604172,-4.67572,-2.1028442,-0.34962463,0.1255188,-0.6930084
1606,A,124175661078790,-11.802048,-4.3138733,-3.7121277,0.42312622,-0.20059204,-0.15527344
1606,A,124175711432794,-9.929047,-2.7381897,-0.7160797,1.1498718,-0.16889954,0.17546082
1606,A,124175761786798,-12.214493,-2.3705597,5.8505707,0.7956543,0.07026672,0.051437378
1606,A,124175812140802,-11.837128,-1.956192,3.292511,0.12277222,0.60310364,-0.09223938
1606,A,124175862494806,-8.733704,-0.98599243,-1.0726929,0.31500244,-0.038375854,0.025100708
1606,A,124175912848810,-4.848114,-0.36132813,0.9000244,0.4881134,0.28730774,-0.22431946
1606,A,124175963202814,-6.561615,-3.391388,0.47254944,0.37561035,-0.4868164,-1.0118713
1606,A,124176013556817,-9.962204,-4.631485,-1.7588043,0.020355225,0.019699097,-0.6899414
1606,A,124176063910821,-8.048691,-3.9078522,-1.7698517,0.6051636,0.16412354,0.42204285
1606,A,124176114264825,-8.252182,-4.523819,-1.9367523,0.15351868,0.1351471,0.33543396
1606,A,124176164618829,-13.037079,-4.6388245,-0.045791626,-0.4042511,-0.07771301,0.069000244
1606,A,124176214972833,-14.140457,-0.88653564,2.8088531,0.15986633,-0.3889618,0.34370422
1606,A,124176265326837,-12.262619,-2.288681,2.082138,-0.26184082,-0.04248047,-0.24694824
1606,A,124176315680841,-9.383057,-5.187134,1.2057037,-0.40420532,-0.20828247,-0.10610962
1606,A,124176366034845,-5.4432526,-1.8315735,-1.0064697,-0.43580627,0.1400299,0.19876099
1606,A,124176416388849,-6.1291656,-0.9243164,-1.0084991,-0.3547516,0.0031738281,0.009292603
1606,A,124176466742853,-8.116348,-2.0965118,-0.51519775,0.13694763,0.13006592,0.5924072
1606,A,124176517096857,-10.720367,-3.3400574,-1.601059,-0.39117432,-0.04902649,0.30473328
1606,A,124176567450860,-10.679382,-4.693741,-1.5856018,-0.18045044,-0.52934265,-0.28851318
1606,A,124176617804864,-12.6154175,-3.9612274,-2.5183868,-0.07192993,0.42095947,-0.54338074
1606,A,124176668158868,-12.474213,-2.7079163,1.7384033,0.106155396,0.1242218,-0.3605194
1606,A,124176718512872,-9.269226,-0.5353546,3.8621826,0.3105011,-0.33589172,0.0018005371
1606,A,124176768866876,-7.794174,-4.300537,0.88471985,-0.21040344,-0.08821106,0.20680237
1606,A,124176819220880,-11.669952,-2.3126068,1.0783997,-0.011932373,-0.23638916,0.24230957
1606,A,124176869574884,-6.901657,0.30404663,0.5780792,0.020111084,0.24034119,-0.23413086
1606,A,124176919928888,-4.710861,-3.78508,-1.0439911,0.18450928,0.74549866,-0.05014038
1606,A,124176970282892,-7.9074707,-5.6641235,-0.91275024,1.0754547,-0.14668274,0.23362732
1606,A,124177020636896,-9.63443,-3.7638092,-0.9373779,0.007019043,-0.79478455,-0.7674713
1606,A,124177070990900,-11.075134,-3.5279388,-0.3695984,-0.48065186,0.42469788,0.29925537
1606,A,124177121344903,-11.416031,-5.4186096,-1.1876678,-0.23165894,0.19096375,0.3869934
1606,A,124177171698907,-9.841278,-3.7565918,-0.30984497,-0.48335266,-0.45578003,0.044311523
1606,A,124177222052911,-6.184906,-1.183075,2.7673798,-0.5796509,-0.65560913,0.09915161
1606,A,124177272406915,-16.034592,-2.991516,0.83750916,-0.3985443,-0.053085327,-0.09182739
1606,A,124177322760919,-10.850449,-6.4182587,2.4559631,-0.40046692,-0.046966553,-0.099853516
1606,A,124177373114923,-2.692215,-0.33813477,-0.7877197,-0.48094177,0.045333862,0.096969604
1606,A,124177423468927,-5.475876,-0.69992065,-2.2284088,-0.11399841,-0.14935303,0.41581726
1606,A,124177473822931,-10.542282,-3.4789124,-0.7910919,-0.12695313,0.47061157,0.61860657
1606,A,124177524176935,-9.631058,-3.2496185,-0.9642334,-0.15518188,0.1612854,-0.5036011
1606,A,124177574530939,-10.091385,-3.6167603,-2.6672668,0.1927185,0.107803345,-0.5158386
1606,A,124177624884942,-13.49556,-5.097595,-1.525177,0.4951477,0.55908203,-0.15763855
1606,A,124177675238946,-14.668472,-2.3095398,4.8956757,0.57901,-0.055618286,-0.12409973
1606,A,124177725592950,-9.723572,-0.46202087,3.1663513,0.245224,-0.12939453,0.1723175
1606,A,124177775946954,-8.207443,-2.2040405,1.0454254,0.1078186,-0.017486572,0.22485352
1606,A,124177826300958,-8.95285,-1.9907379,1.2518616,0.24635315,0.22114563,-0.27619934
1606,A,124177876654962,-5.025299,-1.7685852,0.6135559,0.48773193,0.19018555,-0.24310303
1606,A,124177927008966,-6.964615,-5.0435333,-1.9488678,0.6847229,-0.47828674,-0.17767334
1606,A,124177977362970,-9.168152,-4.6506042,-1.4413147,0.11512756,-0.17596436,-0.491333
1606,A,124178027716974,-10.635468,-3.2551117,-1.6909637,-0.09690857,0.3296814,-0.0657959
1606,A,124178078070978,-11.171478,-4.087982,-1.8429108,-0.17324829,0.08895874,0.39048767
1606,A,124178128424982,-9.5755005,-5.108368,0.3119812,-0.611557,-0.41703796,0.2962036
1606,A,124178178778985,-11.098007,-2.0476227,2.9190369,-0.45048523,-0.35731506,-0.03791809
1606,A,124178229132989,-13.402466,-1.625351,1.5037842,-0.09712219,-0.028213501,-0.16339111
1606,A,124178279486993,-8.596664,-4.9611206,0.77737427,-0.07827759,-0.18237305,-0.019500732
1606,A,124178329840997,-4.8318024,-3.183838,-0.5532379,-0.42910767,0.19337463,-0.07092285
1606,A,124178380195001,-7.2900543,-0.6621399,-1.2389679,-0.080459595,-0.08404541,0.48190308
1606,A,124178430549005,-10.126678,-2.05336,-0.41305542,-0.03050232,0.19114685,0.60643005
1606,A,124178480903009,-9.129532,-3.3206787,-1.0024719,-0.052825928,0.004562378,-0.10684204
1606,A,124178531257013,-10.365173,-4.194153,-1.9655609,0.19833374,0.2596283,-0.32299805
1606,A,124178581611017,-11.861755,-4.9695587,-0.9390564,0.4090271,0.3816986,-0.24749756
1606,A,124178631965021,-11.880417,-2.6102905,2.6947021,0.6082916,-0.1465149,-0.12541199
1606,A,124178682319025,-8.376068,-1.6811066,2.7483978,0.33810425,0.026763916,0.16270447
1606,A,124178732673028,-10.411331,-3.3241577,1.1084137,0.13667297,0.12825012,0.16333008
1606,A,124178783027032,-9.215012,-1.7753906,0.8878174,0.23382568,-0.03567505,-0.1320343
1606,A,124178833405586,-4.601486,-1.7385254,-0.011947632,-0.034866333,0.2615509,-0.28056335
1606,A,124178883759590,-6.847595,-4.4392395,-0.605011,0.3957672,-0.28416443,-0.19244385
1606,A,124178934113594,-9.087128,-4.708267,-1.2246552,0.18840027,-0.027557373,-0.5887146
1606,A,124178984467598,-9.07045,-3.3252106,-0.9697113,0.110458374,0.1365509,-0.027496338
1606,A,124179034821602,-9.47406,-5.433258,-1.3537292,0.28149414,0.18515015,0.4507904
1606,A,124179085175606,-11.881653,-5.6708984,-1.9122925,-0.4046936,0.33296204,0.2574463
1606,A,124179135529610,-10.448334,-2.3311157,3.3276978,0.021911621,-0.27435303,0.11885071
1606,A,124179185883614,-11.137711,-0.94436646,1.6061401,0.1918335,-0.2852478,0.08470154
1606,A,124179236237617,-11.72403,-4.4570313,1.321579,-0.04547119,-0.16600037,-0.10638428
1606,A,124179286591621,-7.057434,-3.7295074,0.2516632,-0.2715149,0.15779114,0.099868774
1606,A,124179336945625,-4.9738617,-0.03567505,-0.6540375,-0.6769409,0.50250244,-0.22116089
1606,A,124179387299629,-7.875534,-1.6226501,-1.6838837,0.06442261,-0.9290924,1.0162354
1606,A,124179437653633,-10.328766,-3.4707794,-0.9569397,-0.4867859,0.495636,0.48306274
1606,A,124179488007637,-10.524994,-4.1842346,-1.1970673,-0.511734,-0.20744324,-0.5098419
1606,A,124179538361641,-12.229172,-4.848648,-3.1830292,-0.13847351,0.26527405,-0.6499939
1606,A,124179588715645,-9.345718,-4.444916,-0.9664459,-0.0070648193,0.21624756,-0.052841187
1606,A,124179639069649,-11.255203,-0.86431885,4.612274,0.39109802,-0.3446808,0.09692383
1606,A,124179689423653,-7.911804,-1.9685059,1.661087,0.093826294,-0.16781616,0.012924194
1606,A,124179739777657,-11.452286,-3.722931,-0.8671875,-0.1109314,0.12036133,0.007461548
1606,A,124179790131660,-7.6952972,-1.5136871,0.62223816,0.10568237,0.08125305,-0.09284973
1606,A,124179840485664,-3.8490448,-1.8709412,-0.44615173,0.63565063,0.32530212,-0.13618469
1606,A,124179890839668,-7.63739,-4.1744385,-1.0490417,1.0053406,-0.43403625,-0.5431671
1606,A,124179941193672,-10.948166,-5.076767,-1.4423981,0.02671814,0.38648987,-0.44929504
1606,A,124179991547676,-9.982498,-3.9850616,-0.57214355,0.21691895,0.23609924,0.32165527
1606,A,124180041901680,-10.1684265,-3.968277,-1.6805267,-0.35905457,-0.081222534,0.5538788
1606,A,124180092255684,-12.087433,-3.2159882,1.2375183,-0.7993164,-0.25465393,0.2518921
1606,A,124180142609688,-11.077286,-2.0111847,3.318695,-0.20907593,-0.09916687,-0.06877136
1606,A,124180192963692,-11.415375,-3.8078766,0.15220642,-0.07473755,0.10469055,-0.17817688
1606,A,124180243317696,-7.903488,-6.6886597,0.47065735,0.021820068,-0.3026123,0.116622925
1606,A,124180293671700,-4.993561,-1.8155212,-0.830719,-0.245224,0.04510498,0.117248535
1606,A,124180344025703,-7.708893,-0.37113953,-0.5598755,-0.29273987,-0.13270569,0.20779419
1606,A,124180394379707,-10.142288,-2.1459045,-0.88708496,-0.2159729,-0.016220093,0.68704224
1606,A,124180444733711,-9.263687,-3.679657,-1.7906342,-0.36605835,-0.13719177,0.052017212
1606,A,124180495087715,-10.574936,-4.737671,-2.5532684,-0.10525513,-0.29171753,-0.32762146
1606,A,124180545441719,-12.562134,-5.0790253,-2.2287445,0.014694214,0.22535706,-0.30133057
1606,A,124180595795723,-11.97699,-3.063675,1.7738037,0.03807068,0.060577393,-0.17324829
1606,A,124180646149727,-8.972275,-0.55363464,2.7216187,0.06629944,-0.104400635,0.11651611
1606,A,124180696503731,-7.853485,-2.567459,0.39163208,0.0074310303,-0.044448853,0.23846436
1606,A,124180746857735,-10.2326355,-2.0913239,0.51535034,0.074401855,0.123703,-0.15336609
1606,A,124180797211739,-6.9494476,-1.5176697,0.15820313,0.124801636,0.19633484,-0.37878418
1606,A,124180847565742,-6.3911896,-4.464386,-1.4174194,0.2652893,-0.16769409,-0.3582306
1606,A,124180897919746,-8.607834,-4.51416,-1.5207214,0.19552612,-0.07702637,-0.27856445
1606,A,124180948273750,-9.990097,-3.278839,-1.1442566,0.285614,0.100494385,0.15635681
1606,A,124180998627754,-10.852875,-4.3801727,-0.98231506,-0.16249084,0.1513977,0.2521057
1606,A,124181048981758,-11.673309,-5.5510254,0.50738525,-0.54818726,-0.06285095,0.08972168
1606,A,124181099335762,-10.939819,-1.9965057,2.7420044,-0.18640137,-0.4694519,0.028121948
1606,A,124181149689766,-10.982666,-0.9743042,1.4599304,-0.31773376,-0.26637268,-0.10733032
1606,A,124181200043770,-10.007187,-4.7597504,0.38264465,-0.47254944,-0.14498901,-0.02468872
1606,A,124181250397774,-6.401581,-3.336609,-0.4787445,-0.5906677,0.18804932,0.028701782
1606,A,124181300751778,-5.70813,-0.40544128,-1.1776276,-0.06845093,-0.30796814,0.6898651
1606,A,124181351105782,-8.306671,-2.3479004,-1.2192078,0.024291992,-0.04284668,0.769928
1606,A,124181401459785,-10.285751,-4.425064,-0.9409332,-0.46759033,-0.014709473,0.011230469
1606,A,124181451813789,-10.939499,-4.302582,-1.7041473,-0.21212769,-0.07052612,-0.3506012
1606,A,124181502167793,-10.993439,-4.3775024,-1.9633789,0.31059265,0.21824646,-0.35227966
1606,A,124181552521797,-12.49382,-2.1049805,2.6112213,0.41810608,0.115600586,-0.4490204
1606,A,124181602875801,-9.503754,-1.9744263,3.0482178,0.4300232,0.29563904,-0.14984131
1606,A,124181653229805,-9.513824,-3.8716888,-0.3518219,0.3592987,0.4691162,-0.016967773
1606,A,124181703583809,-8.996094,-1.8516998,0.53045654,0.38648987,0.14935303,-0.07487488
1606,A,124181753937813,-5.231888,-0.14038086,0.844223,0.16035461,0.08433533,-0.1317749
1606,A,124181804291817,-7.2818604,-3.1858826,-0.13676453,0.57785034,-0.42941284,-0.39144897
1606,A,124181854645821,-9.88028,-4.2967987,-1.1082306,0.09913635,-0.056411743,-0.558197
1606,A,124181904999825,-8.926117,-3.5759735,-1.4350586,0.25061035,0.30854797,-0.059295654
1606,A,124181955353828,-9.358414,-5.4087524,-2.2772827,0.31062317,0.21876526,0.39468384
1606,A,124182005707832,-11.198105,-5.706299,-1.7576141,-0.46258545,0.114868164,0.14100647
1606,A,124182056061836,-11.511597,-2.6656342,3.2982025,-0.254776,-0.14506531,0.08628845
1606,A,124182106415840,-11.310501,-0.76031494,1.9330902,-0.21835327,-0.17115784,0.02104187
1606,A,124182156769844,-10.56926,-4.6039124,0.9840088,-0.18904114,-0.47843933,-0.07330322
1606,A,124182207123848,-6.4566803,-4.196991,-0.47772217,-0.35476685,-0.060699463,0.1995697
1606,A,124182257477852,-5.610565,-0.93089294,-0.78793335,-0.7360687,0.5925751,-0.14363098
1606,A,124182307831856,-7.9253845,-1.7403412,-1.8412781,0.26863098,-0.44508362,0.9049835
1606,A,124182358185860,-8.895569,-3.539505,-1.6471405,-0.33514404,0.40351868,0.31530762
1606,A,124182408539864,-10.708237,-4.65007,-1.2115936,-0.16929626,-0.25634766,-0.35655212
1606,A,124182458893867,-12.9344635,-4.301819,-2.528183,0.18058777,0.058670044,-0.39639282
1606,A,124182509247871,-10.251511,-3.704361,-1.0714569,0.29664612,0.023391724,-0.12971497
1606,A,124182559601875,-11.837067,-1.3088989,4.992264,0.45993042,-0.11842346,-0.077941895
1606,A,124182609955879,-7.5864716,-2.6537933,1.8251648,0.19544983,0.1509552,0.13908386
1606,A,124182660309883,-10.50705,-3.4832,-0.9654236,0.22494507,0.13623047,0.029876709
1606,A,124182710663887,-7.181961,-0.57559204,0.48628235,0.16900635,0.11380005,-0.35012817
1606,A,124182761017891,-5.2257233,-2.722168,-0.49501038,0.27171326,0.44906616,-0.2881317
1606,A,124182811371895,-8.010101,-5.0893555,-0.8786011,0.71580505,-0.3111725,-0.4453888
1606,A,124182861725899,-9.938202,-3.9713593,-2.0153656,0.31262207,0.20021057,-0.24099731
1606,A,124182912079903,-9.577621,-3.5764618,-1.1048431,0.542923,0.2943573,0.35290527
1606,A,124182962433907,-11.010117,-5.973755,-1.6685181,0.090042114,0.35699463,0.35856628
1606,A,124183012787910,-11.929947,-4.079483,0.18206787,-0.21568298,0.0059661865,0.23388672
1606,A,124183063141914,-9.753891,-0.5355835,3.0093536,0.21557617,-0.35282898,0.115097046
1606,A,124183113495918,-12.154938,-2.9680939,0.3651123,-0.046020508,-0.1931305,-0.106536865
1606,A,124183163849922,-9.653793,-6.74646,0.30740356,-0.30444336,-0.044631958,-0.029296875
1606,A,124183214203926,-5.4703064,-1.7108002,-1.0747223,-0.42370605,0.2667694,0.08010864
1606,A,124183264557930,-6.120575,-0.26818848,-1.557373,-0.12606812,0.053833008,0.32780457
1606,A,124183314911934,-8.5559845,-2.9897766,-1.7113495,0.016479492,-0.14715576,0.722641
1606,A,124183365265938,-10.064377,-4.5733337,-1.4429016,-0.42681885,-0.054138184,0.16441345
1606,A,124183415619942,-11.117203,-4.3304443,-2.3328705,-0.20062256,-0.14750671,-0.40489197
1606,A,124183465973946,-11.305954,-3.086441,-2.4454498,0.060577393,-0.00541687,-0.30363464
1606,A,124183516327950,-10.879532,-3.1939697,0.92099,0.12155151,-0.24118042,-0.1348114
1606,A,124183566681953,-10.946899,-2.5040436,3.4747314,0.21655273,-0.36991882,0.103271484
1606,A,124183617035957,-9.879013,-3.4221497,0.95806885,0.08047485,0.12361145,0.15240479
1606,A,124183667389961,-9.233551,-1.6643829,0.353302,0.15278625,0.2644806,-0.18540955
1606,A,124183717743965,-6.213745,-1.4283295,-0.06941223,0.1322937,0.37356567,-0.33859253
1606,A,124183768097969,-6.171707,-3.7415466,-0.8729553,0.28564453,0.19499207,-0.13130188
1606,A,124183818451973,-9.364029,-4.108597,-0.8525696,0.45239258,-0.29605103,-0.35395813
1606,A,124183868805977,-10.194107,-3.5333252,-1.1133881,0.28323364,0.009674072,-0.30644226
1606,A,124183919159981,-9.630508,-4.8526154,-1.3277893,0.41433716,0.36961365,0.33711243
1606,A,124183969513985,-10.721283,-6.1859894,-2.2352142,0.12275696,0.154068,0.31462097
1606,A,124184019867989,-9.681442,-3.3016357,0.38987732,-0.22860718,-0.25491333,0.1379242
1606,A,124184070221992,-10.333572,-0.40737915,2.2286835,-0.17677307,-0.1028595,-0.019515991
1606,A,124184120575996,-12.77713,-2.548462,0.776474,-0.17321777,0.087127686,-0.30793762
1606,A,124184170930000,-8.592148,-4.727112,-0.42071533,-0.24607849,-0.19459534,0.0049743652
1606,A,124184221284004,-5.321869,-2.4742432,-1.7314453,-0.8066559,0.3113098,-0.111328125
1606,A,124184271638008,-7.882889,-1.6626892,-1.8784332,-0.43803406,-0.635376,0.64753723
1606,A,124184321992012,-9.388168,-2.5354156,-1.628952,-0.45603943,-0.054489136,0.62965393
1606,A,124184372346016,-8.685944,-3.3945618,-2.1216125,-0.24784851,-0.047317505,-0.23883057
1606,A,124184422700020,-10.291748,-4.944092,-2.7533722,0.34375,0.13407898,-0.44903564
1606,A,124184473054024,-10.350525,-4.881851,-1.7547913,0.4573059,-0.027374268,-0.22143555
1606,A,124184523408028,-12.059723,-2.815857,4.487488,0.5034027,-0.39012146,-0.020507813
1606,A,124184573762032,-10.371948,-2.8071747,3.0594788,-0.03492737,0.022567749,0.1560669
1606,A,124184624116035,-10.748917,-1.7403259,-0.003829956,0.062042236,0.11647034,0.08555603
1606,A,124184674470039,-7.424362,-0.5326538,0.07859802,0.26142883,0.171875,-0.07550049
1606,A,124184724824043,-4.234787,-3.443451,-0.21704102,0.040481567,0.37472534,-0.13769531
1606,A,124184775178047,-7.888275,-5.4123077,-0.8679962,0.526001,-0.78471375,-0.1790924
1606,A,124184825532051,-10.168182,-3.9212036,-1.8448792,-0.06315613,0.06838989,-0.3106079
1606,A,124184875886055,-9.071915,-2.6968842,-0.5839081,0.40127563,0.078689575,0.20478821
1606,A,124184926240059,-10.08931,-5.3922577,-1.6832428,0.16456604,-0.017150879,0.5474701
1606,A,124184976594063,-11.881546,-5.9933624,-1.2857971,-0.92904663,-0.094192505,0.25794983
1606,A,124185026948067,-10.608658,-1.8130951,3.7366333,-0.14944458,-0.14202881,0.066833496
1606,A,124185077302071,-11.710205,0.009246826,1.2536621,0.20376587,0.1554718,-0.09677124
1606,A,124185127656075,-9.807678,-5.872925,1.3464966,-0.1920166,-0.20953369,-0.11198425
1606,A,124185178010078,-5.9084015,-3.9638367,-0.70506287,-0.5966339,0.03590393,0.05432129
1606,A,124185228364082,-7.707199,0.45950317,-0.77326965,-0.7837219,0.7041168,-0.142807
1606,A,124185278718086,-9.953247,-1.4224396,-0.8390503,0.32237244,-0.8847351,0.67004395
1606,A,124185329072090,-8.962204,-4.0990295,-1.1331482,-0.08786011,0.4120636,0.44804382
1606,A,124185379426094,-10.039917,-4.671356,-2.1299896,-0.478714,-0.26986694,-0.3518982
1606,A,124185429780098,-12.301605,-3.406601,-1.9442291,0.072753906,0.10598755,-0.40237427
1606,A,124185480134102,-8.566025,-4.088379,-2.0386353,0.18629456,0.17842102,-0.33081055
1606,A,124185530488106,-12.421387,-1.107605,3.5510864,0.12664795,-0.19796753,-0.13227844
1606,A,124185580842110,-8.497314,-1.8029785,2.6868744,0.05947876,-0.09867859,0.041870117
1606,A,124185631196114,-10.1306305,-5.1049194,-0.550354,-0.07423401,0.18180847,0.04916382
1606,A,124185681550117,-9.35228,-0.6600189,0.26667786,0.27790833,-0.0048217773,-0.03578186
1606,A,124185731904121,-4.82164,-1.3187256,-0.4515381,0.09402466,0.038146973,-0.3413849
1606,A,124185782258125,-7.848892,-5.466385,-1.0718384,0.085235596,-0.5757446,-0.294693
1606,A,124185832612129,-9.422501,-3.883194,-1.3955841,-0.007965088,0.23272705,-0.46887207
1606,A,124185882966133,-9.27533,-2.6887512,-1.5183563,0.63874817,-0.05821228,0.32781982
1606,A,124185933320137,-9.687195,-4.8184357,-1.4334106,0.64845276,-0.22624207,0.6238861
1606,A,124185983674141,-12.5217285,-6.203598,-0.6246643,-0.32162476,-0.009460449,0.23924255
1606,A,124186034028145,-12.030441,-1.5981293,4.2105713,0.18421936,0.10513306,-0.09213257
1606,A,124186084382149,-8.97052,0.63197327,1.1635895,0.37756348,0.07131958,-0.121917725
1606,A,124186134736153,-7.9012756,-4.19429,0.37413025,-0.11102295,-0.08279419,-0.086135864
1606,A,124186185090157,-8.000122,-4.2673645,-0.6016083,-0.537323,0.2796173,0.06263733
1606,A,124186235444160,-8.630081,-0.5984802,-0.5553436,-0.39959717,0.15837097,0.10974121
1606,A,124186285798164,-9.437836,-1.8241119,-1.4679871,0.137146,-0.42204285,0.7214813
1606,A,124186336152168,-8.691818,-4.024185,-1.806839,-0.26338196,0.40940857,0.28842163
1606,A,124186386506172,-9.997025,-4.8511963,-1.942215,-0.2943573,-0.22044373,-0.40237427
1606,A,124186436860176,-11.28067,-3.3074799,-1.625412,-0.02734375,0.042633057,-0.29992676
1606,A,124186487214180,-10.587036,-3.0296478,0.41352844,0.19691467,0.029800415,-0.19500732
1606,A,124186537568184,-11.35408,-2.0984497,4.0049286,0.33062744,-0.2059784,-0.087387085
1606,A,124186587922188,-8.1528015,-3.0310059,1.1339264,0.1590271,0.048843384,0.12940979
1606,A,124186638276192,-9.482239,-3.0941925,-0.3496399,0.11140442,0.07789612,-3.6621094E-4
1606,A,124186688630196,-7.294937,-0.6726227,0.5404053,0.17652893,0.206604,-0.1109314
1606,A,124186738984200,-5.723236,-2.5295563,-0.24583435,0.44807434,-0.039764404,-0.09365845
1606,A,124186789338203,-8.879547,-4.886795,-1.1822662,0.33262634,-0.18104553,-0.3633423
1606,A,124186839692207,-9.9384,-4.1661987,-1.4593506,0.23324585,0.22944641,-0.2325592
1606,A,124186890046211,-9.89801,-4.5473785,-1.2475128,0.24732971,0.2758026,0.16789246
1606,A,124186940400215,-11.376038,-5.0142517,-0.8856354,-0.47320557,0.08615112,0.24632263
1606,A,124186990754219,-10.403366,-2.6828156,2.1285095,-0.5296173,-0.28312683,0.26081848
1606,A,124187041108223,-10.979553,-0.78204346,2.4209137,-0.3252716,-0.17892456,-9.1552734E-4
1606,A,124187091462227,-11.62616,-4.1025543,0.8104248,-0.480896,-0.05328369,-0.14804077
1606,A,124187141816231,-7.5448,-5.141098,0.09648132,-0.41828918,-0.17263794,0.08998108
1606,A,124187192170235,-5.439636,-2.0527344,-0.7241974,-0.43354797,0.07774353,0.026290894
1606,A,124187242524239,-7.5715637,-1.3286743,-0.65512085,0.16401672,-0.5260773,0.87968445
1606,A,124187292878242,-9.608185,-2.8028717,-0.8528137,-0.17771912,0.15551758,0.54019165
1606,A,124187343232246,-9.469254,-3.4825287,-1.6756592,-0.40789795,0.03288269,-0.40324402
1606,A,124187393586250,-10.250046,-3.973938,-3.0007477,-0.09629822,0.19158936,-0.52967834
1606,A,124187443940254,-10.834183,-3.862381,-0.8657532,0.11730957,0.11517334,-0.22094727
1606,A,124187494294258,-12.186264,-1.2828369,4.1668396,0.34074402,-0.33369446,-0.15690613
1606,A,124187544648262,-9.371994,-2.4132996,2.6807556,0.12452698,0.02734375,0.14868164
1606,A,124187595002266,-10.586914,-3.3491669,-0.20300293,0.15220642,0.046813965,0.11239624
1606,A,124187645356270,-7.5903625,-1.096695,0.53382874,0.10899353,0.34898376,-0.39045715
1606,A,124187695710274,-4.3545227,-1.9268494,-0.24906921,0.40924072,0.37965393,-0.17196655
1606,A,124187746064278,-7.686844,-4.462494,-1.0840759,0.71554565,-0.2781372,-0.4267578
1606,A,124187796418282,-10.336288,-4.436554,-1.159195,-0.05873108,0.13557434,-0.6576843
1606,A,124187846772285,-10.005829,-2.9813538,-0.8765259,0.22409058,0.36717224,0.41000366
1606,A,124187897126289,-10.569702,-5.6533203,-2.2644958,-0.10243225,0.17694092,0.4817505
1606,A,124187947480293,-11.223709,-4.33667,1.340271,-0.5151062,-0.46498108,0.1257782
1606,A,124187997834297,-10.8606415,-0.03126526,3.4853668,-0.12857056,-0.4416504,0.097213745
1606,A,124188048188301,-12.994141,-3.963791,0.8636017,-0.34623718,0.12333679,-0.23695374
1606,A,124188098542305,-8.079346,-6.3047943,0.47509766,-0.22486877,-0.52056885,0.03315735
1606,A,124188148896309,-4.279709,-0.9703522,-1.3300476,-0.536438,0.50323486,0.20011902
1606,A,124188199250313,-7.065155,-0.9208679,-1.4340973,0.13168335,-0.61143494,0.630661
1606,A,124188249604317,-9.886124,-3.197815,-1.0599518,-0.2402649,0.31072998,0.41519165
1606,A,124188299958321,-8.930725,-3.6165314,-2.0347443,-0.2237091,-0.23553467,-0.18753052
1606,A,124188350312325,-10.503769,-4.5585327,-2.069748,0.35212708,0.22215271,-0.50816345
1606,A,124188400666328,-12.487106,-4.839081,-2.5240784,0.34275818,0.16685486,-0.33103943
1606,A,124188451020332,-12.442627,-1.6760712,3.6626587,0.5105896,-0.25715637,0.012374878
1606,A,124188501374336,-8.483093,-3.3263397,2.903534,0.41871643,-0.07746887,0.32292175
1606,A,124188551728340,-11.926041,-3.5573273,0.45965576,0.18963623,0.43603516,0.021331787
1606,A,124188602082344,-8.191086,-0.040359497,0.4797821,0.14945984,0.2809906,-0.362854
1606,A,124188652436348,-3.404068,-1.7303619,-0.49765015,0.103149414,0.43484497,-0.3580017
1606,A,124188702790352,-7.1124268,-5.5447083,-0.6409912,0.69721985,-0.40888977,0.07746887
1606,A,124188753144356,-10.903595,-3.9570313,-0.9255371,0.29711914,-0.25500488,-0.77471924
1606,A,124188803510074,-9.510117,-3.36911,-0.92022705,0.0816803,0.4072876,0.09902954
1606,A,124188853864078,-9.398605,-6.5411224,-2.124939,0.14854431,0.2663269,0.37922668
1606,A,124188904218081,-11.379852,-5.1116943,-0.59677124,-0.38526917,-0.5102234,0.32896423
1606,A,124188954572085,-9.88504,0.4237213,4.2136383,-0.71276855,-0.7116394,0.41716003
1606,A,124189004926089,-16.211136,-1.8802643,0.61073303,-0.59446716,0.04663086,-0.1628418
1606,A,124189055280093,-9.354614,-4.9602814,1.6174774,-0.49113464,0.10562134,-0.15898132
1606,A,124189105634097,-2.1851654,-2.1978607,-1.1852875,-0.3121643,0.047409058,0.40885925
1606,A,124189155988101,-6.106842,-2.3261566,-2.7753906,0.007827759,0.309906,0.5419464
1606,A,124189206342105,-10.561356,-2.1912537,-0.77388,-0.11291504,0.2535553,0.39207458
1606,A,124189256696109,-10.422821,-1.863205,-0.5647888,-0.5593872,0.15455627,-0.23014832
1606,A,124189307050113,-10.227661,-3.263031,-2.5226135,-0.22904968,-0.10298157,-0.4138031
1606,A,124189357404117,-13.222855,-3.5929108,-1.5313873,-0.29170227,0.09977722,-0.21537781
1606,A,124189407758121,-13.139038,-2.1312256,3.0398712,0.041030884,-0.29525757,0.020523071
1606,A,124189458112124,-9.349258,-3.3803864,2.4755402,0.31811523,-0.35920715,0.050109863
1606,A,124189508466128,-9.068268,-3.447876,0.28851318,0.19525146,0.15872192,0.07395935
1606,A,124189558820132,-9.433823,-2.0345764,0.2576599,0.44281006,0.17140198,-0.090545654
1606,A,124189609174136,-5.1828156,-2.3058624,0.18110657,0.42262268,0.10636902,-0.31954956
1606,A,124189659528140,-6.106781,-2.5968323,-0.38485718,0.41508484,-0.13282776,-0.14164734
1606,A,124189709882144,-9.72084,-3.0478516,-0.1164093,0.35720825,-0.02746582,-0.52430725
1606,A,124189760236148,-10.000732,-3.9448853,-0.87480164,0.26512146,0.28347778,-0.55233765
1606,A,124189810590152,-8.813385,-4.739319,-1.5601044,0.3453827,0.1499939,0.2974701
1606,A,124189860944156,-10.01622,-6.327774,-1.422226,-0.27519226,-0.08572388,0.30307007
1606,A,124189911298160,-11.665329,-3.7737122,2.1784668,-0.3791809,-0.34957886,0.03074646
1606,A,124189961652164,-11.709427,0.6237488,2.623993,-0.12045288,-0.18231201,0.056259155
1606,A,124190012006167,-10.928894,-3.0880127,0.82284546,-0.28796387,-0.13853455,-0.20025635
1606,A,124190062360171,-7.584717,-4.9276733,-0.101989746,-0.24867249,-0.4410553,2.746582E-4
1606,A,124190112714175,-5.570923,-0.9202728,-0.9701843,-0.67100525,0.25079346,-0.061920166
1606,A,124190163068179,-7.933792,-1.2080536,-0.8215027,-0.2987671,-0.19943237,0.4826355
1606,A,124190213422183,-9.30571,-3.1315155,-1.1291046,-0.14498901,0.13708496,0.5611267
1606,A,124190263776187,-8.544708,-3.4319458,-1.1252899,-0.28205872,-0.17927551,-0.018157959
1606,A,124190314130191,-11.263077,-4.434906,-1.4878235,-0.0717926,0.099624634,-0.31454468
1606,A,124190364484195,-11.867233,-5.654129,-1.6204224,0.11567688,0.45907593,-0.3849945
1606,A,124190414838199,-12.371231,-2.4687958,2.4118652,0.2354126,0.140625,-0.25862122
1606,A,124190465192203,-8.258362,-1.4171448,3.248413,0.046722412,0.03378296,0.09049988
1606,A,124190515546206,-10.004288,-4.164566,0.69091797,-0.18211365,-0.04084778,0.22348022
1606,A,124190565900210,-9.830688,-1.5944824,0.5188751,0.32063293,-0.2366333,0.041488647
1606,A,124190616254214,-5.2165985,-0.8309479,-0.09643555,0.20700073,0.420578,-0.2154541
1606,A,124190666608218,-6.569641,-4.6217957,-0.9364166,0.7402649,0.14680481,0.03164673
1606,A,124190716962222,-8.852692,-5.137665,-1.5170746,0.65478516,-0.57270813,-0.571167
1606,A,124190767316226,-9.301056,-2.8954773,-1.7197723,-0.08526611,-0.043563843,-0.28504944
1606,A,124190817670230,-10.434387,-4.010315,-0.80841064,0.17204285,0.45428467,0.22787476
1606,A,124190868024234,-10.892456,-5.1961365,-2.08638,-0.36610413,0.24900818,0.27342224
1606,A,124190918378238,-8.876419,-3.5670776,2.7379913,-0.46969604,-0.45610046,0.35702515
1606,A,124190968732242,-11.186142,-0.41357422,1.7816772,-0.07510376,-0.39463806,0.05949402
1606,A,124191019086246,-14.421707,-4.229889,1.4624023,-0.2774353,0.13235474,-0.3930359
1606,A,124191069440249,-7.065094,-5.4854126,0.21411133,-0.18023682,-0.2978058,0.14715576
1606,A,124191119794253,-4.140335,-1.1702881,-1.342041,-0.52012634,0.6191101,0.15356445
1606,A,124191170148257,-7.350754,-1.0085144,-1.3803253,-0.080825806,-0.46925354,0.44960022
1606,A,124191220502261,-10.44455,-2.3791351,-0.8076019,0.083343506,0.3357849,1.309555
1606,A,124191270856265,-9.524994,-4.1401215,-1.3991852,-0.15991211,0.038772583,-0.2618103
1606,A,124191321210269,-11.576782,-4.1534576,-2.1270752,-0.10951233,-0.5375824,-0.54911804
1606,A,124191371564273,-11.11647,-4.4054413,-3.332718,0.07058716,0.18685913,0.10362244
1606,A,124191421918277,-13.244568,-3.6270142,3.3976288,0.48797607,-0.03276062,-0.19174194
1606,A,124191472272281,-10.023346,-0.33210754,3.8604736,0.33720398,-0.100357056,-0.17532349
1606,A,124191522626285,-8.340759,-3.8414764,-1.3003235,0.10734558,0.17703247,0.25839233
1606,A,124191572980289,-8.893951,-3.3951874,0.27600098,0.44480896,-0.12580872,0.0413208
1606,A,124191623334292,-5.8254395,-0.80596924,0.68081665,0.21258545,0.4098053,-0.40625
1606,A,124191673688296,-7.411438,-3.5480347,-1.2969666,0.595459,0.09945679,-0.057998657
1606,A,124191724042300,-9.857285,-5.317642,-1.2864838,0.15753174,-0.698349,-0.6227112
1606,A,124191774396304,-8.513931,-3.4871979,-1.6011047,-0.4596405,0.044799805,0.05393982
1606,A,124191824750308,-10.336655,-3.9231262,-1.5041656,-0.067489624,0.2422638,0.4663086
1606,A,124191875104312,-11.600159,-5.1782684,-0.20669556,-0.64834595,-0.39593506,0.1303711
1606,A,124191925458316,-9.715164,-2.654007,4.5184174,-0.7074127,-0.62327576,0.126297
1606,A,124191975812320,-13.815308,-1.3058319,1.5015869,-0.2514038,0.1210022,0.017807007
1606,A,124192026166324,-11.1584015,-4.4555206,2.1160889,-0.25717163,0.17062378,-0.20657349
1606,A,124192076520328,-4.3476715,-2.0677795,-1.1137085,-0.5065155,0.23791504,-0.1118927
1606,A,124192126874331,-6.092453,-1.364563,-1.8784485,-0.29664612,0.08128357,0.23066711
