Subject-Id,Activity Label,Time stamp,Accel_x,Accel_y,Accel_z,Gyro_x,Gyro_y,Gyro_z
1629,A,1127073672720666,-9.507858,2.9035645,-1.7634277,-0.6643677,-0.6421814,-0.3517151
1629,A,1127073723074670,-9.95134,1.8599396,-2.4110718,-0.154068,-0.73179626,-0.33454895
1629,A,1127073773428674,-10.131989,1.9847412,-1.2221985,0.29055786,-0.4112854,-0.12980652
1629,A,1127073823782678,-9.568985,1.6590576,-2.2096252,0.6799164,-0.35440063,-0.27474976
1629,A,1127073874136682,-10.13472,1.9986115,-0.45916748,0.7574005,-0.07954407,-0.45448303
1629,A,1127073924490686,-9.984238,2.890396,0.27593994,0.8831024,-0.17393494,-0.056610107
1629,A,1127073974844690,-9.568954,3.0991821,-0.90937805,0.926651,-0.2808838,0.31256104
1629,A,1127074025198693,-11.597717,1.8068237,0.23831177,0.4932251,-0.014480591,0.20727539
1629,A,1127074075552697,-10.230621,0.79112244,-1.870697,0.015182495,0.16163635,0.1559143
1629,A,1127074125906701,-8.760498,0.4880371,-1.5814972,-0.057632446,0.084747314,0.20114136
1629,A,1127074176260705,-9.268387,0.7883911,-0.893692,0.09170532,-0.053863525,0.53837585
1629,A,1127074226614709,-9.254196,1.934433,-2.4981232,0.36686707,0.13996887,1.9089661
1629,A,1127074276968713,-10.064636,1.7147827,-2.520279,0.5953522,-0.49768066,1.1660309
1629,A,1127074327322717,-9.561874,1.5245819,-2.0171661,0.9826355,-0.36717224,1.6130524
1629,A,1127074377676721,-9.798523,1.7232971,-1.4206085,1.0220795,0.21121216,1.8835144
1629,A,1127074428030725,-8.463654,3.0908966,-3.0778046,0.66534424,-1.0456085,2.0811462
1629,A,1127074478384729,-11.155182,1.2906036,-3.076767,0.4602661,-0.82421875,1.6341248
1629,A,1127074528738733,-10.936951,4.297699,-0.89572144,0.63760376,-0.05529785,1.2588654
1629,A,1127074579092736,-9.567413,4.300705,-2.9150085,0.5860596,0.017059326,-0.09527588
1629,A,1127074629446740,-6.1094055,3.0406342,-3.330124,-0.27119446,0.5660858,-0.34898376
1629,A,1127074679800744,-7.403763,5.1432953,1.2244873,-0.61834717,0.04534912,-0.3638916
1629,A,1127074730154748,-7.255371,5.692032,-4.166168,-0.09449768,-1.1029816,-0.5094757
1629,A,1127074780508752,-6.249817,7.165573,-2.564392,0.13760376,0.2305603,-0.9573822
1629,A,1127074830862756,-9.576538,8.291977,-2.718628,0.61383057,-0.1533966,0.017333984
1629,A,1127074881216760,-7.488144,5.311264,-4.7809143,0.47587585,0.18156433,0.28015137
1629,A,1127074931570764,-6.529892,3.918167,0.5695648,-0.056427002,-0.107940674,0.16178894
1629,A,1127074981924768,-9.572983,4.8463287,0.118499756,-0.09916687,-0.5105438,0.3269043
1629,A,1127075032278772,-11.122238,4.8123474,-1.5770264,-0.08483887,-0.4170227,0.6227875
1629,A,1127075082632776,-7.7843323,5.816391,-2.9088135,-0.3764801,0.7689209,0.45573425
1629,A,1127075132986779,-8.048676,6.04451,-2.9194794,-0.05101013,1.0976715,0.47383118
1629,A,1127075183340783,-8.622665,5.2790833,-2.2552643,0.50419617,-0.32453918,0.63272095
1629,A,1127075233694787,-7.7131805,6.0631104,-0.5667114,0.3487091,-0.61639404,0.7077179
1629,A,1127075284048791,-7.668335,5.8366547,0.21237183,0.2557373,-0.19895935,0.63531494
1629,A,1127075334402795,-7.809967,4.7785187,-1.1746368,0.013580322,0.48303223,0.7021332
1629,A,1127075384756799,-7.4748993,6.263397,-2.2584076,-8.8500977E-4,0.04711914,0.6068878
1629,A,1127075435110803,-7.2215424,5.680069,-2.6830292,-0.43701172,0.06991577,0.16477966
1629,A,1127075485464807,-6.11882,5.605774,-2.328949,0.047286987,-0.3964386,0.35560608
1629,A,1127075535818811,-3.7465363,2.6752777,-3.8209534,0.10986328,0.11042786,0.93408203
1629,A,1127075586172815,-5.6000824,6.968582,-3.7552032,-0.73017883,0.7098236,1.0740662
1629,A,1127075636526818,-7.2350006,8.118423,-1.9573059,-0.1995697,0.19868469,0.8937683
1629,A,1127075686880822,-8.637863,5.742111,-0.82632446,-0.083496094,0.19656372,0.01789856
1629,A,1127075737234826,-5.6246033,7.502121,-2.428772,0.047027588,0.025512695,0.042251587
1629,A,1127075787588830,-4.6840515,12.1332855,-2.6059875,-0.101364136,0.2891388,0.38243103
1629,A,1127075837942834,-4.5103607,13.330734,1.0101929,0.007598877,0.6033325,0.46676636
1629,A,1127075888296838,-5.2326355,8.551254,-1.8031769,-0.2810974,0.44880676,0.15892029
1629,A,1127075938650842,-5.4721527,7.0645905,-1.6646881,-0.21330261,0.050979614,0.28990173
1629,A,1127075989004846,-6.1605835,8.973846,-1.646286,-0.33714294,0.31721497,0.22384644
1629,A,1127076039358850,-5.263748,9.478119,-1.9963531,-0.37391663,0.5041809,0.1471405
1629,A,1127076089712854,-3.5122986,9.545334,2.907364,-0.46380615,0.6728821,0.08972168
1629,A,1127076140066858,-5.8840485,7.573593,-2.405426,-0.52375793,0.7643585,0.037506104
1629,A,1127076190420861,-5.5435486,8.000763,-2.1767273,-0.49113464,0.87677,0.03956604
1629,A,1127076240774865,-5.2894135,7.9009857,-2.2723846,-0.5037842,0.80888367,0.06843567
1629,A,1127076291128869,-4.745331,8.678345,-2.3525848,-0.53504944,0.43348694,0.06568909
1629,A,1127076341482873,-4.7499237,8.490768,-1.7914886,-0.43397522,0.16680908,0.054519653
1629,A,1127076391836877,-4.3407593,8.596725,-2.281479,-0.34872437,-0.1329956,0.10131836
1629,A,1127076442190881,-3.4466248,8.506622,-0.7837219,-0.26113892,-0.46136475,0.2517395
1629,A,1127076492544885,-3.9475555,8.775177,-1.8106079,-0.14823914,-0.64219666,0.41453552
1629,A,1127076542898889,-3.9493103,8.777359,-2.0236359,-0.04798889,-0.4634552,0.40498352
1629,A,1127076593252893,-4.086685,8.740952,-1.9681549,0.102874756,-0.0049591064,0.03703308
1629,A,1127076643606897,-4.76355,8.700073,-2.2151642,0.6683197,0.17831421,-0.39445496
1629,A,1127076693960901,-5.814987,8.375397,-2.4303894,1.3349152,-0.0024871826,-0.68403625
1629,A,1127076744314904,-6.3029175,9.1423645,-1.553482,1.5890198,-0.49378967,-0.8654022
1629,A,1127076794668908,-4.275116,11.544296,-0.0894928,1.1879272,0.4576416,-0.8170929
1629,A,1127076845022912,-2.5419922,11.802826,0.5634308,0.66741943,1.5916138,-0.5098572
1629,A,1127076895376916,-2.0739746,11.355331,-0.12812805,0.36880493,1.5961304,-0.32034302
1629,A,1127076945730920,-4.9972076,10.465637,-2.493866,0.10145569,1.0010834,-0.14059448
1629,A,1127076996084924,-6.5316315,8.533539,-2.3244324,-0.49891663,0.37519836,0.16712952
1629,A,1127077046438928,-4.8222504,7.159897,-2.6295319,-0.76260376,-0.020629883,0.27624512
1629,A,1127077096792932,-3.1036682,5.802536,-3.8479156,-0.24984741,0.08451843,-0.026138306
1629,A,1127077147146936,-3.1506805,5.2239532,-4.3867645,0.03591919,0.2774353,-0.19273376
1629,A,1127077197500940,-3.1480865,4.202545,-4.7074585,0.016342163,0.6070404,-0.068237305
1629,A,1127077247854943,-3.6470032,6.417511,-4.34404,-0.25862122,0.08140564,-0.008483887
1629,A,1127077298208947,-4.905594,10.761276,-5.0451813,-0.2888031,-0.7203827,0.14932251
1629,A,1127077348562951,-5.048584,9.606781,-6.8346252,-0.33770752,-0.2883606,0.37954712
1629,A,1127077398916955,-4.7070007,6.909027,-5.5036926,-0.7659912,-0.5954132,0.41545105
1629,A,1127077449270959,-3.7026367,11.764236,-4.1873627,-0.35038757,-1.2322235,0.10649109
1629,A,1127077499624963,-2.9997864,8.4036255,-3.0215912,-0.39959717,-1.3625488,0.28959656
1629,A,1127077549978967,-4.5686646,7.770355,-2.2997742,-0.5401459,-1.0177002,0.60902405
1629,A,1127077600332971,-2.444641,11.1197815,-2.5423737,-0.6006012,-0.73184204,0.8820648
1629,A,1127077650686975,-1.6478271,8.237732,-1.9416962,-0.39674377,-0.63209534,0.89881897
1629,A,1127077701040979,-3.7734375,8.188416,-1.476181,-0.28338623,-0.2892456,0.5286865
1629,A,1127077751394983,-3.783081,7.2398376,-1.8579254,-0.26530457,-0.11166382,0.12527466
1629,A,1127077801748986,-4.0290833,7.727005,-2.1188965,0.027374268,0.051864624,-0.36354065
1629,A,1127077852102990,-4.789871,8.361618,-2.290268,0.8731079,0.8632202,-1.0076141
1629,A,1127077902456994,-5.4645844,9.017914,-2.6651917,1.6873932,0.09942627,-1.2919922
1629,A,1127077952810998,-4.8140717,10.556992,-2.6245117,1.5808411,-0.4848938,-1.3420258
1629,A,1127078003165002,-4.0303802,12.152634,0.57728577,0.67655945,1.4123383,-0.81207275
1629,A,1127078053519006,-2.2076874,11.711563,-0.46089172,-0.06175232,2.4541626,-0.32070923
1629,A,1127078103873010,-0.8486481,12.391403,-3.3591156,-0.4423828,1.7387238,-0.24064636
1629,A,1127078154227014,-6.6878204,10.869965,-2.8997498,-0.9858856,0.8759613,-0.031906128
1629,A,1127078204581018,-7.5152893,6.813446,-2.7361908,-0.71961975,0.46054077,0.1583252
1629,A,1127078254935022,-3.2479858,5.8017883,-3.2494965,-0.21487427,-0.08026123,0.080078125
1629,A,1127078305289026,-2.3011322,4.470688,-3.886551,0.59736633,0.13282776,-0.123535156
1629,A,1127078355643029,-2.1194,3.628418,-3.8896637,0.06744385,0.43945313,0.23519897
1629,A,1127078405997033,-2.0388336,7.3812103,-2.5150604,-0.13090515,0.13798523,0.22819519
1629,A,1127078456351037,-3.2388153,12.600754,-5.3591766,-0.52856445,-0.68629456,0.6996765
1629,A,1127078506705041,-4.9140472,10.420639,-4.8338013,-0.40092468,-1.521759,0.45674133
1629,A,1127078557059045,-4.595215,10.762833,-3.0410156,-0.12965393,-1.9704895,0.0932312
1629,A,1127078607413049,-3.0455933,8.435928,-2.3036804,-0.24591064,-1.7275543,0.37231445
1629,A,1127078657767053,-3.4675446,10.453949,-1.8259583,-0.3522644,-1.3443451,0.78808594
1629,A,1127078708121057,-1.0281525,9.907623,-1.5214539,-0.3227539,-0.98716736,1.1280212
1629,A,1127078758475061,-1.9860992,7.29216,-1.3948364,-0.28686523,-0.67718506,0.9659729
1629,A,1127078808829065,-3.9675903,7.8269653,-1.1024475,-0.3345337,-0.20861816,0.41706848
1629,A,1127078859183068,-4.8985596,7.8819427,-2.083725,-0.6086731,0.39367676,-0.41644287
1629,A,1127078909537072,-4.9330597,7.3372955,-2.5161285,-0.11416626,0.9410858,-0.7147217
1629,A,1127078959891076,-5.020508,7.5282135,-2.1292877,1.1502838,0.54737854,-0.8279419
1629,A,1127079010245080,-6.0066986,8.798569,-2.6625824,1.8152313,-1.1026459,-1.0907288
1629,A,1127079060599084,-4.7604065,11.161636,-1.6701355,1.069458,0.36546326,-0.84062195
1629,A,1127079110953088,-2.6456451,13.018997,1.5793457,0.46887207,1.8189392,-0.42837524
1629,A,1127079161307092,1.1580505,12.334381,-1.9549713,0.09251404,1.8750305,-0.2829132
1629,A,1127079211661096,-1.9461517,11.66301,-2.1259003,-0.2778473,1.1690521,-0.14312744
1629,A,1127079262015100,-7.6835785,9.289413,-2.956421,-0.7772827,0.41220093,0.06263733
1629,A,1127079312369104,-4.6110535,6.700699,-3.1374054,-0.4479828,-0.08351135,0.23594666
1629,A,1127079362723108,-2.2149506,5.9303436,-3.6959991,-0.23786926,0.014373779,0.10508728
1629,A,1127079413077111,-2.4456482,4.595291,-3.897766,0.35568237,-0.11264038,0.02709961
1629,A,1127079463431115,-2.27388,4.15683,-4.228409,0.5008087,1.2157745,0.18804932
1629,A,1127079513785119,-2.6849823,7.669449,-2.7350922,0.14790344,-0.028396606,-0.081100464
1629,A,1127079564139123,-5.29068,14.727936,-5.9019623,0.050445557,-0.15016174,0.3840027
1629,A,1127079614493127,-6.0620117,2.9884949,-8.255432,-0.93927,-0.7497101,0.5401764
1629,A,1127079664847131,-5.8210907,15.603012,-2.9613037,-0.339386,-1.9544525,0.18054199
1629,A,1127079715201135,-2.8385925,8.286621,-0.2740326,-0.27035522,-1.8436584,0.2869568
1629,A,1127079765555139,-2.8921356,5.972458,-1.8345795,-0.429245,-1.2978516,0.6862335
1629,A,1127079815909143,-0.3612213,13.308334,-1.2373505,-0.5630493,-0.6930084,0.9457092
1629,A,1127079866263147,-1.2462616,10.422867,-0.6453552,-0.6632385,-0.3997345,1.132309
1629,A,1127079916617151,-4.67572,7.768692,-0.65953064,-0.5121155,0.13946533,0.39672852
1629,A,1127079966971154,-4.6688843,6.358261,-2.5600739,-0.29885864,-0.11785889,-0.20561218
1629,A,1127080017325158,-5.5821075,6.8859863,-3.1807098,0.09486389,0.83955383,-0.9411011
1629,A,1127080067679162,-4.8504333,7.646408,-2.395111,1.2566986,1.233841,-1.3197479
1629,A,1127080118033166,-5.8432617,10.305069,-3.32164,1.9349365,-0.7910309,-1.3117371
1629,A,1127080168387170,-3.9454498,11.580597,-1.3384094,1.2121887,0.38879395,-1.1745148
1629,A,1127080218741174,-2.5846405,11.615173,2.9090881,0.40815735,2.6789246,-0.40518188
1629,A,1127080269095178,-0.8521576,13.11203,-4.8615417,-0.14154053,2.4744415,-0.2888031
1629,A,1127080319449182,-1.4241333,12.988159,-2.9038239,-0.33203125,1.1440125,-0.25480652
1629,A,1127080369803186,-9.616455,8.099075,-2.6864777,-0.81007385,0.52168274,0.0099487305
1629,A,1127080420157190,-3.7725677,5.7519226,-2.476593,-0.0045166016,0.29640198,-0.07098389
1629,A,1127080470511193,-1.639801,6.9665527,-3.8710938,-0.01550293,-0.039001465,-0.11668396
1629,A,1127080520865197,-1.967041,3.210083,-3.8247833,0.75180054,0.5361328,-0.1244812
1629,A,1127080571219201,-1.7667084,4.48291,-4.580429,-0.6586914,-0.8377533,0.46142578
1629,A,1127080621573205,-3.4740753,10.674103,-2.6830902,0.44737244,-0.80934143,0.18087769
1629,A,1127080671927209,-5.185959,9.594421,-8.131134,-1.2341003,-0.993042,1.0502625
1629,A,1127080722281213,-2.9808807,11.580429,-4.3259735,-0.16595459,-1.8655396,0.127182
1629,A,1127080772635217,-0.9794159,11.76535,-3.6266785,-0.36953735,-2.134903,0.09140015
1629,A,1127080822989221,-3.9269867,4.929138,-1.9761963,-0.2693634,-1.516922,0.6200104
1629,A,1127080873343225,-4.6536255,12.040634,-2.057663,-0.6706085,-0.947525,1.1785431
1629,A,1127080923697229,1.2490997,7.0362244,-1.5560303,-0.37922668,-0.39892578,1.0236053
1629,A,1127080974051233,-4.148361,7.9747314,-0.774704,-0.27346802,-0.25361633,0.46070862
1629,A,1127081024405236,-3.8161774,7.3257446,-1.8624878,-0.4005127,0.20103455,0.18414307
1629,A,1127081074759240,-5.0792236,7.2193756,-2.0451202,-0.42965698,0.1174469,-0.21525574
1629,A,1127081125113244,-4.48526,7.767288,-1.6365509,0.4482727,0.9049225,-0.8583679
1629,A,1127081175467248,-6.3519745,9.845398,-1.6237183,1.5532684,0.81877136,-1.1445618
1629,A,1127081225821252,-4.396576,10.172745,-2.325058,1.9772644,-0.92736816,-1.1298676
1629,A,1127081276175256,-3.572113,11.396347,1.7047882,0.7778168,1.3952332,-1.0366364
1629,A,1127081326529260,-1.7354889,11.38208,3.4633026,0.38200378,2.5516968,-0.28007507
1629,A,1127081376883264,-0.26837158,12.888046,-4.0216827,0.0018310547,1.8362885,-0.33569336
1629,A,1127081427237268,-3.5173492,10.9335785,-2.3484955,-0.47921753,0.9047241,-0.1483612
1629,A,1127081477591272,-8.767014,7.4879303,-2.8675842,-0.7065735,0.53993225,0.047027588
1629,A,1127081527945276,-2.3538666,6.544937,-3.039566,-0.092453,0.235672,0.025054932
1629,A,1127081578299279,-2.094223,6.442276,-3.981598,0.003250122,0.041534424,-0.11817932
1629,A,1127081628653283,-1.8005219,3.325058,-4.5678253,0.36338806,0.28573608,-0.056228638
1629,A,1127081679007287,-2.2845154,5.9652405,-4.229767,-0.78967285,-0.36975098,0.727829
1629,A,1127081729361291,-3.97464,10.803711,-2.254547,0.30430603,-0.7254181,0.09265137
1629,A,1127081779715295,-4.6034546,8.908737,-7.50589,-1.143753,-0.79519653,0.7994995
1629,A,1127081830069299,-3.0772705,9.817169,-3.6792908,-0.3656006,-1.318222,0.08744812
1629,A,1127081880423303,-1.9777527,17.068588,-2.1943817,-0.43569946,-1.8707123,0.04788208
1629,A,1127081930777307,-2.9177856,5.426132,-2.0439606,-0.4338684,-1.5238037,0.43144226
1629,A,1127081981131311,-4.9243164,10.153015,-1.3821869,-0.5447998,-1.0145264,1.0293732
1629,A,1127082031485315,1.6513062,7.8966675,-1.5159912,-0.37594604,-0.46447754,0.94511414
1629,A,1127082081839318,-2.5458527,7.681656,-0.8311157,-0.43167114,-0.06518555,0.45822144
1629,A,1127082132193322,-4.3674164,8.013275,-0.99372864,-0.41783142,0.17701721,0.14224243
1629,A,1127082182547326,-5.3174896,7.612335,-2.026245,-0.26039124,-0.063201904,-0.1103363
1629,A,1127082232901330,-4.828186,8.14209,-1.7080078,0.506897,0.515213,-0.6948242
1629,A,1127082283255334,-5.5768127,9.925186,-2.329895,1.3946228,0.8850708,-1.2383881
1629,A,1127082333609338,-4.0757294,10.706985,-2.9097748,1.6400452,-0.08963013,-1.1479034
1629,A,1127082383963342,-2.6187134,11.038818,-0.0766449,1.0130463,0.8279724,-0.8984833
1629,A,1127082434317346,-2.113678,10.942535,2.507965,0.34036255,2.3294067,-0.3612213
1629,A,1127082484671350,-0.98147583,11.778152,-0.47737122,-0.08433533,1.9292755,-0.3444214
1629,A,1127082535025354,-3.186905,12.922104,-2.350891,-0.5046692,1.1081848,-0.19766235
1629,A,1127082585379358,-7.660202,8.846603,-2.7853394,-0.8315582,0.5159149,0.079940796
1629,A,1127082635733361,-3.0354004,7.015045,-2.9270477,-0.24650574,0.3027649,0.06213379
1629,A,1127082686087365,-1.9233704,6.310013,-3.7244263,0.255661,0.25254822,0.047332764
1629,A,1127082736441369,-2.1985168,3.9767303,-3.8515167,0.46348572,0.28181458,0.16964722
1629,A,1127082786795373,-1.9463348,5.477997,-3.042984,8.239746E-4,-0.30599976,0.26675415
1629,A,1127082837149377,-3.1505737,11.010208,-4.6314545,0.0069274902,-0.807724,0.19924927
1629,A,1127082887503381,-5.2005615,12.695267,-7.6064453,-0.7577057,-0.664032,0.6599426
1629,A,1127082937857385,-5.406189,10.278259,-4.394287,-0.45144653,-1.2881927,0.20626831
1629,A,1127082988204563,-4.473572,14.418655,-3.6446228,-0.24591064,-2.0329285,-0.022827148
1629,A,1127083038558567,-3.1280975,6.253235,-1.0666046,-0.51745605,-1.5937958,0.3599701
1629,A,1127083088912571,-2.9154358,9.683426,-1.7304993,-0.5348053,-0.9451294,0.9834595
1629,A,1127083139266575,1.6306305,9.586014,-1.9812317,-0.43992615,-0.502594,0.9519348
1629,A,1127083189620578,-2.5537567,7.967819,-1.1607361,-0.32589722,-0.18832397,0.5587311
1629,A,1127083239974582,-5.1846313,8.614319,-1.0123444,-0.30160522,0.017486572,0.19941711
1629,A,1127083290328586,-4.607376,8.201279,-2.6817932,-0.26742554,0.069625854,-0.083602905
1629,A,1127083340682590,-4.314865,8.054382,-2.738144,0.21284485,0.6335449,-0.6421509
1629,A,1127083391036594,-5.239334,8.401062,-2.7617493,1.1213837,0.7879181,-1.0778656
1629,A,1127083441390598,-5.530075,10.000809,-2.900238,1.7550354,-0.6141815,-1.1000671
1629,A,1127083491744602,-4.0107727,11.38208,-0.7357025,1.2687378,0.25361633,-0.90379333
1629,A,1127083542098606,-1.8464813,11.734039,2.6703033,0.33854675,2.4575806,-0.48524475
1629,A,1127083592452610,1.0873566,12.410645,0.8837433,0.03515625,2.2457275,-0.30070496
1629,A,1127083642806614,-2.503479,12.213699,-1.9522858,-0.3294525,1.207489,-0.2620697
1629,A,1127083693160617,-7.6198425,7.9960175,-1.9897461,-0.7306824,0.41392517,-0.0045166016
1629,A,1127083743514621,-5.0400543,6.4417877,-2.5684052,-0.44047546,0.19595337,0.040786743
1629,A,1127083793868625,-1.4644165,6.6172333,-3.596695,0.04286194,0.053970337,-0.15585327
1629,A,1127083844222629,-1.6014404,4.5883636,-4.331848,0.35290527,0.37568665,-0.0801239
1629,A,1127083894576633,-1.7649536,4.281784,-4.421356,-0.11004639,0.06060791,0.34106445
1629,A,1127083944930637,-2.1702576,10.472733,-3.4233398,-0.15446472,-0.61605835,0.1712799
1629,A,1127083995284641,-3.4068146,10.804764,-5.3560333,-0.57237244,-0.62501526,0.4767151
1629,A,1127084045638645,-4.415863,9.877747,-5.9588013,-0.6217346,-1.0650024,0.37498474
1629,A,1127084095992649,-1.2566681,11.851456,-4.049423,-0.23641968,-1.8227081,-0.038970947
1629,A,1127084146346653,-1.5202179,7.414093,-2.0660553,-0.26197815,-1.9093933,0.14720154
1629,A,1127084196700657,-3.7147217,9.496719,-0.70558167,-0.42152405,-1.4202423,0.5654907
1629,A,1127084247054660,-0.3668213,10.309921,-1.5788269,-0.5755005,-0.80477905,0.8963623
1629,A,1127084297408664,-0.88357544,8.15332,-1.3101959,-0.6210327,-0.3038025,0.9536438
1629,A,1127084347762668,-3.6017761,7.670944,-0.84228516,-0.47843933,0.07380676,0.5042114
1629,A,1127084398116672,-4.8391876,7.6415253,-2.0975037,-0.3717041,0.19499207,0.11239624
1629,A,1127084448470676,-5.217911,7.958496,-3.1115112,-0.28759766,0.22393799,-0.24017334
1629,A,1127084498824680,-4.9318237,8.0864105,-2.4067993,0.3789215,0.67858887,-0.66926575
1629,A,1127084549178684,-4.9322357,9.391205,-2.7422638,1.2494965,0.63087463,-0.94241333
1629,A,1127084599532688,-4.4676666,10.480896,-2.8140564,1.6762543,-0.22016907,-0.9787903
1629,A,1127084649886692,-4.1157837,11.589279,0.41900635,1.0986023,1.1329651,-0.7598419
1629,A,1127084700240696,-1.7142334,11.309982,2.4868622,0.5464783,2.1735077,-0.34088135
1629,A,1127084750594700,0.081970215,12.206985,0.26379395,0.24217224,1.8558197,-0.34318542
1629,A,1127084800948703,-4.076828,11.348221,-1.3993378,-0.2987671,1.1881256,-0.1560669
1629,A,1127084851302707,-6.8852997,8.578278,-2.2188416,-0.67204285,0.39489746,-0.027801514
1629,A,1127084901656711,-3.0769958,7.6440887,-3.3393555,-0.15368652,0.19377136,-0.012298584
1629,A,1127084952010715,-1.6938629,6.3656616,-3.8977203,-0.06687927,0.1038208,0.0357666
1629,A,1127085002364719,-1.7801361,4.594269,-4.1813507,0.54263306,0.5916748,0.12220764
1629,A,1127085052718723,-1.4856567,5.17247,-4.7170258,-0.29501343,-0.21461487,0.4640503
1629,A,1127085103072727,-2.1682892,10.203064,-3.4954224,0.22312927,-0.9815674,0.038024902
1629,A,1127085153426731,-3.895874,9.88092,-6.031433,-0.5708618,-0.63360596,0.5351715
1629,A,1127085203780735,-5.0528717,9.293167,-5.354004,-0.77124023,-0.20942688,0.25634766
1629,A,1127085254134739,-2.074707,12.645538,-4.582672,-0.52111816,-1.0063477,0.060302734
1629,A,1127085304488742,-2.3993683,6.63501,-2.170807,-0.5517731,-1.3173065,0.026855469
1629,A,1127085354842746,-6.2584534,9.680069,-1.6648865,-0.66711426,-0.95285034,0.4749298
1629,A,1127085405196750,-0.24617004,9.110519,-2.7282562,-0.86790466,-0.5303345,0.81777954
1629,A,1127085455550754,-0.74487305,8.214752,-2.0589142,-0.68963623,-0.34475708,0.8384094
1629,A,1127085505904758,-3.0269318,8.510651,-0.98358154,-0.44599915,0.003753662,0.40919495
1629,A,1127085556258762,-4.3045654,7.7644806,-2.292694,-0.38464355,0.07637024,0.036132813
1629,A,1127085606612766,-4.2605743,8.093536,-2.2806244,-0.24710083,0.26615906,-0.4133911
1629,A,1127085656966770,-3.4903564,8.129089,-2.25914,0.5442505,1.145462,-0.98835754
1629,A,1127085707320774,-6.681473,8.930939,-2.5047455,1.567749,0.5083618,-1.061203
1629,A,1127085757674778,-3.3801575,11.639694,-2.5082703,2.0014038,-1.4789886,-0.9094696
1629,A,1127085808028782,-3.2972717,12.512054,1.9917755,1.0031586,1.2138367,-0.71398926
1629,A,1127085858382785,-0.03742981,11.421326,3.6721191,0.3966217,2.2532196,-0.28630066
1629,A,1127085908736789,1.4000854,14.171936,-1.1886444,0.061401367,1.6922302,-0.16218567
1629,A,1127085959090793,-4.5843353,11.387863,-1.5468445,-0.521286,0.6422882,0.0031585693
1629,A,1127086009444797,-8.151535,6.3730164,-2.056427,-0.78704834,0.14517212,0.104400635
1629,A,1127086059798801,-2.4223175,5.9022827,-3.7033691,-0.022109985,0.31448364,0.021896362
1629,A,1127086110152805,-1.7952881,6.080887,-3.686737,0.05644226,0.07019043,-0.22583008
1629,A,1127086160506809,-1.3225708,3.2729797,-4.8068237,0.69711304,0.34094238,0.012619019
1629,A,1127086210860813,-1.8673248,5.0471497,-4.2255707,-0.4044037,-1.11026,0.495636
1629,A,1127086261214817,-3.221695,16.141342,-2.827835,0.13363647,-1.0685272,0.018859863
1629,A,1127086311568821,-4.0038147,5.678543,-7.383316,-1.1580048,-0.7004852,0.8012085
1629,A,1127086361922825,-3.8995361,14.239716,-4.7993927,-0.17732239,-1.5842743,0.006500244
1629,A,1127086412276828,1.8880615,9.945862,-3.078003,-0.43008423,-1.8357544,0.04801941
1629,A,1127086462630832,-4.518875,4.6090546,-1.3403015,-0.4487915,-1.4277344,0.5572357
1629,A,1127086512984836,-2.557251,13.454468,-0.9784241,-0.9456024,-0.7115021,1.0096741
1629,A,1127086563338840,0.5894928,6.919098,-1.8428955,-0.43920898,-0.44917297,0.9071655
1629,A,1127086613692844,-3.9895325,9.129044,-1.0354156,-0.28149414,-0.34970093,0.47027588
1629,A,1127086664046848,-4.0982056,5.85376,-1.9634705,-0.45829773,0.48182678,0.06954956
1629,A,1127086714400852,-3.8245697,7.5856323,-1.9508057,-0.4678192,0.018356323,-0.29136658
1629,A,1127086764754856,-4.2578735,8.819366,-1.6385803,0.4526062,0.45677185,-0.64334106
1629,A,1127086815108860,-5.8615417,9.885986,-1.6031189,1.6117096,1.0726318,-1.0622253
1629,A,1127086865462864,-4.222702,9.989563,-2.7406616,1.9884033,-0.9530487,-0.9967041
1629,A,1127086915816867,-3.3644104,11.597351,0.85990906,1.2188568,0.5854187,-0.96643066
1629,A,1127086966170871,-2.7725525,11.173721,3.6926727,0.485672,2.2687378,-0.20739746
1629,A,1127087016524875,0.3079834,11.184647,-2.9891205,0.03666687,1.9063416,-0.24198914
1629,A,1127087066878879,-1.2366333,13.078384,-2.5785828,-0.34248352,1.1474609,-0.11152649
1629,A,1127087117232883,-9.455673,9.031738,-2.5589142,-0.8620453,0.3757782,0.013000488
1629,A,1127087167586887,-2.9536438,6.2256927,-3.0143433,-0.0927887,0.25268555,-0.042404175
1629,A,1127087217940891,-1.6934814,6.692154,-3.6186218,0.049362183,0.10658264,0.05986023
1629,A,1127087268294895,-1.8883362,3.992157,-3.896576,0.92152405,0.6662445,0.2993164
1629,A,1127087318648899,-1.5435333,4.9450684,-3.697235,-0.411438,-0.46600342,0.4449463
1629,A,1127087369002903,-3.0213165,10.582291,-2.2354736,-0.10127258,-0.9068146,-0.089019775
1629,A,1127087419356907,-4.6033173,15.67392,-7.34523,-0.9098816,-0.32392883,0.6424408
1629,A,1127087469710910,-5.234192,8.97821,-4.7480774,-0.62898254,-0.79629517,0.14727783
1629,A,1127087520064914,-0.8435211,9.745026,-4.5518036,-0.31773376,-1.7250977,-0.03514099
1629,A,1127087570418918,-4.022156,6.290024,-0.8992615,-0.55934143,-1.3434296,0.16419983
1629,A,1127087620772922,-3.762268,10.890793,-1.3019562,-0.69485474,-0.8121338,0.7242279
1629,A,1127087671126926,1.4294128,8.722733,-2.544342,-0.70936584,-0.43089294,0.7981262
1629,A,1127087721480930,-2.2936707,7.7546234,-1.1684723,-0.53056335,-0.17636108,0.7359009
1629,A,1127087771834934,-4.3917236,8.046356,-0.99328613,-0.37199402,0.0065460205,0.25827026
1629,A,1127087822188938,-4.1500397,8.138046,-2.8074799,-0.33291626,-0.14297485,-0.022964478
1629,A,1127087872542942,-3.799057,7.8840637,-2.9837036,-0.13638306,0.1429596,-0.40525818
1629,A,1127087922896946,-4.2571106,8.272385,-1.7959442,0.74967957,0.767746,-0.778183
1629,A,1127087973250950,-5.0312347,10.366379,-2.5700073,1.5163422,0.483078,-0.9384155
1629,A,1127088023604953,-4.7066803,10.577179,-1.8989105,1.668396,-0.19033813,-0.9360657
1629,A,1127088073958957,-3.8961487,11.730515,2.0519104,0.88446045,1.6253357,-0.6324158
1629,A,1127088124312961,-0.90660095,11.143036,2.754715,0.43521118,2.0348358,-0.21372986
1629,A,1127088174666965,-0.8598175,12.04158,-1.1817169,0.08087158,1.458664,-0.24806213
1629,A,1127088225020969,-4.9496155,10.691925,-2.2197876,-0.36979675,0.6868286,0.010284424
1629,A,1127088275374973,-6.8845825,7.615982,-2.50589,-0.49531555,0.21948242,0.08798218
1629,A,1127088325728977,-1.5616608,7.3795013,-3.3839722,-0.03163147,0.18041992,-0.07237244
1629,A,1127088376082981,-1.7801819,6.0611725,-3.7874298,0.19628906,0.46995544,0.022720337
1629,A,1127088426436985,-1.931778,4.219986,-4.2110596,0.36064148,0.5204468,0.38487244
1629,A,1127088476790989,-1.8382263,6.6013794,-3.869339,-0.12582397,-0.77175903,0.24726868
1629,A,1127088527144992,-3.476303,11.422867,-3.9011536,-0.13476563,-1.0617371,0.15716553
1629,A,1127088577498996,-5.182663,12.404877,-6.540085,-0.8390808,-0.6274109,0.5237732
1629,A,1127088627853000,-3.5628357,10.482254,-5.283371,-0.60554504,-0.86676025,0.17126465
1629,A,1127088678207004,-0.9940796,8.5466,-4.1550903,-0.39015198,-1.590683,0.103256226
1629,A,1127088728561008,-4.259796,7.6401978,-1.3834534,-0.5196991,-1.3100433,0.29144287
1629,A,1127088778915012,-3.676712,10.63089,-1.5118256,-0.6834564,-0.7130585,0.6661682
1629,A,1127088829269016,0.01361084,8.5260315,-2.5619812,-0.7688751,-0.38127136,0.8450012
1629,A,1127088879623020,-2.0411377,7.963974,-1.2948456,-0.53408813,-0.24368286,0.7312927
1629,A,1127088929977024,-3.9157104,8.413574,-1.1174011,-0.371521,-0.12020874,0.30155945
1629,A,1127088980331028,-4.1148224,7.475174,-2.4699097,-0.32659912,0.034179688,-0.12709045
1629,A,1127089030685032,-3.8988953,7.438751,-2.431778,0.07035828,0.47135925,-0.59584045
1629,A,1127089081039035,-4.554184,8.595627,-1.7919159,0.97021484,0.8760376,-0.9209442
1629,A,1127089131393039,-4.841385,10.691238,-1.742691,1.6946411,0.08627319,-1.0191956
1629,A,1127089181747043,-4.2558136,11.50737,-0.17926025,1.5058746,0.26164246,-0.91934204
1629,A,1127089232101047,-3.2342834,11.362549,3.0315857,0.72076416,1.913559,-0.53053284
1629,A,1127089282455051,-0.8186188,11.440292,1.8850403,0.30960083,2.0681915,-0.24041748
1629,A,1127089332809055,-2.055069,12.472916,-1.3746948,-0.13475037,1.2932892,-0.1723938
1629,A,1127089383163059,-6.3251495,9.546463,-2.26091,-0.59207153,0.50364685,-0.038131714
1629,A,1127089433517063,-5.3358,6.484131,-2.5402527,-0.31748962,0.16217041,-0.01802063
1629,A,1127089483871067,-1.6520691,5.9111176,-3.1699371,0.0039978027,0.10974121,-0.07072449
1629,A,1127089534225071,-1.6667175,4.5803833,-3.990097,0.350708,0.23265076,-0.098526
1629,A,1127089584579075,-1.3903198,4.554901,-4.7462006,-0.029785156,-0.3866577,0.19348145
1629,A,1127089634933078,-2.5327759,8.871048,-3.248001,-0.21939087,-0.8977661,0.25553894
1629,A,1127089685287082,-3.849472,9.825043,-4.6489716,-0.69647217,-0.74038696,0.49894714
1629,A,1127089735641086,-4.0121155,10.75177,-6.480957,-0.7103424,-1.0121307,0.35299683
1629,A,1127089785995090,-1.6083527,11.639587,-4.3558655,-0.39393616,-1.4490204,-0.036392212
1629,A,1127089836349094,-1.9062195,6.970093,-2.2787933,-0.46751404,-1.3187103,0.08155823
1629,A,1127089886703098,-3.587082,9.042114,-0.61834717,-0.6952667,-0.75341797,0.52171326
1629,A,1127089937057102,-0.73435974,9.315628,-1.3818359,-0.88578796,-0.23379517,0.9033661
1629,A,1127089987411106,-1.4805908,7.5629272,-1.705719,-0.6425171,-0.17539978,0.7423248
1629,A,1127090037765110,-4.098358,7.748474,-1.5996857,-0.41137695,0.043121338,0.31744385
1629,A,1127090088119114,-4.8592987,7.117096,-2.4720764,-0.46492004,0.08232117,-0.105911255
1629,A,1127090138473117,-4.1613464,7.5954437,-1.9672852,-0.05265808,0.36676025,-0.56973267
1629,A,1127090188827121,-4.8196106,9.792038,-1.302475,1.0023804,0.9451752,-1.0636139
1629,A,1127090239181125,-4.807083,10.670227,-2.369873,1.79776,-0.2722473,-1.1207275
1629,A,1127090289535129,-3.6690674,10.788956,-0.88864136,1.5797119,-0.22177124,-0.98786926
1629,A,1127090339889133,-2.804184,11.495651,2.1659698,0.91368103,1.5966187,-0.42552185
1629,A,1127090390243137,-0.6182709,11.233902,0.80895996,0.3795929,2.1139069,-0.2431488
1629,A,1127090440597141,-0.10145569,12.898209,-1.7017059,-0.030914307,1.5097198,-0.12098694
1629,A,1127090490951145,-6.6583557,10.918442,-2.265976,-0.6761322,0.6665344,0.12849426
1629,A,1127090541305149,-5.600235,7.3470154,-2.6354523,-0.3778534,0.27703857,0.08244324
1629,A,1127090591659153,-2.4158783,6.8638153,-3.491562,-0.11717224,0.24720764,-0.050628662
1629,A,1127090642013157,-1.8763275,4.3320313,-3.9067688,0.5687256,0.9543915,0.0705719
1629,A,1127090692367160,-1.1882629,3.8278656,-3.965088,-0.044067383,-0.16816711,0.3503723
1629,A,1127090742721164,-2.1499786,7.889496,-3.4095306,0.051620483,-1.029419,0.044281006
1629,A,1127090793075168,-5.349243,14.72905,-6.745224,-0.64219666,-0.94514465,0.6153717
1629,A,1127090843429172,-5.75914,11.320618,-5.832794,-0.6353302,-0.7133789,0.46844482
1629,A,1127090893783176,-0.5437927,10.495956,-4.591812,-0.45428467,-1.4103546,0.20646667
1629,A,1127090944137180,-1.6732635,5.9884033,-2.1764069,-0.54167175,-1.6068573,0.10168457
1629,A,1127090994491184,-5.814865,11.673325,-1.600769,-0.603302,-1.117279,0.6518097
1629,A,1127091044845188,-0.6871338,9.200897,-2.9368286,-0.78230286,-0.62664795,0.97740173
1629,A,1127091095199192,-0.3310089,7.651367,-2.2630768,-0.60887146,-0.6298065,1.0071716
1629,A,1127091145553196,-3.1729736,8.559174,-1.1017303,-0.29971313,-0.41615295,0.46284485
1629,A,1127091195907200,-3.7038116,7.746155,-2.3871155,-0.27659607,-0.15872192,0.19491577
1629,A,1127091246261203,-3.8555603,7.31839,-3.0168457,-0.2112732,0.2718048,-0.37324524
1629,A,1127091296615207,-3.9060822,8.547409,-2.1803284,0.66397095,1.2974701,-1.003418
1629,A,1127091346969211,-6.554077,9.69429,-2.8457336,1.4243774,0.5796814,-1.1192169
1629,A,1127091397323215,-4.371826,11.038422,-3.157135,1.8140564,-0.74765015,-0.9035187
1629,A,1127091447677219,-3.6982727,12.207977,2.3041992,0.93600464,1.6873016,-0.68785095
1629,A,1127091498031223,0.3088379,11.25119,2.7235565,0.009963989,2.7781372,-0.27267456
1629,A,1127091548385227,0.9960022,14.2361145,-1.7118988,0.08421326,1.7112732,-0.32481384
1629,A,1127091598739231,-4.823395,11.493668,-1.4958649,-0.7176361,0.66537476,-0.029907227
1629,A,1127091649093235,-6.4557343,6.71344,-2.0042114,-0.78956604,0.318161,0.14155579
1629,A,1127091699447239,-0.61486816,8.138855,-4.5959625,0.019012451,0.26914978,-0.2720337
1629,A,1127091749801242,-2.4172974,5.9587097,-4.507782,0.55140686,0.74928284,0.019882202
1629,A,1127091800155246,-2.1387482,0.9806671,-5.2361298,0.29257202,-0.79486084,0.4794159
1629,A,1127091850509250,-2.6395721,5.502701,-3.3365326,0.23580933,-1.3743896,-0.039749146
1629,A,1127091900863254,-5.0776215,18.075134,-5.8532867,-0.8195038,-0.9572449,0.7473297
1629,A,1127091951217258,-4.209778,8.450577,-2.9783173,-0.6949463,-1.0217133,0.29216003
1629,A,1127092001571262,-1.8432007,12.713989,-4.812027,-0.345047,-1.9308624,0.17546082
1629,A,1127092051925266,-1.7088318,5.21817,-1.6861267,-0.5265808,-1.7275085,0.06378174
1629,A,1127092102279270,-7.7385864,13.212021,-1.7010651,-0.7257843,-0.9107666,0.9971771
1629,A,1127092152633274,1.9129791,8.3446045,-3.077057,-0.60076904,-0.40664673,1.1387634
1629,A,1127092202987278,-1.109436,7.6672516,-1.3765869,-0.55337524,-0.16316223,0.6303253
1629,A,1127092253341282,-4.175659,8.533463,-0.43411255,-0.3793335,0.03100586,0.31462097
1629,A,1127092303695285,-4.3166046,7.227478,-3.1730652,-0.48394775,-0.26992798,0.19111633
1629,A,1127092354049289,-4.3981476,7.352173,-1.488739,0.1434021,0.1295929,-0.39291382
1629,A,1127092404403293,-4.606598,9.885208,-1.599411,1.1360931,1.2481384,-1.3025208
1629,A,1127092454757297,-5.0641174,10.883759,-3.6447754,1.7521057,0.031402588,-1.0593414
1629,A,1127092505111301,-2.8697357,11.557434,-2.735321,1.6460724,-0.69122314,-0.94662476
1629,A,1127092555465305,-1.9207916,12.647842,3.881546,0.6767731,2.4038696,-0.44898987
1629,A,1127092605819309,0.12371826,10.900406,1.4450226,0.09687805,2.2639313,-0.38607788
1629,A,1127092656173313,0.29208374,14.677246,-2.97583,-0.13476563,1.6506958,-0.36836243
1629,A,1127092706527317,-7.2533417,9.954422,-1.2327423,-0.9525299,0.8262329,0.04260254
1629,A,1127092756881321,-5.029007,5.489624,-2.2213593,-0.4295044,0.6089783,0.053878784
1629,A,1127092807235325,-1.2826538,6.5117493,-3.4865723,0.16215515,0.31944275,-0.058914185
1629,A,1127092857589328,-1.7468872,4.235977,-4.018097,0.23826599,0.1403656,-0.036956787
1629,A,1127092907943332,-1.9389343,3.711731,-3.6439362,-0.081085205,-0.23423767,0.35473633
1629,A,1127092958300632,-2.0069427,8.802383,-2.8205566,0.29452515,-0.9849701,0.06568909
1629,A,1127093008654636,-4.7831573,15.674118,-8.34343,-0.42744446,-0.90097046,0.36386108
1629,A,1127093059008640,-3.8011322,4.5628815,-4.490219,-0.89920044,-0.9895935,0.5788269
1629,A,1127093109362644,-5.3454895,17.86383,-2.6468506,-0.20675659,-2.1460876,-0.120513916
1629,A,1127093159716648,-1.4415131,5.8568115,-0.99357605,-0.53674316,-1.7468109,0.10095215
1629,A,1127093210070652,-3.2651062,6.2598877,-2.667221,-0.5717926,-1.0882263,0.9009857
1629,A,1127093260424656,2.215454,13.540543,-2.098587,-0.60369873,-0.26644897,0.98139954
1629,A,1127093310778660,-1.1814423,6.9267883,-0.9346771,-0.4487152,-0.13601685,0.6655731
1629,A,1127093361132663,-5.115204,8.584198,-0.8516998,-0.3529663,-0.15179443,0.29049683
1629,A,1127093411486667,-4.570984,7.064682,-3.1056976,-0.33155823,-0.17262268,0.10006714
1629,A,1127093461840671,-4.3550262,8.19783,-2.8647156,0.23374939,0.31144714,-0.5375061
1629,A,1127093512194675,-4.2166443,9.03154,-3.2974243,1.1937256,1.083374,-1.1710815
1629,A,1127093562548679,-5.6015015,10.120499,-3.2486267,1.7501221,-3.0517578E-4,-1.0863342
1629,A,1127093612902683,-4.3590393,11.314896,-1.907959,1.5521088,-0.12063599,-0.8404083
1629,A,1127093663256687,-2.3405914,12.445328,3.1356049,0.59773254,2.4160156,-0.4167633
1629,A,1127093713610691,0.36361694,12.022949,1.0166321,0.1111145,2.3087463,-0.31826782
1629,A,1127093763964695,-1.0060577,14.083603,-2.396576,-0.21949768,1.5443878,-0.33602905
1629,A,1127093814318699,-6.621826,9.584839,-1.5135651,-0.78826904,0.69348145,1.6784668E-4
1629,A,1127093864672703,-4.7168427,5.781845,-2.2123108,-0.4627533,0.40083313,0.037719727
1629,A,1127093915026706,-1.24617,5.403412,-3.2789154,0.054016113,0.4812622,-0.1338501
1629,A,1127093965380710,-1.5891418,3.9322815,-4.3786926,0.22319031,0.4139557,-0.03364563
1629,A,1127094015734714,-1.6564178,4.296234,-4.7285156,0.096206665,-0.26597595,0.16567993
1629,A,1127094066088718,-3.019516,10.191772,-4.061493,-0.10154724,-0.9329834,0.13833618
1629,A,1127094116442722,-5.3369293,13.557205,-6.011154,-0.5604248,-0.5808716,0.35368347
1629,A,1127094166796726,-4.177429,6.9072876,-5.012909,-0.8612976,-0.72029114,0.40927124
1629,A,1127094217150730,-2.8628387,13.474899,-3.0664673,-0.3366089,-1.7459564,-0.10871887
1629,A,1127094267504734,-1.9725494,6.673645,-1.6579895,-0.55981445,-1.615509,0.10739136
1629,A,1127094317858738,-3.61438,7.904892,-1.5974579,-0.582077,-0.9771881,0.68292236
1629,A,1127094368212742,0.343338,10.901047,-1.6647797,-0.7146301,-0.49647522,0.92259216
1629,A,1127094418566746,-1.0776978,7.791504,-1.3240509,-0.49865723,-0.27955627,0.75375366
1629,A,1127094468920749,-4.1660614,8.495377,-0.9490814,-0.41973877,-0.086257935,0.32128906
1629,A,1127094519274753,-4.1102753,7.0655212,-2.5274963,-0.3552704,-0.034225464,-0.055847168
1629,A,1127094569628757,-4.0525208,7.510147,-2.6266327,0.08885193,0.24217224,-0.48287964
1629,A,1127094619982761,-4.5534515,8.7209015,-1.8396149,1.0356293,0.75245667,-0.8724365
1629,A,1127094670336765,-4.610611,10.87381,-1.4746399,1.7693024,-0.1722107,-1.0600891
1629,A,1127094720690769,-3.7374573,11.164291,-0.7144165,1.543045,-0.10850525,-1.0176544
1629,A,1127094771044773,-2.690216,11.292679,2.9281158,0.735672,1.905014,-0.59843445
1629,A,1127094821398777,0.18389893,11.685944,1.4416962,0.30841064,2.244995,-0.25726318
1629,A,1127094871752781,-0.7833252,12.520035,-2.4749756,-0.10499573,1.5109253,-0.28559875
1629,A,1127094922106785,-6.084137,9.8545685,-2.4369354,-0.6055603,0.75079346,-0.05029297
1629,A,1127094972460788,-5.7801666,7.41037,-3.0868683,-0.4613037,0.3794403,0.08430481
1629,A,1127095022814792,-1.3864746,7.591339,-4.1445007,-0.08744812,0.11584473,-0.05760193
1629,A,1127095073168796,-1.8268433,5.457596,-4.3732147,0.31852722,0.18334961,-0.10368347
1629,A,1127095123522800,-1.6998291,3.7758179,-4.587906,-0.032333374,0.04121399,0.33854675
1629,A,1127095173876804,-2.0018463,8.172043,-3.0118866,-0.14605713,-0.6218262,0.22525024
1629,A,1127095224230808,-3.4299622,11.267426,-4.692047,-0.52700806,-0.759964,0.4510193
1629,A,1127095274584812,-3.68219,10.598572,-6.2009125,-0.7517395,-1.062973,0.4250946
1629,A,1127095324938816,-0.92588806,12.844772,-3.8039246,-0.37841797,-1.7725372,-0.056533813
1629,A,1127095375292820,-0.95254517,9.240982,-2.1812897,-0.37895203,-1.8227844,0.093444824
1629,A,1127095425646824,-3.9064636,8.889587,-0.99461365,-0.5565033,-1.2101593,0.58639526
1629,A,1127095476000828,-0.37319946,10.095627,-1.8950806,-0.73490906,-0.53208923,0.9406891
1629,A,1127095526354831,-0.14959717,8.096008,-1.9399414,-0.62286377,-0.25872803,0.89356995
1629,A,1127095576708835,-3.5543365,7.835785,-1.0860901,-0.40605164,-0.08175659,0.48739624
1629,A,1127095627062839,-4.4267883,7.6331177,-2.3055725,-0.41552734,-0.058258057,0.045150757
1629,A,1127095677416843,-4.444214,8.186829,-2.3919067,-0.21984863,0.20651245,-0.32615662
1629,A,1127095727770847,-4.1604767,9.341019,-1.807373,0.58769226,0.939209,-0.8388672
1629,A,1127095778124851,-4.669342,10.126633,-2.981903,1.4920654,0.2807312,-1.0345612
1629,A,1127095828478855,-3.9610138,10.882599,-2.8823853,1.6837921,-0.67536926,-0.96665955
1629,A,1127095878832859,-3.0791016,12.099106,1.2191772,1.1319275,1.0834045,-0.60910034
1629,A,1127095929186863,-0.32577515,11.214645,2.6109772,0.53907776,2.165451,-0.35820007
1629,A,1127095979540867,1.9264679,12.725586,-1.0664825,0.18130493,1.7727051,-0.33091736
1629,A,1127096029894871,-4.5136566,11.432327,-1.8483429,-0.43933105,0.96014404,-0.037582397
1629,A,1127096080248874,-6.7072754,8.139069,-1.7030029,-0.6397705,0.3218994,0.18811035
1629,A,1127096130602878,-2.5598297,7.3886566,-3.3988647,-0.15530396,0.18243408,-0.08836365
1629,A,1127096180956882,-1.4502716,6.289154,-3.9028473,0.105163574,0.24986267,-0.1659851
1629,A,1127096231310886,-1.3951111,4.2198334,-4.446579,0.42364502,0.55726624,0.084198
1629,A,1127096281664890,-1.1153259,4.756363,-4.0914764,-0.28442383,-0.2644348,0.42219543
1629,A,1127096332018894,-2.575348,13.591003,-4.327133,0.036331177,-0.78126526,0.03112793
1629,A,1127096382372898,-3.5849304,7.9282837,-6.762787,-0.81100464,-0.6008606,0.52919006
1629,A,1127096432726902,-3.2018738,9.862686,-5.7294617,-0.5660248,-1.0573425,0.17655945
1629,A,1127096483080906,0.6188812,12.564331,-4.081772,-0.46365356,-1.8553162,0.0040740967
1629,A,1127096533434910,-2.9165497,7.054611,-1.629715,-0.42311096,-1.7241211,0.1913147
1629,A,1127096583788913,-3.8943787,10.549255,-0.7711029,-0.6524658,-1.0377045,0.5945587
1629,A,1127096634142917,1.2011719,8.90332,-2.579361,-0.7269745,-0.3972931,0.87779236
1629,A,1127096684496921,-1.4302521,8.62822,-1.5576324,-0.55599976,-0.2897339,0.8623047
1629,A,1127096734850925,-3.519806,7.5636444,-1.20578,-0.34588623,-0.028396606,0.3752594
1629,A,1127096785204929,-4.5493774,7.4690704,-2.7212372,-0.42730713,-0.05645752,0.010391235
1629,A,1127096835558933,-4.190323,7.9982452,-2.506668,-0.27392578,0.24197388,-0.2872467
1629,A,1127096885912937,-3.6417847,9.934982,-1.7951813,0.5001831,1.1922455,-0.8446655
1629,A,1127096936266941,-5.109009,10.15242,-3.2622375,1.5196533,0.48072815,-0.97943115
1629,A,1127096986620945,-3.815567,10.952774,-3.2900848,1.7388916,-1.085495,-0.95921326
1629,A,1127097036974949,-3.60997,12.229111,1.6901398,0.9929962,1.4488525,-0.56526184
1629,A,1127097087328953,0.35984802,10.871063,3.4835358,0.4440918,2.2086182,-0.30259705
1629,A,1127097137682956,2.5319366,13.012451,-1.1532288,0.12594604,1.8023987,-0.26446533
1629,A,1127097188036960,-4.51445,10.500824,-1.6545105,-0.3232727,0.9338074,9.0026855E-4
1629,A,1127097238390964,-7.408493,7.71344,-2.1937714,-0.6717224,0.21975708,0.1214447
1629,A,1127097288744968,-2.0971527,7.5764465,-3.6376038,-0.08279419,0.10359192,0.0042419434
1629,A,1127097339098972,-1.8389893,6.441864,-3.5778809,0.07875061,0.16604614,-0.30236816
1629,A,1127097389452976,-1.1382294,3.9314423,-4.3508453,0.78308105,0.9470215,-0.048675537
1629,A,1127097439806980,-1.1616669,4.2957153,-4.233658,-0.44911194,-0.48376465,0.22013855
1629,A,1127097490160984,-2.47818,13.300995,-2.2445831,0.07673645,-0.58265686,-0.015136719
1629,A,1127097540514988,-4.0018005,9.6276245,-7.5033875,-1.2001648,-0.27374268,0.70306396
1629,A,1127097590868992,-4.082199,12.928482,-5.426956,-0.483963,-0.94244385,0.11894226
1629,A,1127097641222996,1.9650421,10.737045,-4.139038,-0.4857483,-1.8965759,-0.10517883
1629,A,1127097691576999,-4.2237396,5.276993,-1.1834564,-0.5548248,-1.4085236,0.09664917
1629,A,1127097741931003,-3.1114807,12.134933,-0.51934814,-0.808548,-0.71850586,0.7327118
1629,A,1127097792285007,2.723297,8.419006,-3.0048523,-0.84072876,-0.26696777,0.8794708
1629,A,1127097842639011,-2.284378,8.074432,-1.3118591,-0.6556549,-0.1895752,0.7241821
1629,A,1127097892993015,-4.232544,6.9452667,-1.0055695,-0.3375702,0.052581787,0.23548889
1629,A,1127097943347019,-4.2484894,8.060013,-3.2189636,-0.4093933,-0.11302185,0.044555664
1629,A,1127097993701023,-3.6500702,8.014435,-2.3944092,-0.18856812,0.003982544,-0.27285767
1629,A,1127098044055027,-2.8464966,9.650909,-1.7284241,0.59788513,1.0315857,-0.83195496
1629,A,1127098094409031,-6.116989,10.003082,-3.4820557,1.6606293,0.33865356,-0.8925476
1629,A,1127098144763035,-3.4005127,11.74733,-3.0124664,1.8123322,-1.3741455,-0.8725586
1629,A,1127098195117038,-3.5663452,12.75676,1.8970642,0.94296265,1.636673,-0.5110016
1629,A,1127098245471042,0.2593994,10.388794,3.7499695,0.4942932,2.3137512,-0.283432
1629,A,1127098295825046,2.1625671,13.404663,-1.6345978,0.0993042,1.7467957,-0.3670349
1629,A,1127098346179050,-4.815445,10.763504,-1.8856506,-0.38145447,0.8248749,-0.11097717
1629,A,1127098396533054,-7.448303,7.251663,-2.42247,-0.72550964,0.26496887,0.048614502
1629,A,1127098446887058,-1.4019318,6.623123,-3.1093292,-0.06959534,0.008392334,0.04664612
1629,A,1127098497241062,-1.6504364,6.8899536,-3.35141,0.033691406,-0.041152954,-0.3179779
1629,A,1127098547595066,-1.2704315,2.950821,-4.150421,0.5366974,0.596817,-0.09686279
1629,A,1127098597949070,-1.4314423,5.437973,-4.2631226,-0.85147095,-0.30667114,0.5057678
1629,A,1127098648303074,-2.7533722,12.219406,-2.2473602,0.17123413,-0.80229187,0.08029175
1629,A,1127098698657078,-4.9082184,10.712097,-7.8081512,-1.1704102,-1.1584625,0.8495331
1629,A,1127098749011081,-2.5973053,10.738678,-3.5761719,-0.2610321,-1.495636,-0.05316162
1629,A,1127098799365085,1.7907104,14.556213,-2.4161987,-0.56611633,-1.9103699,-0.12934875
1629,A,1127098849719089,-2.1826324,5.1892395,-1.5236511,-0.41906738,-1.4442444,0.2763214
1629,A,1127098900073093,-4.5680695,13.127548,-1.6527405,-0.6787262,-0.7575531,0.8956299
1629,A,1127098950427097,2.4161377,7.270111,-2.737915,-0.6576843,-0.2632904,0.880249
1629,A,1127099000781101,-3.056961,8.178116,-0.9722595,-0.57173157,-0.0869751,0.6399994
1629,A,1127099051135105,-3.8098602,7.7782135,-1.2154846,-0.44529724,-0.107681274,0.2933197
1629,A,1127099101489109,-3.9760437,7.9525604,-3.316162,-0.40415955,-0.3192749,-0.018203735
1629,A,1127099151843113,-3.998825,8.232407,-1.9382782,0.14370728,0.31103516,-0.5231781
1629,A,1127099202197117,-3.6993866,9.819412,-2.132248,1.2680206,0.7114868,-0.91389465
1629,A,1127099252551121,-3.8123627,10.81131,-3.342575,1.8568726,-0.50639343,-0.8428955
1629,A,1127099302905124,-3.2866821,11.920883,-1.3920288,1.6300201,-0.3985443,-0.7411194
1629,A,1127099353259128,-2.5897064,12.763718,3.569992,0.8898468,1.8719482,-0.28175354
1629,A,1127099403613132,0.83369446,11.477844,1.2410889,0.45561218,1.8670349,-0.19680786
1629,A,1127099453967136,-0.1274414,13.030792,-2.1944733,0.035369873,1.2768707,-0.1845398
1629,A,1127099504321140,-6.463791,9.447205,-1.1409302,-0.5998688,0.5256653,0.1304779
1629,A,1127099554675144,-4.7736053,6.8099823,-2.3839874,-0.44052124,0.1663971,0.11639404
1629,A,1127099605029148,-0.9139404,6.881195,-4.1123657,0.10441589,0.14831543,-0.07548523
1629,A,1127099655383152,-1.5798492,4.6784363,-4.0971985,0.29248047,0.23535156,-0.17468262
1629,A,1127099705737156,-1.1403351,4.007553,-4.8956757,0.21148682,-0.03414917,0.09005737
1629,A,1127099756091160,-1.7154846,8.873093,-4.5364532,-0.40071106,-0.70710754,0.20898438
1629,A,1127099806445163,-2.9786224,13.445938,-5.248169,-0.4572754,-0.52789307,0.33403015
1629,A,1127099856799167,-3.3273773,7.5131073,-7.0081177,-0.9259033,-0.9372101,0.48286438
1629,A,1127099907153171,-1.7726288,11.92099,-4.6801147,-0.45185852,-1.7700348,-0.06425476
1629,A,1127099957507175,-0.846344,8.440765,-3.166336,-0.67149353,-1.5390625,0.139328
1629,A,1127100007861179,-3.1198883,7.842087,-1.2644958,-0.64172363,-1.0309448,0.57836914
1629,A,1127100058215183,-0.07759094,10.863663,-1.2400513,-0.7284088,-0.5156555,0.7397766
1629,A,1127100108569187,-0.4825287,7.2509003,-1.2738647,-0.46842957,-0.30278015,0.7320404
1629,A,1127100158923191,-3.9045258,8.452087,-0.6316376,-0.3812561,-0.21905518,0.40112305
1629,A,1127100209277195,-3.261856,6.9851227,-2.171173,-0.4902649,0.004638672,0.013626099
1629,A,1127100259631199,-3.923996,8.176376,-1.870224,-0.23136902,0.049224854,-0.35560608
1629,A,1127100309985203,-4.2174225,9.849991,-1.3278198,0.7545166,0.74154663,-0.75730896
1629,A,1127100360339206,-4.7323,10.352585,-2.3690033,1.6656342,0.0809021,-0.9497223
1629,A,1127100410693210,-3.5321503,10.766769,-1.738266,1.7421265,-0.8436279,-0.8518982
1629,A,1127100461047214,-2.8766632,11.954468,1.4971161,1.2093811,0.9370117,-0.53041077
1629,A,1127100511401218,-0.9037628,11.808624,1.8269348,0.6053314,2.1654816,-0.24871826
1629,A,1127100561755222,1.7411499,12.3077545,-1.4146881,0.20613098,1.6551361,-0.30186462
1629,A,1127100612109226,-3.7977753,11.675919,-1.9115906,-0.38233948,0.9259949,-0.11488342
1629,A,1127100662463230,-6.974365,8.319595,-1.833435,-0.59355164,0.34695435,0.09359741
1629,A,1127100712817234,-2.3167572,7.6015625,-3.8555603,-0.1386261,0.101135254,0.020095825
1629,A,1127100763171238,-1.5140686,6.339325,-4.5719757,0.39614868,0.4179077,-0.06617737
1629,A,1127100813525242,-1.1982574,4.033615,-4.2860565,0.28990173,0.09869385,0.2190094
1629,A,1127100863879246,-0.9306183,5.8576508,-3.9209747,0.09692383,-0.98165894,0.1370697
1629,A,1127100914233249,-3.2763062,12.91304,-5.6496277,-0.25959778,-1.0539856,0.24015808
1629,A,1127100964587253,-5.131607,11.476929,-6.13826,-0.6816101,-0.6502075,0.39762878
1629,A,1127101014941257,-3.1644287,11.431793,-4.3945465,-0.43496704,-1.4170685,0.06309509
1629,A,1127101065295261,-1.343689,10.583939,-2.5462952,-0.3123932,-2.0389862,0.12738037
1629,A,1127101115649265,-4.4937897,7.3339233,-1.4142151,-0.375412,-1.5614319,0.56251526
1629,A,1127101166003269,-1.703186,9.614288,-2.951233,-0.564621,-0.83569336,0.80526733
1629,A,1127101216357273,0.8452759,8.441727,-2.3834534,-0.6841736,-0.280838,0.8779602
1629,A,1127101266711277,-0.6463928,9.588913,-0.8380432,-0.5331116,-0.08151245,0.6147461
1629,A,1127101317065281,-2.4181824,9.101044,-2.0507813,-0.39437866,-0.109176636,0.2818756
1629,A,1127101367419285,-4.039627,6.9479523,-3.1716766,-0.3804474,-0.18786621,-0.09710693
1629,A,1127101417773288,-4.1370544,7.1359406,-2.7372284,0.23565674,0.17298889,-0.44841003
1629,A,1127101468127292,-4.4808044,9.696228,-1.9594116,1.2649384,0.61557007,-0.74176025
1629,A,1127101518481296,-4.043045,10.904388,-2.2294312,1.8654938,-0.51452637,-0.832901
1629,A,1127101568835300,-3.686203,11.702637,-0.21525574,1.5589142,0.12783813,-0.7210083
1629,A,1127101619189304,-1.9916382,11.736984,2.7458344,1.0190125,1.5361481,-0.30766296
1629,A,1127101669543308,0.21302795,11.353851,-1.5561371,0.57777405,1.6609192,-0.30749512
1629,A,1127101719897312,-0.66726685,11.745529,-3.0740051,0.1329956,1.1201172,-0.18083191
1629,A,1127101770251316,-6.166046,9.275299,-1.9941101,-0.58691406,0.51535034,0.09703064
1629,A,1127101820605320,-3.5913696,7.5681763,-2.848175,-0.29058838,0.1315155,0.07142639
1629,A,1127101870959324,-1.1047668,7.5845947,-4.064163,0.052963257,0.032806396,-0.1543274
1629,A,1127101921313328,-1.9118347,4.636795,-4.4368286,0.41799927,0.69270325,0.017471313
1629,A,1127101971667331,-1.4706421,4.479706,-4.1425323,0.001449585,0.026733398,0.37094116
1629,A,1127102022021335,-1.5113373,8.154678,-3.078125,0.21586609,-0.93751526,0.10055542
1629,A,1127102072375339,-4.124344,13.587662,-6.9806824,-0.3952179,-1.0057678,0.5650635
1629,A,1127102122729343,-3.8674164,9.875137,-5.4539795,-0.6083832,-1.2709656,0.25468445
1629,A,1127102173083347,-0.7257538,14.124832,-4.7666016,-0.30776978,-2.157608,-0.011276245
1629,A,1127102223437351,-1.4977875,8.647705,-1.6781464,-0.34843445,-1.994339,0.15553284
1629,A,1127102273791355,-4.268692,9.678345,-1.9910126,-0.42001343,-1.4163818,0.6464081
1629,A,1127102324145359,1.4994202,9.732071,-3.3753357,-0.6865387,-0.5648041,0.78356934
1629,A,1127102374499363,-0.717865,8.387451,-1.7673645,-0.72924805,0.005996704,0.9454346
1629,A,1127102424853367,-4.193634,7.9727325,-0.3063202,-0.42526245,-0.05067444,0.47662354
1629,A,1127102475207371,-4.282196,7.8539124,-2.9153595,-0.26712036,-0.3480072,0.22605896
1629,A,1127102525561374,-4.7427216,6.913864,-3.11615,-0.32092285,-0.26983643,-0.15013123
1629,A,1127102575915378,-3.7092743,7.6010284,-2.285736,0.3677063,0.1255951,-0.40411377
1629,A,1127102626269382,-4.031372,10.629242,-2.1276245,1.3838501,0.69859314,-0.8320465
1629,A,1127102676623386,-4.052902,10.6558075,-2.3722076,1.8639221,-0.72676086,-0.9530029
1629,A,1127102726977390,-4.0975494,11.425507,-0.11383057,1.4686127,0.47686768,-0.7820587
1629,A,1127102777331394,-1.9900055,11.162872,2.7079315,0.9372711,1.8237152,-0.20651245
1629,A,1127102827685398,0.3408966,11.246277,-3.136261,0.27204895,1.8759918,-0.31199646
1629,A,1127102878039402,-1.1741791,12.389664,-2.6995697,-0.15740967,1.3802185,-0.10597229
1629,A,1127102928393406,-7.108902,9.761032,-1.4608612,-0.98010254,0.59690857,0.1028595
1629,A,1127102978747410,-2.4991608,8.196579,-3.2546082,-0.5341339,0.32052612,0.17559814
1629,A,1127103029096864,-1.4693756,7.670929,-4.3029175,-0.046295166,0.10580444,-0.2106781
1629,A,1127103079450868,-1.890686,4.1479034,-4.5664673,0.41932678,0.80303955,0.12826538
1629,A,1127103129804872,-0.83924866,4.2782745,-4.1041107,0.48457336,0.55737305,0.27442932
1629,A,1127103180158876,-0.14868164,7.95372,-2.4116669,-0.3631897,-0.97880554,0.1438446
1629,A,1127103230512880,-5.154373,16.490112,-7.3717957,0.104782104,-0.79055786,0.026779175
1629,A,1127103280866884,-2.9723053,6.4518585,-5.751709,-1.105957,-0.49195862,0.5087433
1629,A,1127103331220888,-1.4852142,12.404007,-6.040924,-0.21209717,-1.6438293,-0.02041626
1629,A,1127103381574892,1.2136078,9.655609,-2.5667572,-0.49813843,-2.3666992,0.24006653
1629,A,1127103431928896,-5.7737427,6.000778,-0.72094727,-0.23033142,-1.9577179,0.25610352
1629,A,1127103482282900,-0.6033478,12.513901,-1.4993286,-0.48937988,-1.1238403,0.5453186
1629,A,1127103532636904,1.5666046,6.8709717,-2.5467987,-0.45336914,-0.8813019,0.86094666
1629,A,1127103582990907,-2.678772,10.5321045,-0.9382477,-0.09169006,-1.2149353,1.1694946
1629,A,1127103633344911,-3.53154,7.381317,-0.9706726,0.022109985,-1.5357513,0.8238373
1629,A,1127103683698915,-3.920288,8.32457,-1.5141449,0.020736694,-0.9782715,0.65437317
1629,A,1127103734052919,-4.0359344,8.567688,-1.828064,-0.022720337,-0.6262512,-0.2301178
1629,A,1127103784406923,-2.3008575,9.178818,-2.5452118,0.55218506,-0.39065552,-0.1998291
1629,A,1127103834760927,-6.095169,9.9253235,-1.3097076,1.0283966,-0.5501251,-0.73161316
1629,A,1127103885114931,-4.3864136,11.564362,-3.509491,1.315918,-0.5903778,-0.64201355
1629,A,1127103935468935,-3.4922485,10.786606,0.26887512,0.84599304,1.3967133,-0.43206787
1629,A,1127103985822939,1.6654816,11.415298,-1.5335541,0.6131134,1.4168243,-0.776062
1629,A,1127104036176943,2.283844,12.24147,-3.1021576,0.62101746,0.95602417,-0.91070557
1629,A,1127104086530947,-3.0967407,11.137146,-2.8699799,0.17941284,0.92518616,-0.9469452
1629,A,1127104136884950,-1.5723419,7.007126,-2.6477814,-0.23297119,0.9406128,-0.29689026
1629,A,1127104187238954,0.4591217,8.079834,-3.6150818,-0.7462616,0.97021484,-0.21878052
1629,A,1127104237592958,-1.6569977,7.883316,-3.6435852,-0.25971985,1.0565338,-0.4059906
1629,A,1127104287946962,-2.8729706,6.060669,-4.248337,-0.032333374,0.98695374,-0.46620178
1629,A,1127104338300966,-3.391922,5.6550293,-5.166458,0.45324707,1.1326752,0.014007568
1629,A,1127104388654970,-3.4438477,7.241989,-5.59639,-0.42082214,-0.51971436,0.18367004
1629,A,1127104439008974,-3.2649384,10.548676,-4.798294,-0.06840515,-0.597229,0.15983582
1629,A,1127104489362978,-3.7874603,11.4296875,-7.043869,-0.8613739,-0.8739624,0.5106354
1629,A,1127104539716982,-1.3982849,13.403992,-4.492798,-0.5100708,-1.7019653,-0.041870117
1629,A,1127104590070986,2.265808,8.350128,-3.2258148,-0.47357178,-2.313919,0.23725891
1629,A,1127104640424989,-3.754776,7.575653,-1.0512543,-0.52093506,-1.8296661,0.25912476
1629,A,1127104690778993,-0.3307953,11.528473,-1.9552155,-0.59954834,-1.1051941,0.5751648
1629,A,1127104741132997,1.4064331,8.021347,-2.7323608,-0.7215729,-0.67437744,0.63186646
1629,A,1127104791487001,-2.1746216,8.5841675,-0.4829712,-0.5079498,-0.28959656,0.7662506
1629,A,1127104841841005,-3.0765076,7.825485,-0.6550751,-0.2756958,-0.414917,0.36791992
1629,A,1127104892195009,-3.4626617,8.514435,-2.5435486,-0.27449036,-0.56629944,0.19593811
1629,A,1127104942549013,-4.084915,7.1417694,-2.2751007,-0.111083984,-0.2592163,-0.19935608
1629,A,1127104992903017,-4.0329437,9.128815,-1.5628967,0.72428894,0.30459595,-0.6148529
1629,A,1127105043257021,-4.0387726,10.994247,-2.8573303,1.650528,0.5116272,-0.865036
1629,A,1127105093611025,-4.2608337,10.841995,-1.731247,1.8479767,-0.3362732,-0.74401855
1629,A,1127105143965029,-3.1728973,12.288528,1.1897583,1.4801941,0.62368774,-0.53186035
1629,A,1127105194319032,-1.7784424,11.116013,1.8533173,0.96147156,1.4466248,-0.3043518
1629,A,1127105244673036,-0.14720154,11.468994,-1.3207703,0.49028015,1.377121,-0.18856812
1629,A,1127105295027040,-2.6182861,11.301102,-1.8565674,-0.0738678,0.83473206,0.21453857
1629,A,1127105345381044,-5.5012665,8.729599,-1.8181915,-0.44670105,0.36305237,0.23139954
1629,A,1127105395735048,-2.1668549,6.939316,-2.9064941,0.008636475,0.33106995,-0.051589966
1629,A,1127105446089052,-1.9381104,5.6002502,-4.0268707,0.3564911,0.64572144,-0.11553955
1629,A,1127105496443056,-1.6868439,5.0804443,-4.4398346,0.24227905,0.5371399,0.22625732
1629,A,1127105546797060,-1.2704773,6.0272064,-4.105194,-0.2687378,-0.5748749,0.23880005
1629,A,1127105597151064,-3.0733643,10.932495,-5.4053345,-0.38775635,-0.7842865,0.2000885
1629,A,1127105647505068,-5.0603485,13.926361,-7.1716766,-0.8939972,-0.5056,0.43037415
1629,A,1127105697859072,-2.18721,10.07225,-4.860153,-0.6116333,-0.7864685,0.17388916
1629,A,1127105748213075,0.057647705,8.605881,-4.596863,-0.61138916,-1.3426208,0.13310242
1629,A,1127105798567079,-3.1779633,8.28273,-1.7325287,-0.6819153,-0.92729187,0.14996338
1629,A,1127105848921083,-2.7933502,10.7397,-2.2746277,-0.73709106,-0.39120483,0.35560608
1629,A,1127105899275087,0.42008972,7.5684357,-2.7073975,-0.93766785,-0.12347412,0.5663147
1629,A,1127105949629091,-1.9020538,8.3022,-1.1273804,-0.791214,-0.117248535,0.676178
1629,A,1127105999983095,-3.7140808,8.446472,-1.1335449,-0.5368805,-0.18658447,0.36335754
1629,A,1127106050337099,-3.1693573,7.421875,-2.6685333,-0.47776794,-0.009460449,-0.04663086
1629,A,1127106100691103,-3.3236847,7.423645,-2.061142,-0.11668396,0.12675476,-0.35757446
1629,A,1127106151045107,-3.775238,9.640701,-1.4377441,0.8356018,0.36270142,-0.5870514
1629,A,1127106201399111,-4.0742493,11.693085,-1.5821075,1.4923553,0.12106323,-0.80856323
1629,A,1127106251753114,-4.1792603,12.589539,-0.2530365,1.5549774,-0.15403748,-0.65431213
1629,A,1127106302107118,-2.7458801,12.649872,1.7291565,1.322937,0.7889557,-0.53570557
1629,A,1127106352461122,0.43978882,10.947845,0.7342224,0.8857269,1.4903412,-0.5422363
1629,A,1127106402815126,0.699646,11.210037,-1.0843353,0.59135437,1.1434479,-0.27207947
1629,A,1127106453169130,-3.0499268,11.499908,-1.5866852,0.07470703,0.42988586,0.18992615
1629,A,1127106503523134,-3.9298706,8.991257,-1.9366302,-0.45961,0.14398193,0.292099
1629,A,1127106553877138,-1.5088806,6.777664,-3.2670898,-0.18566895,0.27723694,-0.07536316
1629,A,1127106604231142,-1.5139465,6.0357666,-4.2269135,-0.024307251,0.30726624,-0.1972351
1629,A,1127106654585146,-1.5591736,5.1986694,-4.468231,0.07078552,0.5233002,-0.08204651
1629,A,1127106704939150,-2.110199,5.6372833,-5.196274,-0.3776703,-0.2989807,0.32429504
1629,A,1127106755293154,-3.2567596,9.981796,-5.580307,-0.09350586,-1.1927795,0.21696472
1629,A,1127106805647157,-3.6753082,9.664886,-7.7993164,-0.61576843,-1.0829315,0.39045715
1629,A,1127106856001161,-3.027588,9.935608,-6.6988373,-0.70236206,-1.0979462,0.2697296
1629,A,1127106906355165,0.3630829,12.701996,-3.7883606,-0.49583435,-1.6702423,0.20214844
1629,A,1127106956709169,-0.71617126,7.618042,-2.644989,-0.46507263,-1.9764404,0.12394714
1629,A,1127107007063173,-4.506317,10.327164,-2.23703,-0.43470764,-1.3820953,0.37016296
1629,A,1127107057417177,-0.7652283,9.85347,-2.9366608,-0.5858002,-0.6999512,0.7292938
1629,A,1127107107771181,0.14151001,8.337784,-1.7076569,-0.6486664,-0.22605896,0.81207275
1629,A,1127107158125185,-2.2452698,8.523865,-0.5098877,-0.4837494,-0.08378601,0.5265198
1629,A,1127107208479189,-3.718048,7.8912354,-1.8507233,-0.3683319,-0.26159668,0.08811951
1629,A,1127107258833193,-4.1992188,7.5728607,-2.822235,-0.09667969,0.07090759,-0.3551941
1629,A,1127107309187197,-4.128128,8.271484,-2.5670319,0.7160492,0.70991516,-0.696167
1629,A,1127107359541200,-3.9902802,10.412491,-3.045166,1.6882629,0.021438599,-0.8029938
1629,A,1127107409895204,-3.1365356,12.455292,-2.2896576,1.8105469,-0.34420776,-0.82855225
1629,A,1127107460249208,-2.665802,12.834015,1.6147308,1.4962616,1.2323151,-0.42404175
1629,A,1127107510603212,-0.39282227,11.507095,2.711258,1.0839691,1.5801239,-0.38735962
1629,A,1127107560957216,0.8509674,12.84346,-0.7462921,0.9204254,1.2193298,-0.13180542
1629,A,1127107611311220,-3.6397705,11.610733,-0.9793396,0.26750183,0.5641937,0.2940216
1629,A,1127107661665224,-5.2074127,7.738739,-1.5275879,-0.334198,0.36018372,0.2189331
1629,A,1127107712019228,-1.4626617,7.0957184,-3.0348358,-0.14422607,0.3843689,-0.12037659
1629,A,1127107762373232,-1.6760864,5.9329224,-3.9853363,-0.108291626,0.50523376,-0.6419983
1629,A,1127107812727236,-1.6267853,3.539566,-4.9602966,-0.8177643,0.6378174,-0.062316895
1629,A,1127107863081239,-1.8305054,5.2055054,-4.983032,-0.13298035,0.47036743,0.26171875
1629,A,1127107913435243,-2.6116943,8.218689,-5.6764526,-0.15995789,-1.5229645,0.27052307
1629,A,1127107963789247,-4.5352783,9.032257,-7.7532806,-0.408432,-1.079071,0.30444336
1629,A,1127108014143251,-2.158554,5.981064,-8.054718,-1.0476379,-0.46875,0.38841248
1629,A,1127108064497255,-3.8597717,16.63591,-8.107162,-0.62667847,-1.2395782,-0.13096619
1629,A,1127108114851259,-0.13420105,9.296616,-2.5805054,-0.46542358,-1.793045,0.35995483
1629,A,1127108165205263,-5.413391,4.6496735,-0.6466675,-0.5934143,-1.5685272,0.033065796
1629,A,1127108215559267,0.15089417,13.239899,-1.6967163,-0.70803833,-0.6726074,0.27323914
1629,A,1127108265913271,0.727005,7.6501465,-1.6503296,-0.78222656,-0.47850037,0.73757935
1629,A,1127108316267275,-1.5771332,10.114319,-1.0956879,-0.5690918,-0.3488922,0.7378845
1629,A,1127108366621279,-2.5842743,7.8690186,-0.66212463,-0.33117676,-0.47128296,0.33189392
1629,A,1127108416975282,-3.5796509,8.625839,-2.1149597,-0.27915955,-0.80900574,0.05970764
1629,A,1127108467329286,-3.3465881,8.291168,-2.1711884,-0.12800598,-0.32678223,-0.3037567
1629,A,1127108517683290,-3.0329285,8.273346,-1.8749695,0.6497803,0.3683777,-0.6141815
1629,A,1127108568037294,-3.5670319,10.813461,-3.164566,1.7523956,0.2781067,-0.7535248
1629,A,1127108618391298,-4.1116333,12.128204,-0.9638672,1.5536194,-0.015960693,-0.6611023
1629,A,1127108668745302,-3.3393555,13.075104,2.0730133,1.4201813,1.187027,-0.272583
1629,A,1127108719099306,-1.8973541,11.219818,3.0110626,1.1125336,1.0552826,-0.2965088
1629,A,1127108769453310,0.17076111,12.813568,-2.4127502,0.8815155,1.0702515,-0.14328003
1629,A,1127108819807314,-3.491043,10.40741,-1.0489349,0.32096863,0.5742035,0.2886505
1629,A,1127108870161318,-4.5097656,8.458237,-1.3506622,-0.7046509,0.3778839,0.27430725
1629,A,1127108920515322,-0.6315918,8.315277,-3.2936401,-0.20529175,0.35357666,0.051239014
1629,A,1127108970869325,-2.1404266,5.057953,-4.03537,0.090026855,0.44950867,-0.51945496
1629,A,1127109021223329,-2.0273438,4.0918884,-4.5174713,-0.64385986,0.40164185,0.14848328
1629,A,1127109071577333,-1.8261108,5.1292114,-4.7300262,-0.021453857,0.7998047,-0.016616821
1629,A,1127109121931337,-1.6668396,8.572174,-4.9341736,-0.54629517,-0.9503174,0.5807953
1629,A,1127109172285341,-4.0855255,10.719055,-6.7863007,0.22532654,-0.82666016,-0.17929077
1629,A,1127109222639345,-2.580368,4.2078247,-8.405228,-1.392868,-0.14614868,0.9508667
1629,A,1127109272993349,-3.9374847,16.328766,-5.923279,-0.47251892,-0.9748688,-0.31602478
1629,A,1127109323347353,1.3983765,11.900604,-5.3721924,-0.4781952,-1.5178375,0.29608154
1629,A,1127109373701357,-4.2247314,3.3242645,-1.4212189,-0.5640106,-1.5864716,0.06352234
1629,A,1127109424055361,-3.2554321,15.66571,-1.3289948,-0.8537445,-0.82328796,0.48106384
1629,A,1127109474409364,2.5001678,6.823639,-2.7975922,-0.7886658,-0.52337646,0.7266388
1629,A,1127109524763368,-1.1017151,9.175217,-1.29776,-0.49809265,-0.37728882,0.83735657
1629,A,1127109575117372,-2.3071747,7.596985,-1.0425415,-0.34101868,-0.21125793,0.24615479
1629,A,1127109625471376,-3.7917023,7.8621063,-2.0775146,-0.35968018,0.1366272,0.024307251
1629,A,1127109675825380,-2.7865295,8.515198,-1.9614258,-0.05470276,0.19218445,-0.54486084
1629,A,1127109726179384,-3.1270905,8.524506,-2.1647034,1.0303955,0.8648834,-0.7763977
1629,A,1127109776533388,-4.9518585,10.268784,-1.2109528,1.7408295,-0.055419922,-0.8851471
1629,A,1127109826887392,-2.4317017,12.004272,-1.4343567,1.6426849,-0.65167236,-0.92811584
1629,A,1127109877241396,-3.2989807,12.73259,3.2033844,0.9017334,2.2793121,-0.5086365
1629,A,1127109927595400,0.7684326,11.6210785,3.0102081,0.53378296,2.2182465,-0.28042603
1629,A,1127109977949404,0.7403717,12.661667,-1.7898865,0.1782074,1.5781403,-0.3538971
1629,A,1127110028303407,-6.101898,9.994324,-1.6107788,-0.49952698,0.79597473,0.07218933
1629,A,1127110078657411,-5.4792786,7.5204315,-2.1923523,-0.5819702,0.33676147,0.1407013
1629,A,1127110129011415,-0.3049469,8.313858,-3.776062,-0.08078003,0.15272522,-0.05076599
1629,A,1127110179365419,-1.2171631,5.11026,-3.7118073,0.14715576,0.14385986,-0.082733154
1629,A,1127110229719423,-0.8828888,4.2190704,-4.441574,0.39141846,0.39450073,0.13804626
1629,A,1127110280073427,-1.2828522,6.5948334,-4.1503296,-0.4874115,-0.020935059,0.29455566
1629,A,1127110330427431,-1.5731049,11.611282,-3.3489838,-0.18559265,-0.434906,-0.03289795
1629,A,1127110380781435,-3.2639008,10.2751465,-7.356735,-1.1396942,-0.24272156,0.73213196
1629,A,1127110431135439,-2.5929108,11.475235,-4.4256287,-0.47714233,-0.91825867,-0.0030059814
1629,A,1127110481489443,-0.30299377,11.546143,-3.8107147,-0.48905945,-1.6096191,-0.024368286
1629,A,1127110531843447,-3.0374756,5.8719177,-0.8484955,-0.599823,-1.273056,0.099227905
1629,A,1127110582197450,-3.0256042,12.212219,-1.3717041,-0.7127991,-0.7080536,0.49172974
1629,A,1127110632551454,2.4309845,8.22345,-2.681076,-0.77030945,-0.23440552,0.6528015
1629,A,1127110682905458,-1.7927094,8.591339,-1.355072,-0.6128845,-0.035446167,0.68037415
1629,A,1127110733259462,-3.162033,8.799423,-1.3040771,-0.46400452,0.023529053,0.32240295
1629,A,1127110783613466,-3.9653015,8.468201,-2.690628,-0.48677063,0.23266602,-0.08151245
1629,A,1127110833967470,-3.4437408,7.5387115,-2.4293518,-0.2353363,0.49803162,-0.41542053
1629,A,1127110884321474,-3.2286377,8.129471,-1.7365723,0.8139343,0.78845215,-0.61543274
1629,A,1127110934675478,-3.9613037,10.430435,-1.8548431,1.7052612,0.028778076,-0.81378174
1629,A,1127110985029482,-2.9861755,11.740173,-1.0850067,1.6598511,-0.6852875,-0.7294769
1629,A,1127111035383486,-2.6801605,13.003265,1.8869019,1.1607971,1.0794067,-0.43392944
1629,A,1127111085737489,0.78715515,11.887192,1.5732727,0.7206116,1.6995544,-0.31791687
1629,A,1127111136091493,1.6924896,10.490738,-1.7782288,0.28541565,1.3329315,-0.29570007
1629,A,1127111186445497,-3.8170319,11.020035,-1.6338348,-0.1856842,0.57691956,-0.07003784
1629,A,1127111236799501,-5.655319,9.432724,-2.3868256,-0.5292206,0.06715393,0.18840027
1629,A,1127111287153505,-1.0157776,7.8015137,-3.726654,-0.16795349,0.0725708,0.12271118
1629,A,1127111337507509,-1.0817719,6.6075134,-4.3879547,0.1900177,0.36921692,-0.10861206
1629,A,1127111387861513,-1.1747894,4.630829,-4.819916,0.29000854,0.89151,-0.14622498
1629,A,1127111438215517,-1.0970306,5.1331635,-4.213333,0.113220215,0.6815491,-0.11430359
1629,A,1127111488569521,-2.6716614,11.382278,-5.0871887,-0.2704773,0.17582703,0.030288696
1629,A,1127111538923525,-4.119293,11.40123,-7.834671,-0.6818695,-0.25341797,0.28157043
1629,A,1127111589277529,-2.566864,7.2543945,-5.911865,-0.71591187,-1.6665955,0.11932373
1629,A,1127111639631532,-0.8928375,11.126846,-2.8348541,-0.5814667,-2.2512054,0.059524536
1629,A,1127111689985536,-0.7811737,5.4127502,-1.5227051,-0.5057831,-2.1483154,0.3333435
1629,A,1127111740339540,-0.43785095,8.811966,-1.567688,-0.47372437,-1.6761627,0.3773346
1629,A,1127111790693544,0.5046692,10.773148,-0.7876587,-0.64360046,-0.78149414,0.60191345
1629,A,1127111841047548,-1.4859009,7.8658447,-0.15390015,-0.60398865,-0.3007202,0.8158264
1629,A,1127111891401552,-3.116333,10.021942,-0.4353943,-0.41490173,-0.15829468,0.58872986
1629,A,1127111941755556,-4.222275,8.716263,-1.2930603,-0.3227539,-0.1347351,0.27619934
1629,A,1127111992109560,-4.238022,7.773178,-1.7932281,-0.37374878,-0.1565094,0.14320374
1629,A,1127112042463564,-3.0599365,8.451981,-2.2776184,-0.21965027,-0.024215698,-0.09857178
1629,A,1127112092817568,-3.2969666,9.613251,-2.1181946,0.4593811,0.6112976,-0.5614319
1629,A,1127112143171572,-4.107422,9.987335,-2.4938812,1.3972015,0.29574585,-0.845871
1629,A,1127112193525575,-2.960846,10.308716,-2.5522919,1.744751,-0.8854828,-0.9696655
1629,A,1127112243879579,-1.8980713,11.768372,0.84161377,1.3273163,0.43141174,-0.74516296
1629,A,1127112294233583,0.047042847,11.693588,3.0902405,0.7935028,1.9983215,-0.37001038
1629,A,1127112344587587,2.1136932,12.211624,-0.08255005,0.39294434,1.9458466,-0.36602783
1629,A,1127112394941591,-2.0219574,11.43277,-1.7375641,-0.09555054,1.3744965,-0.24339294
1629,A,1127112445295595,-6.206375,9.001541,-1.6969452,-0.6635132,0.72732544,0.019226074
1629,A,1127112495649599,-3.2588959,8.36557,-3.5175018,-0.4709015,0.27178955,0.10751343
1629,A,1127112546003603,-1.1461182,7.4422607,-4.1110687,-0.12858582,0.0413208,-0.1894226
1629,A,1127112596357607,-1.0430756,4.771408,-4.2982025,0.54478455,0.6121826,-0.13520813
1629,A,1127112646711611,-0.93974304,4.4177246,-4.3503113,-0.15246582,0.52368164,0.26626587
1629,A,1127112697065614,-1.5883026,9.4427185,-2.3608704,-0.18379211,-0.33891296,0.014007568
1629,A,1127112747419618,-3.020172,12.542206,-5.0506897,-0.69773865,-0.5615387,0.6591034
1629,A,1127112797773622,-3.4738922,11.585251,-5.0912933,-0.67918396,-0.91867065,0.30195618
1629,A,1127112848127626,-0.82466125,11.50708,-4.1227875,-0.39286804,-1.8005219,-0.028823853
1629,A,1127112898481630,-0.73635864,6.7718964,-1.8763428,-0.577301,-1.8869934,0.08416748
1629,A,1127112948835634,-3.3771973,11.242798,-1.2729797,-0.87246704,-1.1905518,0.5170288
1629,A,1127112999194288,0.5939026,10.410004,-2.2041016,-0.8482971,-0.74671936,0.6851196
1629,A,1127113049548292,0.46348572,7.7136993,-1.9029083,-0.5461273,-0.46154785,0.73220825
1629,A,1127113099902296,-2.629425,8.353439,-0.85546875,-0.3079834,-0.20097351,0.43110657
1629,A,1127113150256300,-3.4248962,9.03894,-1.3365631,-0.29782104,0.18063354,0.23826599
1629,A,1127113200610304,-2.7553253,8.636871,-1.7315063,-0.3079071,-0.27764893,0.004760742
1629,A,1127113250964307,-3.405365,8.450943,-1.3170929,0.24121094,-0.099975586,-0.30262756
1629,A,1127113301318311,-4.338974,10.172882,-1.3285675,1.2290955,0.62384033,-0.85362244
1629,A,1127113351672315,-3.0982666,10.053558,-2.4713135,1.851471,-0.81059265,-0.97317505
1629,A,1127113402026319,-1.804596,11.081451,-1.2983398,1.3777008,0.12904358,-1.1881104
1629,A,1127113452380323,-2.0065613,12.335602,3.1802216,0.81134033,2.3011932,-0.46636963
1629,A,1127113502734327,0.34449768,10.873383,1.713974,0.3325348,2.4748688,-0.47138977
1629,A,1127113553088331,0.98861694,12.183731,-2.2289429,0.027191162,1.8851776,-0.42289734
1629,A,1127113603442335,-8.409317,10.658829,-1.8595123,-0.74086,1.1586914,-0.10722351
1629,A,1127113653796339,-3.7327576,8.739761,-2.5207977,-0.64305115,0.5076599,0.08665466
1629,A,1127113704150343,-1.9289246,8.012787,-3.288269,0.06188965,-0.09335327,-0.10472107
1629,A,1127113754504347,-1.5090942,5.3041534,-3.5831451,0.11709595,0.02758789,-0.18299866
1629,A,1127113804858350,-1.0218353,4.635849,-4.233795,0.45851135,0.17514038,0.022232056
1629,A,1127113855212354,-0.7170868,6.5398407,-3.4040527,-0.29756165,-0.42478943,0.24591064
1629,A,1127113905566358,-1.4292908,15.706909,-4.6004333,-0.011108398,-0.5001831,-0.07707214
1629,A,1127113955920362,-4.005951,5.751404,-6.7827606,-1.2036743,-0.46092224,0.80441284
1629,A,1127114006274366,-3.7054138,12.066284,-4.5949554,-0.20883179,-1.7103577,-0.09106445
1629,A,1127114056628370,0.92178345,10.677292,-3.7590332,-0.66226196,-1.9845428,-0.1469574
1629,A,1127114106982374,-2.4421082,4.5539246,-0.8547821,-0.4222412,-1.8152466,0.13394165
1629,A,1127114157336378,-1.006607,14.764755,-0.16433716,-0.6510925,-1.0819244,0.5028229
1629,A,1127114207690382,2.129486,7.452484,-1.9694366,-0.63568115,-0.42382813,0.7601013
1629,A,1127114258044386,-2.3214264,9.717697,-0.04484558,-0.6026764,0.051361084,0.7948761
1629,A,1127114308398389,-3.2323608,7.342102,-1.3321075,-0.399765,0.041671753,0.27931213
1629,A,1127114358752393,-4.1571198,8.093521,-2.6819,-0.5298004,-0.03302002,0.1665802
1629,A,1127114409106397,-4.0090485,8.026566,-3.2389374,-0.292984,-0.16178894,-0.2856903
1629,A,1127114459460401,-3.3522797,9.441101,-2.2190552,0.9483795,0.5413513,-0.65356445
1629,A,1127114509814405,-3.454239,10.252914,-2.7892761,1.9252625,-0.1519165,-0.6882324
1629,A,1127114560168409,-3.355957,10.987625,-2.8949585,1.8714294,-1.2102814,-0.8637848
1629,A,1127114610522413,-3.0443115,13.286819,2.8561707,1.2324982,1.7005463,-0.5502167
1629,A,1127114660876417,0.64279175,11.276398,3.2917175,0.7056122,1.7666473,-0.0929718
1629,A,1127114711230421,2.1598206,11.635666,-2.1012878,0.3387909,1.5371399,-0.24072266
1629,A,1127114761584425,-5.3705597,10.771164,-1.5098114,-0.32339478,0.8512268,0.12145996
1629,A,1127114811938429,-7.0503845,7.527664,-1.992157,-0.470047,0.33502197,0.12826538
1629,A,1127114862292432,-1.3105621,7.9309998,-3.5413055,5.0354004E-4,0.26513672,-0.099594116
1629,A,1127114912646436,-1.5172272,5.872467,-4.115082,-0.051467896,0.12207031,-0.11012268
1629,A,1127114963000440,-0.83618164,4.5317383,-4.903534,0.5718994,0.8577423,0.30781555
1629,A,1127115013354444,-0.76242065,5.5373993,-4.6456604,-0.46243286,-0.106933594,0.49980164
1629,A,1127115063708448,-1.9817352,12.190308,-1.5727692,0.12017822,-0.82437134,-0.21940613
1629,A,1127115114062452,-3.5236664,10.615677,-7.5397186,-0.9288788,-0.064071655,0.5440979
1629,A,1127115164416456,-2.255722,10.330444,-4.84404,-0.6918793,-0.49110413,-0.019104004
1629,A,1127115214770460,0.026626587,13.051697,-4.28656,-0.3090973,-1.7428894,-0.007507324
1629,A,1127115265124464,-2.344757,5.304062,-0.65382385,-0.67755127,-1.430191,0.06791687
1629,A,1127115315478468,-4.351944,11.674179,-1.4621277,-0.7660675,-0.9182434,0.4134674
1629,A,1127115365832472,2.6367493,9.194611,-2.8107452,-0.86972046,-0.4907074,0.6065216
1629,A,1127115416186475,-0.89741516,8.269119,-1.730484,-0.7238922,-0.26086426,0.7842865
1629,A,1127115466540479,-2.8889618,8.564102,-0.79811096,-0.5144806,-0.12773132,0.460083
1629,A,1127115516894483,-3.600357,8.391022,-2.4144287,-0.39552307,0.10293579,0.030303955
1629,A,1127115567248487,-3.1975708,7.8015747,-2.4844513,-0.3371277,-0.24853516,-0.28163147
1629,A,1127115617602491,-3.173706,8.281906,-1.791565,0.41064453,0.39030457,-0.4758606
1629,A,1127115667956495,-4.267029,10.94104,-0.7566986,1.324585,0.917572,-0.84609985
1629,A,1127115718310499,-2.5016937,10.672073,-2.3166351,1.7458038,-0.5940399,-0.85609436
1629,A,1127115768664503,-3.7043762,11.50061,0.4915619,1.3341064,0.43510437,-0.8367462
1629,A,1127115819018507,-2.2881012,12.313477,2.663742,0.79862976,2.1696014,-0.26701355
1629,A,1127115869372511,1.1364441,10.446106,0.049591064,0.352417,1.7758789,-0.34046936
1629,A,1127115919726514,-0.2619171,12.84314,-2.3498383,-0.04374695,1.3683472,-0.20820618
1629,A,1127115970080518,-7.3756104,10.415344,-1.4091644,-0.6463318,0.6904297,0.056930542
1629,A,1127116020434522,-2.4047852,7.7772827,-2.5927887,-0.49006653,0.2644806,8.544922E-4
1629,A,1127116070788526,-0.92471313,7.1230164,-3.4483185,0.122543335,0.026489258,-0.21617126
1629,A,1127116121142530,-1.8471222,4.711563,-3.8061981,0.35639954,0.2523651,-0.13948059
1629,A,1127116171496534,-0.8014221,4.67807,-4.35376,0.22120667,0.54611206,0.27708435
1629,A,1127116221850538,-1.1022644,8.474518,-3.5904083,-0.47491455,-0.50038147,0.16070557
1629,A,1127116272204542,-2.4978485,13.999405,-4.719162,-0.1267395,-0.72761536,0.11177063
1629,A,1127116322558546,-3.4577484,7.628525,-6.3526306,-0.77793884,-0.5827484,0.47068787
1629,A,1127116372912550,-1.8336029,11.1528015,-4.4011993,-0.49591064,-1.1318512,-0.046188354
1629,A,1127116423266554,0.62164307,10.007675,-3.4717407,-0.45181274,-1.6515656,0.17251587
1629,A,1127116473620557,-3.2995605,7.706238,-1.0171051,-0.5158844,-1.3584137,0.47102356
1629,A,1127116523974561,-1.5888824,11.985062,-2.060608,-0.7435303,-0.7186279,0.48332214
1629,A,1127116574328565,0.99806213,8.26181,-2.4881287,-0.8409729,-0.34718323,0.6182556
1629,A,1127116624682569,0.19761658,9.717178,-1.0179291,-0.6788788,-0.14221191,0.73349
1629,A,1127116675036573,1.7497711,10.523087,-1.3912811,-0.51664734,0.037094116,0.4006195
1629,A,1127116725390577,-3.3832703,8.057495,-2.758316,-0.4541626,0.036895752,-0.07879639
1629,A,1127116775744581,-3.3663483,7.5195007,-2.1377563,-0.19023132,0.046463013,-0.4005432
1629,A,1127116826098585,-3.5464325,8.984161,-1.0391083,0.71269226,0.5756836,-0.598526
1629,A,1127116876452589,-3.2578278,10.882935,-1.4295197,1.5498657,0.1452179,-0.8148346
1629,A,1127116926806593,-2.911728,11.282852,-1.6235199,1.677002,-0.5702362,-0.79548645
1629,A,1127116977160597,-3.1723328,12.325958,1.168396,1.3215027,0.8067627,-0.55718994
1629,A,1127117027514600,-0.4005127,11.688751,1.8336792,0.8500366,1.6197815,-0.3592224
1629,A,1127117077868604,1.5663605,11.017075,-0.67300415,0.34002686,1.3233337,-0.31051636
1629,A,1127117128222608,-3.0377197,11.557129,-1.6946564,-0.21495056,0.90115356,-0.013748169
1629,A,1127117178576612,-5.397278,9.575546,-2.0975037,-0.6433258,0.4350891,0.17442322
1629,A,1127117228930616,-1.6847534,7.758545,-3.31839,-0.19544983,0.14619446,0.055740356
1629,A,1127117279284620,-1.8502502,5.836563,-3.7329254,0.24980164,0.12133789,-0.17819214
1629,A,1127117329638624,-1.9453125,4.110916,-4.267578,0.42401123,0.4940338,-0.16386414
1629,A,1127117379992628,-1.0996246,4.837204,-4.16304,-0.030090332,0.15298462,0.07765198
1629,A,1127117430346632,-1.1960144,12.394562,-4.475647,-0.37210083,-0.32261658,0.12220764
1629,A,1127117480700636,-2.6522064,11.950745,-6.3327484,-0.73869324,-0.30830383,0.3860016
1629,A,1127117531054639,-3.1184235,7.941635,-5.778961,-0.76078796,-1.0704803,0.25395203
1629,A,1127117581408643,-0.236969,10.773331,-3.9145203,-0.5467682,-1.6983185,-0.11364746
1629,A,1127117631762647,-0.975708,7.1390533,-2.20961,-0.6560669,-1.510376,0.053253174
1629,A,1127117682116651,-1.885788,9.883896,-1.0968018,-0.7162781,-0.9871063,0.4240265
1629,A,1127117732470655,0.79167175,10.206772,-1.7401886,-0.76805115,-0.47268677,0.7368927
1629,A,1127117782824659,-0.89797974,8.303574,-1.2294617,-0.66999817,-0.18913269,0.77542114
1629,A,1127117833178663,-2.9691772,8.216995,-1.1729126,-0.5391083,0.13604736,0.40231323
1629,A,1127117883532667,-3.3964386,7.9153137,-2.1339264,-0.43099976,-0.124679565,0.09089661
1629,A,1127117933886671,-3.5773468,8.486557,-2.5671082,-0.22851563,-0.2942505,-0.16195679
1629,A,1127117984240675,-3.6767426,8.873352,-1.7919922,0.54844666,0.5259857,-0.5588074
1629,A,1127118034594679,-3.3572388,10.0401,-2.2905884,1.4427338,0.27308655,-0.66249084
1629,A,1127118084948682,-2.3449554,11.110474,-3.0314941,1.7138977,-0.9676056,-0.7867279
1629,A,1127118135302686,-3.034027,12.61203,0.98742676,1.3012238,0.8538208,-0.6055145
1629,A,1127118185656690,-0.59303284,11.781052,3.4861908,0.7917328,2.026352,-0.2577362
1629,A,1127118236010694,2.4219666,11.986496,-0.008483887,0.3844757,1.6467896,-0.32196045
1629,A,1127118286364698,-2.29068,11.504486,-1.0927582,-0.13536072,0.9998932,-0.15919495
1629,A,1127118336718702,-5.773941,8.910019,-1.0521545,-0.704422,0.4957428,0.040359497
1629,A,1127118387072706,-2.0728607,8.276611,-3.1279755,-0.2945099,0.18693542,0.085372925
1629,A,1127118437426710,-0.8525543,7.2805634,-3.706604,-0.027938843,0.005142212,-0.07196045
1629,A,1127118487780714,-1.2004089,4.821869,-4.0539856,0.70983887,0.4523468,0.07437134
1629,A,1127118538134718,-1.2597046,4.604828,-4.0173187,-0.17372131,0.06878662,0.35327148
1629,A,1127118588488722,-0.8640137,9.736435,-3.0487976,-0.0789032,-0.70965576,-0.10211182
1629,A,1127118638842725,-2.0397797,13.703537,-5.8322296,-0.63864136,-0.4679718,0.69873047
1629,A,1127118689196729,-3.7002563,11.781387,-4.92894,-0.49697876,-0.76483154,0.2518158
1629,A,1127118739550733,-0.935379,10.636108,-4.4249725,-0.32348633,-1.7033081,0.016540527
1629,A,1127118789904737,-1.526474,5.6903076,-1.5541992,-0.40229797,-1.7314453,0.08778381
1629,A,1127118840258741,-4.17395,12.243454,-1.0922546,-0.7325134,-1.0183563,0.14918518
1629,A,1127118890612745,1.5407867,9.7369995,-2.8316498,-0.758728,-0.61235046,0.4807129
1629,A,1127118940966749,-0.27874756,8.399994,-1.7701721,-0.7030182,-0.2637329,0.8705902
1629,A,1127118991320753,-5.3611145,7.906418,-0.90719604,-0.5423889,-0.18328857,0.7559662
1629,A,1127119041674757,-5.8762054,7.954254,-0.6378479,-0.3713684,-0.014602661,0.25335693
1629,A,1127119092028761,-3.8683777,7.508423,-2.246109,-0.30804443,-0.20706177,-0.24691772
1629,A,1127119142382764,-3.5486298,7.588043,-1.5542145,0.17456055,0.10939026,-0.4108734
1629,A,1127119192736768,-3.080536,10.131241,-1.0589294,1.0639343,0.7310791,-0.76023865
1629,A,1127119243090772,-2.9305878,10.58432,-2.6485748,1.7044678,-1.0215454,-0.88165283
1629,A,1127119293444776,-3.2207336,10.911118,-0.8442688,1.3429413,-0.5949249,-0.95240784
1629,A,1127119343798780,-2.5140839,11.913483,2.3480682,0.93444824,1.9974365,-0.5124359
1629,A,1127119394152784,2.0363312,10.021057,0.8914337,0.43722534,2.187622,-0.39064026
1629,A,1127119444506788,1.8305969,12.152756,-2.3339996,0.20205688,1.685669,-0.4599762
1629,A,1127119494860792,-8.51329,10.478195,-1.8960876,-0.35783386,0.8488159,-0.015365601
1629,A,1127119545214796,-4.4613953,8.125397,-2.493454,-0.73905945,0.26034546,0.22235107
1629,A,1127119595568800,-1.1665039,8.279739,-3.797882,-0.16407776,-0.049224854,0.038848877
1629,A,1127119645922804,-1.0245514,6.347046,-3.979126,0.1162262,-0.04508972,-0.32061768
1629,A,1127119696276807,-0.7766571,4.291626,-4.6526184,0.5760193,0.9665985,0.15284729
1629,A,1127119746630811,-1.373642,5.3191833,-4.12764,-0.36157227,0.28601074,0.1680603
1629,A,1127119796984815,-0.13139343,14.1293335,-2.7114563,0.054901123,-0.72073364,-0.2407074
1629,A,1127119847338819,-3.1920166,11.277893,-6.245468,-0.6728821,-0.270813,0.7815857
1629,A,1127119897692823,-4.132126,9.755432,-5.5911407,-0.6116791,-0.22833252,0.13298035
1629,A,1127119948046827,-0.10122681,15.03772,-5.2786865,-0.2987976,-1.5749817,-0.03955078
1629,A,1127119998400831,-1.280838,5.395935,-0.47213745,-0.5895233,-1.598053,-0.008407593
1629,A,1127120048754835,-4.7125854,11.0295105,-1.0676727,-0.6516571,-1.2133026,0.34803772
1629,A,1127120099108839,2.3676147,9.508484,-2.559311,-0.84750366,-0.6587219,0.4894867
1629,A,1127120149462843,0.0922699,7.8723755,-2.4954834,-0.75346375,-0.39115906,0.80744934
1629,A,1127120199816847,-2.670929,9.758926,-0.91838074,-0.6443939,-0.10585022,0.61154175
1629,A,1127120250170850,-3.847046,8.556107,-2.1681366,-0.475708,0.43327332,0.10888672
1629,A,1127120300524854,-3.532959,7.2818146,-2.3350067,-0.48612976,-0.27017212,-0.09751892
1629,A,1127120350878858,-3.4322357,7.9023895,-1.916214,-0.05430603,-0.06750488,-0.26657104
1629,A,1127120401232862,-4.5446014,10.534164,-0.1683197,0.9487915,0.6324768,-0.6845856
1629,A,1127120451586866,-2.9285889,10.998077,-3.3041382,1.8041077,-0.42044067,-0.6897125
1629,A,1127120501940870,-1.9749756,11.076157,-2.108368,1.6701355,-1.164566,-0.8675232
1629,A,1127120552294874,-2.5290222,13.038239,3.2772522,1.2705536,1.452179,-0.4844818
1629,A,1127120602648878,1.4829102,10.436417,3.2311096,0.7373657,1.3445129,-0.19100952
1629,A,1127120653002882,2.6609955,11.869827,-2.1853485,0.38409424,1.1517639,-0.20230103
1629,A,1127120703356886,-4.621872,10.7248535,-1.103363,-0.16304016,0.6159973,0.16848755
1629,A,1127120753710889,-5.461838,9.387833,-2.0662994,-0.63383484,0.21020508,0.17738342
1629,A,1127120804064893,-1.1268158,7.4692993,-3.4449768,-0.028656006,0.08708191,0.11930847
1629,A,1127120854418897,-1.8797913,5.991989,-3.859787,0.009887695,0.09341431,-0.09111023
1629,A,1127120904772901,-1.730835,4.3372345,-4.6756744,0.59106445,0.87713623,0.22619629
1629,A,1127120955126905,-1.4096222,5.033081,-4.0014343,-0.14187622,0.33953857,0.2766571
1629,A,1127121005480909,-1.2506256,11.718872,-2.347519,-0.05569458,-0.74472046,-0.0692749
1629,A,1127121055834913,-3.1623688,13.885269,-7.7835083,-0.67362976,-0.07902527,0.50120544
1629,A,1127121106188917,-3.32695,7.936081,-5.0375977,-0.9454498,-0.4257202,0.19551086
1629,A,1127121156542921,-1.2748871,15.8199005,-4.8067017,-0.25143433,-1.7318878,-0.121017456
1629,A,1127121206896925,-1.5830688,6.916809,-1.4415283,-0.59902954,-1.5867615,0.0084991455
1629,A,1127121257250929,-3.6085968,7.1052094,-0.60739136,-0.731781,-1.0078888,0.31051636
1629,A,1127121307604932,1.4928131,11.059814,-2.1489563,-0.8683014,-0.50671387,0.42518616
1629,A,1127121357958936,-0.6092224,8.20488,-1.5835266,-0.80636597,-0.3216858,0.6845093
1629,A,1127121408312940,-3.2004547,9.132095,-0.49171448,-0.54548645,-0.26615906,0.6297302
1629,A,1127121458666944,-3.1304016,7.9725494,-1.7792206,-0.2998352,-0.21684265,0.17228699
1629,A,1127121509020948,-2.572815,8.708038,-2.4988403,-0.28292847,-0.38557434,0.116485596
1629,A,1127121559374952,-2.7123718,8.473404,-2.1581726,-0.09249878,-0.2654724,-0.19236755
1629,A,1127121609728956,-3.0304718,9.646927,-1.46698,0.6471863,0.52142334,-0.5547333
1629,A,1127121660082960,-3.364624,10.531921,-2.4748383,1.5353851,0.55677795,-0.7968445
1629,A,1127121710436964,-3.2150726,10.307175,-1.8533783,1.6751709,-0.32795715,-0.8193207
1629,A,1127121760790968,-2.931427,11.676834,1.193039,1.228775,0.9748535,-0.7284088
1629,A,1127121811144972,-1.0988464,11.590317,2.6241913,0.8301239,1.7652893,-0.43070984
1629,A,1127121861498975,0.8228302,10.386902,-0.5039215,0.47816467,1.4543304,-0.43598938
1629,A,1127121911852979,-2.229477,11.445633,-1.9697418,0.028427124,1.005539,-0.033203125
1629,A,1127121962206983,-5.7372894,10.129562,-2.0122223,-0.4993744,0.48828125,0.13615417
1629,A,1127122012560987,-1.7725983,8.836578,-3.412796,-0.40924072,0.09448242,0.118515015
1629,A,1127122062914991,-1.471817,7.04895,-3.746231,0.07965088,-0.06845093,-0.11515808
1629,A,1127122113268995,-1.4114227,5.0155487,-4.0488434,0.30288696,0.27171326,-0.07749939
1629,A,1127122163622999,-1.1903229,4.9410553,-4.3886414,0.04270935,0.6504669,0.23092651
1629,A,1127122213977003,-1.2993774,8.957001,-4.0143585,-0.30412292,-0.21751404,0.038864136
1629,A,1127122264331007,-1.9532928,12.0316925,-5.0912323,-0.16775513,-0.58058167,0.14907837
1629,A,1127122314685011,-3.8026428,7.818634,-6.6929474,-0.7540436,-0.24583435,0.45246887
1629,A,1127122365039014,-2.4786377,11.706802,-4.874832,-0.5792389,-0.82540894,-0.033340454
1629,A,1127122415393018,-0.14535522,10.970535,-3.1247406,-0.44155884,-1.5979614,-0.021484375
1629,A,1127122465747022,-3.0648499,7.573578,-0.6298065,-0.61183167,-1.3165741,0.1506195
1629,A,1127122516101026,-1.8077545,10.495819,-1.5623016,-0.736496,-0.7640991,0.32121277
1629,A,1127122566455030,1.3146515,8.8824005,-2.3203583,-0.86824036,-0.31103516,0.5344391
1629,A,1127122616809034,-1.5130615,8.533691,-1.315979,-0.8218994,-0.10984802,0.761673
1629,A,1127122667163038,-2.9845428,9.032852,-1.2940979,-0.6175232,0.057144165,0.47520447
1629,A,1127122717517042,-3.3462982,8.177521,-2.3221588,-0.44104004,-0.09640503,0.06752014
1629,A,1127122767871046,-3.1850433,7.7758484,-2.6289368,-0.27241516,-0.3393402,-0.12336731
1629,A,1127122818225050,-3.1897278,8.70752,-1.85112,0.31947327,0.07157898,-0.3892975
1629,A,1127122868579054,-2.6833801,10.040817,-1.6273193,1.2609253,0.3584137,-0.60061646
1629,A,1127122918933057,-2.1534882,10.970642,-2.5318146,1.7520294,-0.32307434,-0.7733002
1629,A,1127122969287061,-2.4742126,12.104584,-0.2295227,1.5446625,0.12612915,-0.6936493
1629,A,1127123019657005,-1.4536438,11.721222,2.8129425,1.080719,1.2686615,-0.35498047
1629,A,1127123070011009,1.079483,11.0251465,0.08528137,0.6182251,1.4236145,-0.25151062
1629,A,1127123120365013,-0.5469055,11.362122,-2.2154846,0.13774109,1.1439514,-0.13630676
1629,A,1127123170719017,-4.8030396,10.410599,-1.7041016,-0.44934082,0.57829285,0.06790161
1629,A,1127123221073021,-3.7520142,8.77771,-2.6864624,-0.3017578,0.14550781,0.081207275
1629,A,1127123271427025,-1.3662109,7.672043,-3.4191437,-0.012191772,0.25357056,0.054656982
1629,A,1127123321781029,-1.595932,5.264496,-3.8552246,0.6816864,0.5965729,0.042556763
1629,A,1127123372135033,-1.2506714,4.2353973,-4.083954,0.19622803,0.3047638,0.24453735
1629,A,1127123422489037,-0.8233032,7.670929,-3.3194733,-0.3462677,-0.33683777,-0.032836914
1629,A,1127123472843040,-1.9235992,13.710403,-5.621002,-0.69203186,-0.24180603,0.27552795
1629,A,1127123523197044,-3.7153473,12.840759,-6.1818695,-0.7672882,-0.20539856,0.24311829
1629,A,1127123573551048,-1.7606812,9.200943,-5.222061,-0.5209198,-0.9127197,-0.002609253
1629,A,1127123623905052,-1.2202454,6.682617,-2.6186981,-0.5908966,-1.2522736,4.7302246E-4
1629,A,1127123674259056,-2.995697,10.657303,-0.9347687,-0.7068939,-0.85112,0.24539185
1629,A,1127123724613060,-0.6982727,10.33757,-1.8520203,-0.7910156,-0.50639343,0.47125244
1629,A,1127123774967064,-0.14978027,8.185181,-2.0397034,-0.7783356,-0.30145264,0.6980896
1629,A,1127123825321068,-1.8099213,8.745712,-0.99780273,-0.7661438,-0.15283203,0.7307129
1629,A,1127123875675072,-3.114334,8.852951,-1.5791473,-0.65797424,0.32661438,0.28944397
1629,A,1127123926029076,-2.9863586,8.233749,-2.4998322,-0.52674866,-0.17321777,-0.11679077
1629,A,1127123976383079,-3.0210266,7.657181,-2.5883636,-0.100357056,-0.14579773,-0.352417
1629,A,1127124026737083,-3.2410889,8.742294,-1.1167603,0.9026489,0.9034271,-0.7164154
1629,A,1127124077091087,-2.5109863,10.215698,-2.279129,1.6858063,-0.042312622,-0.7628021
1629,A,1127124127445091,-2.062973,11.457367,-2.2079163,1.6940155,-0.5029297,-0.8700104
1629,A,1127124177799095,-3.2792358,13.126846,2.5219727,1.1710358,1.7258606,-0.46440125
1629,A,1127124228153099,-0.004470825,11.485886,2.4485168,0.7312927,1.9656372,-0.3019867
1629,A,1127124278507103,2.2341766,12.342346,-1.485733,0.31321716,1.6027527,-0.2984619
1629,A,1127124328861107,-5.55777,11.268951,-1.2292786,-0.28089905,0.926239,0.0027618408
1629,A,1127124379215111,-4.664261,8.143234,-1.6164398,-0.5372162,0.27174377,0.008728027
1629,A,1127124429569115,-1.0445709,7.2620544,-2.7966309,0.037841797,0.0064697266,-0.07987976
1629,A,1127124479923119,-1.3141022,6.4405518,-3.8104248,-0.07475281,0.048553467,-0.1427002
1629,A,1127124530277122,-1.0776062,4.791336,-4.5733337,0.529068,0.7580719,0.04269409
1629,A,1127124580631126,-0.27952576,5.2424774,-4.8716736,-0.5382385,-0.11061096,0.33396912
1629,A,1127124630985130,-0.12263489,13.080139,-3.7773285,0.30691528,-0.82392883,-0.11190796
1629,A,1127124681339134,-2.8954773,9.017456,-7.669632,-0.6915436,-0.6477356,0.667099
1629,A,1127124731693138,-2.990326,9.79863,-5.274002,-0.61628723,-0.66989136,0.1278534
1629,A,1127124782047142,0.31524658,15.355881,-4.177536,-0.38046265,-1.7493286,0.013961792
1629,A,1127124832401146,-1.4095612,6.2143555,-0.7596283,-0.60816956,-1.6862488,0.026275635
1629,A,1127124882755150,-4.459366,10.98703,-1.4598694,-0.74394226,-1.0330505,0.5216675
1629,A,1127124933109154,2.4197998,9.149307,-3.1340637,-0.8985748,-0.5040283,0.67178345
1629,A,1127124983463158,-0.369339,8.360184,-1.904541,-0.7224426,-0.16571045,0.8467865
1629,A,1127125033817162,-2.6856384,8.619354,-0.77597046,-0.49450684,-0.046325684,0.4647522
1629,A,1127125084171165,-3.491455,8.388672,-2.6120605,-0.36434937,0.014099121,0.1802063
1629,A,1127125134525169,-3.3595734,7.552536,-2.4749146,-0.4568329,-0.27223206,-0.16836548
1629,A,1127125184879173,-3.3733826,7.3947906,-1.4171143,0.24848938,0.2544098,-0.37826538
1629,A,1127125235233177,-3.662201,10.807434,-1.1244202,1.3217926,1.2565155,-0.87631226
1629,A,1127125285587181,-2.314911,10.117432,-2.5019073,1.8635406,-0.8110962,-0.83825684
1629,A,1127125335941185,-3.1708374,11.392685,-0.13154602,1.4519043,0.26942444,-0.99627686
1629,A,1127125386295189,-2.4193726,13.149872,3.6184235,0.9307709,2.272934,-0.2952118
1629,A,1127125436649193,1.263977,10.088989,0.29577637,0.45783997,1.8040924,-0.48750305
1629,A,1127125487003197,1.2178497,12.821274,-2.41185,0.083114624,1.5671082,-0.32881165
1629,A,1127125537357201,-9.212433,10.464218,-1.1649475,-0.73309326,0.8303528,0.04559326
1629,A,1127125587711204,-2.9730225,7.628067,-2.6826324,-0.71435547,0.52752686,3.8146973E-4
1629,A,1127125638065208,-0.23851013,8.763062,-3.8473816,0.094696045,0.23725891,-0.205719
1629,A,1127125688419212,-2.0639954,3.4551544,-3.8163757,-0.09463501,0.28790283,-0.20169067
1629,A,1127125738773216,-1.4573822,4.240799,-4.510498,0.62350464,0.342865,-0.18598938
1629,A,1127125789127220,-1.2772827,6.414795,-3.5588226,-0.52726746,-0.39138794,0.15948486
1629,A,1127125839481224,-2.6830292,17.145355,-4.78508,-0.042099,-0.39512634,-0.003921509
1629,A,1127125889835228,-3.3677673,4.935547,-6.676071,-1.4067993,-0.7095642,0.9332886
1629,A,1127125940189232,-2.9691467,14.416977,-3.4859161,-0.23991394,-1.897522,-0.1809845
1629,A,1127125990543236,1.2535248,8.544113,-2.897171,-0.87490845,-1.9408112,-0.052856445
1629,A,1127126040897240,-2.7941284,5.476364,-1.5090485,-0.4625244,-1.5953674,0.4225464
1629,A,1127126091251244,1.2128754,16.92685,-0.5854645,-0.7483673,-0.8461304,0.7325592
1629,A,1127126141605247,1.859848,6.131775,-1.5722198,-0.6325226,-0.441864,0.87428284
1629,A,1127126191959251,-2.9585876,10.115189,0.13188171,-0.6102905,-0.17388916,0.7200165
1629,A,1127126242313255,-3.060669,7.266922,-1.8850708,-0.47854614,0.024032593,0.20600891
1629,A,1127126292667259,-3.8592072,8.250748,-2.4053192,-0.35824585,-0.13568115,-0.34858704
1629,A,1127126343021263,-3.8484344,8.022354,-2.2327118,0.6160736,0.627655,-0.7824402
1629,A,1127126393375267,-3.5479584,9.75235,-1.7572479,1.7580109,0.56469727,-0.96395874
1629,A,1127126443729271,-3.121048,10.605713,-2.6433105,1.9443817,-1.2277832,-1.0239716
1629,A,1127126494083275,-2.0393066,12.190704,0.9351959,1.2519379,0.7413025,-0.7835846
1629,A,1127126544437279,-1.0423431,13.088196,3.9043427,0.7392731,2.2615967,-0.20906067
1629,A,1127126594791283,1.8747711,12.247406,-1.3912811,0.2394867,1.7334137,-0.29933167
1629,A,1127126645145287,-0.35585022,12.053986,-2.0302734,-0.3695984,1.1951599,-0.13371277
1629,A,1127126695499290,-8.149277,9.755127,-1.9097748,-0.7751007,0.72520447,0.09669495
1629,A,1127126745853294,-1.7360992,7.3432617,-3.3572693,-0.21138,0.4956665,0.0798645
1629,A,1127126796207298,-1.0344849,6.859375,-3.7021942,0.07954407,0.1741333,-3.2043457E-4
1629,A,1127126846561302,-1.4633331,3.5414429,-3.9095917,0.65597534,0.40196228,0.16835022
1629,A,1127126896915306,-0.95303345,5.2453156,-3.262558,0.08882141,-0.1946106,0.34196472
1629,A,1127126947269310,-1.3908234,10.113602,-3.1354675,0.09577942,-0.71502686,-0.010894775
1629,A,1127126997623314,-3.2952576,15.21373,-8.025635,-0.66004944,-0.5531769,0.5743103
1629,A,1127127047977318,-3.2243805,8.64621,-3.9237823,-0.56433105,-1.2993622,0.16642761
1629,A,1127127098331322,-1.2981567,13.855316,-3.5461578,-0.30662537,-2.2483063,-0.034500122
1629,A,1127127148685326,-1.6119537,7.4376984,-0.36444092,-0.59317017,-1.9646606,0.18960571
1629,A,1127127199039329,-2.625122,11.314087,-1.769577,-0.6224823,-1.3109131,0.65763855
1629,A,1127127249393333,2.9896698,10.154343,-2.5835571,-0.7264557,-0.75442505,0.8560486
1629,A,1127127299747337,-1.0047302,8.152267,-1.1618652,-0.6610565,-0.30212402,0.8838501
1629,A,1127127350101341,-3.646576,8.3693695,-1.1106415,-0.52275085,-0.039642334,0.50901794
1629,A,1127127400455345,-4.0873566,7.5323334,-2.7713013,-0.3743286,-0.25810242,0.08570862
1629,A,1127127450809349,-3.6381073,7.4003143,-2.2423248,-0.12080383,-0.21014404,-0.2257843
1629,A,1127127501163353,-3.660675,8.621597,-1.217102,0.8192291,0.6284027,-0.6854553
1629,A,1127127551517357,-2.4962158,11.20993,-2.137741,1.7518616,0.37657166,-0.92100525
1629,A,1127127601871361,-2.1293945,11.152206,-2.4474182,1.795105,-0.18762207,-0.90444946
1629,A,1127127652225365,-1.7410583,12.31366,2.076828,1.0235596,1.552475,-0.6008301
1629,A,1127127702579369,-0.68411255,12.615356,3.78685,0.5347595,2.185196,-0.2691803
1629,A,1127127752933372,0.38752747,12.013687,-0.5566559,0.15383911,1.773529,-0.37049866
1629,A,1127127803287376,-3.5487976,11.239304,-2.026947,-0.5419769,1.3072205,-0.071746826
1629,A,1127127853641380,-6.52594,8.637772,-2.2908325,-0.7660217,0.7945099,-9.613037E-4
1629,A,1127127903995384,-1.8216248,7.399765,-3.54393,-0.23727417,0.36846924,-0.13990784
1629,A,1127127954349388,-1.5265961,6.1102295,-3.7541962,0.16520691,0.24371338,-0.16940308
1629,A,1127128004703392,-1.3716583,3.9973907,-3.9781036,0.42922974,0.3157959,-0.038848877
1629,A,1127128055057396,-0.8181,5.828537,-3.3504791,0.3524933,-0.30038452,-0.0047912598
1629,A,1127128105411400,-2.0242462,11.552048,-4.414566,-0.10206604,-0.55770874,0.095199585
1629,A,1127128155765404,-3.8044739,11.789169,-5.7183228,-0.76361084,-0.30062866,0.44885254
1629,A,1127128206119408,-3.72583,11.818588,-4.8740387,-0.6783142,-1.1611023,0.19999695
1629,A,1127128256473412,-1.8909302,12.594482,-3.1961365,-0.56851196,-1.982254,-0.1890564
1629,A,1127128306827415,-3.393814,4.939102,-0.95988464,-0.74542236,-1.5426025,0.14984131
1629,A,1127128357181419,-1.2646027,9.284622,-1.59906,-0.757843,-0.8231354,0.60717773
1629,A,1127128407535423,2.5701141,9.829819,-1.637558,-0.7417145,-0.27835083,0.729599
1629,A,1127128457889427,-1.6903534,8.041473,-0.3399048,-0.5776062,-0.07054138,0.6748047
1629,A,1127128508243431,-3.8898315,8.623886,-1.1159973,-0.52233887,0.026000977,0.3605652
1629,A,1127128558597435,-3.471222,7.676956,-2.3679962,-0.5558777,-0.050720215,-0.10255432
1629,A,1127128608951439,-3.5679016,7.540512,-1.7166901,-0.004623413,0.11730957,-0.47114563
1629,A,1127128659305443,-3.502472,9.501709,-1.6092987,1.1304016,0.43566895,-0.7891083
1629,A,1127128709659447,-3.0547333,10.366089,-2.4741974,1.9276581,-0.7962494,-0.9551697
1629,A,1127128760013451,-2.459137,11.172943,-0.8384857,1.6899872,-0.4499054,-0.9090576
1629,A,1127128810367454,-1.3463593,12.899887,2.9077606,1.119751,1.3835907,-0.3972473
1629,A,1127128860721458,0.80799866,11.740906,1.8292389,0.57164,1.707016,-0.17399597
1629,A,1127128911075462,1.5271454,11.872192,-1.597229,0.14041138,1.2839508,-0.13076782
1629,A,1127128961429466,-5.7626953,11.264465,-1.9855652,-0.5417175,0.7936859,0.057662964
1629,A,1127129011783470,-5.0000763,8.527283,-2.7263336,-0.46551514,0.52989197,0.12992859
1629,A,1127129062137474,-1.2708282,7.8832855,-3.968811,-0.16506958,0.33666992,0.09925842
1629,A,1127129112491478,-1.6574707,5.0489197,-4.1613464,0.43930054,0.4226532,-0.1156311
1629,A,1127129162845482,-1.3618622,3.9696655,-4.249649,0.47375488,0.49653625,0.24519348
1629,A,1127129213199486,-0.9065094,6.1194916,-2.952057,0.13331604,-0.37600708,-0.020965576
1629,A,1127129263553490,-2.5003052,14.605896,-6.2066803,-0.36990356,-0.24920654,0.2858734
1629,A,1127129313907494,-4.315674,8.639023,-5.395752,-0.8109131,-0.4156189,0.43862915
1629,A,1127129364261497,-3.3919678,13.506348,-5.3632507,-0.36309814,-1.4755402,0.098739624
1629,A,1127129414615501,-0.9785309,9.497345,-2.1032562,-0.5278473,-1.8566742,0.019134521
1629,A,1127129464969505,-4.291626,7.375717,-0.7308655,-0.6307373,-1.320404,0.25541687
1629,A,1127129515323509,0.8610382,11.130463,-2.1267395,-0.7463989,-0.6833191,0.46035767
1629,A,1127129565677513,1.012085,8.847092,-2.154129,-0.6949005,-0.40039063,0.7569885
1629,A,1127129616031517,-2.157669,8.937363,-0.5744324,-0.63864136,-0.2290802,0.7700348
1629,A,1127129666385521,-3.488144,8.08786,-1.3705139,-0.48928833,0.15135193,0.32626343
1629,A,1127129716739525,-3.4117432,8.33905,-2.4820557,-0.3210907,-0.21289063,-0.009353638
1629,A,1127129767093529,-3.1054993,8.165848,-2.7063599,0.061462402,0.0029144287,-0.39846802
1629,A,1127129817447533,-3.5815735,9.156479,-1.565033,0.9577942,1.0495605,-0.9239044
1629,A,1127129867801537,-3.2011566,9.970123,-2.5886993,1.572876,-0.15112305,-1.0114746
1629,A,1127129918155540,-1.9792175,11.651199,-2.2508087,1.4716034,-0.069122314,-1.1165771
1629,A,1127129968509544,-3.0422516,12.872116,1.9675598,0.8706207,1.9599609,-0.5178375
1629,A,1127130018863548,0.5129852,11.797791,1.1321411,0.41326904,1.8520813,-0.3655548
1629,A,1127130069217552,1.1702423,12.462265,-1.8569641,0.15176392,1.5795746,-0.2743988
1629,A,1127130119571556,-6.6502686,10.820221,-1.5027313,-0.61524963,0.9418335,0.13070679
1629,A,1127130169925560,-3.588745,7.80159,-2.3385773,-0.7918854,0.60157776,0.14431763
1629,A,1127130220279564,-1.5607605,8.407425,-3.2850494,-0.065475464,0.20957947,-0.028808594
1629,A,1127130270633568,-1.6302948,5.6674347,-3.719635,-0.014373779,0.05128479,-0.30897522
1629,A,1127130320987572,-1.0052032,4.625412,-4.1311035,0.64834595,0.76727295,-0.19754028
1629,A,1127130371341576,-1.2104645,6.0099792,-3.4289703,-0.6349182,0.127594,0.13821411
1629,A,1127130421695579,-1.1466675,13.938583,-3.2024384,0.23449707,-0.384964,-0.18882751
1629,A,1127130472049583,-3.132965,8.431335,-7.035019,-1.021347,-0.2456665,1.0953674
1629,A,1127130522403587,-4.0199585,11.674271,-4.5027924,-0.2828827,-1.0380249,-0.01159668
1629,A,1127130572757591,1.6739044,12.483444,-3.7635956,-0.46095276,-1.7805328,-0.00592041
1629,A,1127130623111595,-1.6213531,4.057312,-0.35847473,-0.47651672,-1.7184143,-0.0940094
1629,A,1127130673465599,-4.1340637,16.755753,-1.2904968,-0.64686584,-0.9012451,0.52531433
1629,A,1127130723819603,3.2501984,7.550827,-2.393158,-0.77275085,-0.3347473,0.6616516
1629,A,1127130774173607,-1.2649841,8.95105,-1.5319824,-0.60072327,-0.16677856,0.79623413
1629,A,1127130824527611,-2.709549,8.045258,-0.9237976,-0.49549866,-0.14871216,0.552948
1629,A,1127130874881615,-3.9375153,9.030792,-2.72052,-0.37831116,-0.106918335,0.14331055
1629,A,1127130925235619,-2.8804016,8.014206,-2.710968,-0.35888672,-0.4126892,-0.20153809
1629,A,1127130975589622,-3.002411,7.5174713,-2.1214142,0.10769653,0.43208313,-0.49041748
1629,A,1127131025943626,-3.7699127,10.327286,-1.4857178,1.2785645,1.0941467,-0.89108276
1629,A,1127131076297630,-1.7853241,9.977753,-2.611084,1.9125061,-1.36969,-0.815567
1629,A,1127131126651634,-3.6484222,11.45755,-0.39137268,1.5046692,-0.55210876,-0.9487915
1629,A,1127131177005638,-2.5535889,12.581726,3.6403503,0.96269226,1.9293671,-0.22550964
1629,A,1127131227359642,2.5861816,10.5659485,0.65625,0.37698364,1.5592804,-0.21969604
1629,A,1127131277713646,1.8734436,12.616653,-2.6844788,0.016235352,1.383255,-0.20835876
1629,A,1127131328067650,-9.299545,9.575348,-1.3358154,-0.65419006,0.8098602,0.16041565
1629,A,1127131378421654,-3.1918488,8.260513,-3.2855682,-0.5935211,0.35603333,0.100631714
1629,A,1127131428775658,-1.4190063,7.750183,-3.9585876,0.013015747,-0.01776123,-0.17892456
1629,A,1127131479129662,-1.6753998,5.6947784,-3.8723907,0.11830139,-0.08241272,-0.39511108
1629,A,1127131529483665,-0.46206665,4.3377686,-4.5020294,0.47070313,0.9189453,0.16378784
1629,A,1127131579837669,-0.3321228,6.4270325,-3.7158508,-0.51589966,-0.18565369,0.32951355
1629,A,1127131630191673,-0.3698578,14.897339,-3.0125122,0.2775421,-0.8154907,-0.056777954
1629,A,1127131680545677,-3.7190704,9.267349,-7.5419006,-0.7323303,-0.53323364,0.8139343
1629,A,1127131730899681,-2.2351227,10.762726,-4.2924805,-0.45735168,-1.1318665,-0.0050811768
1629,A,1127131781253685,0.8159485,15.11969,-3.4318848,-0.21072388,-2.2788086,0.00541687
1629,A,1127131831607689,-1.8706207,5.588516,0.2577362,-0.47950745,-1.9407806,0.18318176
1629,A,1127131881961693,-3.2177887,11.682083,-1.6220398,-0.6060791,-1.0422821,0.55055237
1629,A,1127131932315697,3.176773,9.116928,-2.787445,-0.7227783,-0.30163574,0.65626526
1629,A,1127131982669701,-1.3218231,8.647095,-1.2887421,-0.7219238,-0.0011749268,0.77890015
1629,A,1127132033023704,-3.9796753,8.925217,-0.5194092,-0.6188202,0.17515564,0.5141754
1629,A,1127132083377708,-4.4341736,8.358429,-2.4465637,-0.5003052,0.033981323,0.1559906
1629,A,1127132133731712,-3.5830383,7.4084167,-3.0557404,-0.35983276,-0.31062317,-0.039794922
1629,A,1127132184085716,-3.614563,7.713562,-1.431961,0.3934784,0.12791443,-0.34124756
1629,A,1127132234439720,-2.792038,10.727356,-1.5819244,1.4278259,0.4520874,-0.7939606
1629,A,1127132284793724,-2.3881836,10.337753,-2.6896057,1.8836365,-0.8175659,-0.8513336
1629,A,1127132335147728,-1.8247833,11.531769,-0.09361267,1.4572144,-0.17089844,-0.86798096
1629,A,1127132385501732,-1.4146271,12.592743,3.593979,0.8752899,1.8374786,-0.33883667
1629,A,1127132435855736,2.1866913,11.163712,1.1758728,0.4047699,1.7477875,-0.3112793
1629,A,1127132486209740,-0.02078247,11.460388,-1.7601013,-0.043395996,1.3769989,-0.27565002
1629,A,1127132536563744,-6.3931427,9.522293,-1.7199249,-0.6019287,0.78302,0.05392456
1629,A,1127132586917747,-3.3650208,8.527039,-2.9395142,-0.52627563,0.44378662,0.060562134
1629,A,1127132637271751,-1.1607819,7.2078247,-3.7140656,-0.044021606,0.07505798,-0.08607483
1629,A,1127132687625755,-1.233429,5.1275177,-4.16037,0.29864502,0.20643616,-0.15557861
1629,A,1127132737979759,-1.1461945,4.561905,-4.14769,0.36950684,0.42771912,0.033233643
1629,A,1127132788333763,-1.4559937,7.694412,-2.9387512,-0.37765503,-0.008651733,0.049728394
1629,A,1127132838687767,-1.8500519,12.198685,-3.2206879,-0.18890381,-0.27955627,0.2340393
1629,A,1127132889041771,-2.7992706,10.740433,-6.2510834,-0.6709595,-0.4325409,0.5536499
1629,A,1127132939395775,-2.51474,11.218384,-4.5276337,-0.3822174,-1.0436401,-0.07191467
1629,A,1127132989747194,-0.7307129,10.411285,-3.0158234,-0.42492676,-1.5869141,-0.06448364
1629,A,1127133040101198,-2.201706,8.380325,-0.36701965,-0.59817505,-1.2389984,0.18504333
1629,A,1127133090455202,-1.0367432,11.646698,-1.6727905,-0.6980438,-0.6308441,0.5122833
1629,A,1127133140809205,1.3475952,8.491119,-2.3379974,-0.7538605,-0.3108368,0.66397095
1629,A,1127133191163209,-1.6549988,8.641144,-1.620636,-0.6796875,-0.1745758,0.74687195
1629,A,1127133241517213,-3.213791,8.963287,-1.5899658,-0.58335876,0.07298279,0.4465332
1629,A,1127133291871217,-3.5196838,8.448685,-2.5381012,-0.49780273,-0.046035767,0.040725708
1629,A,1127133342225221,-3.1653595,7.481262,-2.360077,-0.37480164,-0.24673462,-0.14448547
1629,A,1127133392579225,-3.5212097,8.790573,-1.0567627,0.1784668,0.45639038,-0.41264343
1629,A,1127133442933229,-2.914627,10.535339,-1.5684814,1.1432343,0.39772034,-0.6429291
1629,A,1127133493287233,-2.3823547,10.548828,-2.6417847,1.6085052,-0.76197815,-0.7442169
1629,A,1127133543641237,-3.1905365,11.263733,0.32052612,1.387497,0.06933594,-0.62693787
1629,A,1127133593995241,-0.9953003,11.700134,2.9789124,1.0059662,1.5718536,-0.34573364
1629,A,1127133644349244,3.0774994,11.424789,0.7173004,0.5584717,1.6264038,-0.34231567
1629,A,1127133694703248,0.106399536,11.086761,-1.4718323,0.17602539,1.1853638,-0.16879272
1629,A,1127133745057252,-4.789215,10.642044,-1.6253815,-0.32302856,0.56166077,0.10697937
1629,A,1127133795411256,-3.1556702,9.46933,-3.2900238,-0.4706421,0.18234253,0.19418335
1629,A,1127133845765260,-1.0163879,7.973877,-3.9570465,-0.13020325,-0.023040771,-0.0056762695
1629,A,1127133896119264,-0.87402344,6.2953186,-3.9519348,0.32019043,0.15556335,-0.14524841
1629,A,1127133946473268,-0.77589417,4.9475403,-4.3039246,0.56314087,0.42216492,0.004333496
1629,A,1127133996827272,-1.2918243,6.3109894,-3.4390106,0.0063323975,-0.2102356,0.040390015
1629,A,1127134047181276,-2.2338257,11.991867,-5.118408,-0.18241882,-0.2944641,0.049850464
1629,A,1127134097535280,-3.0765991,8.679993,-6.5298157,-0.6448059,0.012634277,0.41603088
1629,A,1127134147889284,-2.4817963,9.650681,-5.119049,-0.50512695,-0.7229309,0.13233948
1629,A,1127134198243287,-0.1458435,11.278778,-4.1654205,-0.45654297,-1.4921417,-0.12069702
1629,A,1127134248597291,-2.5281677,6.847351,-2.1201324,-0.5991821,-1.3877716,0.093063354
1629,A,1127134298951295,-1.9391022,10.393539,-1.2814636,-0.68811035,-0.8526459,0.33135986
1629,A,1127134349305299,1.290268,9.617065,-3.03125,-0.7415924,-0.43572998,0.5468292
1629,A,1127134399659303,-0.9775238,8.923859,-2.1054993,-0.7210083,-0.24281311,0.7796478
1629,A,1127134450013307,-2.8601532,8.525299,-1.5348511,-0.6378937,-0.1235199,0.6185608
1629,A,1127134500367311,-2.9393768,8.540512,-2.3907166,-0.5443268,-0.084869385,0.24165344
1629,A,1127134550721315,-3.2342682,8.377975,-3.0055847,-0.45072937,-0.1104126,-0.17634583
1629,A,1127134601075319,-3.2124329,7.2796783,-2.6503143,0.2004242,0.49290466,-0.46113586
1629,A,1127134651429323,-3.8901978,8.681549,-1.8599701,1.290451,0.5323334,-0.7367401
1629,A,1127134701783327,-2.4011688,10.609619,-2.1516266,1.8299103,-1.259491,-0.8922272
1629,A,1127134752137330,-3.0979767,12.199326,0.059051514,1.4739685,-0.087753296,-0.72821045
1629,A,1127134802491334,-0.92778015,12.680054,3.0499725,1.0189972,1.4602661,-0.34773254
1629,A,1127134852845338,3.498886,12.057739,-0.8076477,0.47631836,1.6071014,-0.30020142
1629,A,1127134903199342,1.2256775,11.883179,-2.064392,0.05029297,1.0679626,-0.11009216
1629,A,1127134953553346,-6.677902,10.241989,-1.9238129,-0.56648254,0.5297699,0.08979797
1629,A,1127135003907350,-3.495163,7.6736145,-2.9069214,-0.43501282,0.25785828,0.18688965
1629,A,1127135054261354,-1.0617371,7.4668274,-3.7006378,-0.16314697,0.12213135,0.07585144
1629,A,1127135104615358,-1.4962006,4.882782,-4.155136,0.2626648,0.52801514,-0.11920166
1629,A,1127135154969362,-1.1477509,4.5350647,-3.9468079,0.5035553,0.6735077,0.1675415
1629,A,1127135205323366,-1.1088257,7.0841217,-3.1219635,0.13035583,-0.60876465,-0.045074463
1629,A,1127135255677369,-2.5214539,14.800949,-6.906769,-0.22949219,-0.16339111,0.2688141
1629,A,1127135306031373,-4.115036,4.8610687,-5.4688263,-0.9895477,-0.33599854,0.4754486
1629,A,1127135356385377,-2.666626,16.272736,-4.834427,-0.2728119,-1.5922699,0.0030517578
1629,A,1127135406739381,0.21121216,8.956207,-1.8208771,-0.5483551,-1.8267212,-0.060760498
1629,A,1127135457093385,-3.9820404,5.047821,-1.1899414,-0.57554626,-1.4613647,0.361969
1629,A,1127135507447389,1.5589752,13.123367,-1.0718994,-0.74424744,-0.8251953,0.5170746
1629,A,1127135557801393,1.0973358,8.376938,-1.403244,-0.6869812,-0.39608765,0.7814026
1629,A,1127135608155397,-2.4118042,9.597412,-0.41784668,-0.5880127,-0.21920776,0.83628845
1629,A,1127135658509401,-3.0687866,8.053833,-1.690628,-0.4019165,0.13093567,0.2265625
1629,A,1127135708863405,-3.1301575,8.275116,-2.4072876,-0.40705872,-0.12852478,0.116607666
1629,A,1127135759217409,-2.9861908,8.13089,-2.5022278,-0.20932007,-0.23464966,-0.1945343
1629,A,1127135809571412,-2.9673767,9.371628,-1.3605652,0.58543396,0.9243927,-0.6642761
1629,A,1127135859925416,-3.2872772,9.9058075,-2.4854736,1.4930573,0.40463257,-0.7093048
1629,A,1127135910279420,-2.5735168,10.962723,-3.1323242,1.5940094,-0.9024658,-0.88168335
1629,A,1127135960633424,-3.3492126,12.252258,1.7586212,1.0257568,1.821228,-0.60261536
1629,A,1127136010987428,0.7507782,11.418625,3.629715,0.64068604,2.355362,-0.29238892
1629,A,1127136061341432,2.7708282,11.141403,-1.1336517,0.27597046,1.9714203,-0.6011505
1629,A,1127136111695436,-3.355713,10.7269745,-1.4629517,-0.10456848,1.1689453,-0.26986694
1629,A,1127136162049440,-5.3465424,10.385361,-2.015747,-0.7694702,0.60292053,0.0090789795
1629,A,1127136212403444,-1.1578827,8.450058,-2.7924957,-0.4507599,0.25216675,0.06614685
1629,A,1127136262757448,-1.0896454,7.9446564,-3.2881165,0.071517944,-0.18658447,0.0039367676
1629,A,1127136313111452,-0.7637634,4.5884094,-3.8114471,0.22377014,-0.1427002,-0.23284912
1629,A,1127136363465455,-1.3186951,4.991989,-4.137375,0.28253174,0.4756012,-0.10319519
1629,A,1127136413819459,-0.86691284,8.498489,-3.0264893,-0.52882385,-0.25131226,-0.053894043
1629,A,1127136464173463,-2.4795074,15.515152,-6.513855,-0.03215027,0.23139954,0.2772522
1629,A,1127136514527467,-4.6685333,3.2218475,-6.435074,-1.0667114,-0.5819397,0.68685913
1629,A,1127136564881471,-3.648758,14.0425415,-3.2041168,0.030319214,-1.8401489,-0.2657013
1629,A,1127136615235475,0.16773987,8.918991,-1.876831,-0.6672516,-1.6888428,-0.13520813
1629,A,1127136665589479,-1.7475281,4.5929565,-1.0240784,-0.5533905,-1.4185944,0.40274048
1629,A,1127136715943483,1.864151,16.790054,-0.8520355,-0.7421875,-0.6537628,0.5828247
1629,A,1127136766297487,1.2403107,6.400177,-1.8146057,-0.8308258,-0.15664673,0.894989
1629,A,1127136816651491,-3.0917664,10.1896515,-0.62368774,-0.6985321,-0.17390442,0.8542328
1629,A,1127136867005494,-3.4696045,8.084473,-2.200531,-0.39086914,-0.016189575,0.15028381
1629,A,1127136917359498,-3.5669098,8.305908,-2.8887634,-0.36372375,0.012649536,-0.21258545
1629,A,1127136967713502,-3.1033936,7.915436,-2.7657166,0.036453247,0.3665161,-0.48564148
1629,A,1127137018067506,-2.438614,8.609116,-1.4271545,1.044693,0.6017761,-0.62246704
1629,A,1127137068421510,-3.325821,10.22316,-2.5922852,1.7157135,-0.5790558,-0.80563354
1629,A,1127137118775514,-2.3021088,11.382416,-1.133316,1.4401093,-0.49168396,-0.8226471
1629,A,1127137169129518,-2.1476746,12.934143,3.017929,1.0127716,1.7677002,-0.43473816
1629,A,1127137219483522,2.3218079,10.899414,1.9112091,0.562088,1.6639099,-0.35876465
1629,A,1127137269837526,1.4223633,11.409317,-2.1311188,0.15048218,1.3331757,-0.24014282
1629,A,1127137320191530,-5.8321686,10.306412,-1.2914124,-0.38945007,0.7051697,0.112472534
1629,A,1127137370545534,-3.366745,9.578659,-2.5580902,-0.71118164,0.2837677,0.15310669
1629,A,1127137420899537,-1.0641937,8.007523,-3.6430511,-0.12333679,0.14480591,0.14492798
1629,A,1127137471253541,-1.7512054,5.8667297,-4.059387,0.2579651,-0.0920105,-7.7819824E-4
1629,A,1127137521607545,-1.0055695,4.8667297,-4.30101,0.74890137,0.4675293,0.2028656
1629,A,1127137571961549,-1.087143,5.9671326,-3.5096436,-0.2314148,-0.02168274,0.2751007
1629,A,1127137622315553,-1.4867096,11.57373,-2.8542786,-0.14923096,-0.5279999,0.0541687
1629,A,1127137672669557,-2.1257782,13.844391,-7.1696167,-0.682251,-0.256958,0.70140076
1629,A,1127137723023561,-2.9192505,9.51413,-4.343994,-0.5715027,-0.9477844,0.03819275
1629,A,1127137773377565,-1.3988953,12.082901,-3.8943481,-0.42492676,-1.6520996,0.0045776367
1629,A,1127137823731569,-2.0657501,7.001938,-0.17266846,-0.7228241,-1.2917633,0.13226318
1629,A,1127137874085573,-1.8910065,11.605377,-1.7475891,-0.76782227,-0.7720947,0.48805237
1629,A,1127137924439577,2.1506195,8.854996,-2.4786377,-0.7887268,-0.45619202,0.62901306
1629,A,1127137974793580,-1.0643921,8.846252,-1.6136627,-0.6667938,-0.2693329,0.7302551
1629,A,1127138025147584,-2.7494965,8.81868,-1.1105804,-0.5175781,0.02861023,0.45170593
1629,A,1127138075501588,-3.2093506,8.571686,-2.2927551,-0.4051361,0.048477173,0.066604614
1629,A,1127138125855592,-3.0945435,7.8910675,-2.3180084,-0.24508667,-0.1822052,-0.24432373
1629,A,1127138176209596,-3.431961,8.356445,-1.3776855,0.41539,0.5252228,-0.5247803
1629,A,1127138226563600,-3.1858063,10.558899,-1.3444061,1.3423004,0.3765869,-0.86235046
1629,A,1127138276917604,-2.3887634,10.637009,-2.5672455,1.70224,-0.7713318,-0.9483795
1629,A,1127138327271608,-2.9613495,11.388275,0.8052368,1.3139191,0.29345703,-0.7654114
1629,A,1127138377625612,-0.6034088,11.850876,3.104309,0.8391266,1.8933411,-0.3772583
1629,A,1127138427979616,2.6932678,11.075989,0.33833313,0.43185425,1.6124115,-0.3842163
1629,A,1127138478333619,-1.1849518,11.563324,-2.031311,0.016662598,1.1471558,-0.2132721
1629,A,1127138528687623,-5.984741,9.658539,-1.6368713,-0.47950745,0.58833313,0.07121277
1629,A,1127138579041627,-2.1390533,8.886429,-3.2331848,-0.457901,0.29995728,0.082717896
1629,A,1127138629395631,-0.5757599,7.578186,-4.1339874,-0.08076477,0.025314331,-0.09185791
1629,A,1127138679749635,-1.0232391,5.7033844,-4.136856,0.26275635,0.30976868,-0.09446716
1629,A,1127138730103639,-1.0395355,4.635666,-4.339493,0.14686584,0.51005554,0.16384888
1629,A,1127138780457643,-1.3409424,8.152496,-3.0842896,0.026489258,-0.34378052,0.05657959
1629,A,1127138830811647,-2.3302155,12.171829,-4.3693695,-0.12310791,-0.5346527,0.2566986
1629,A,1127138881165651,-3.1489563,10.531937,-6.3862,-0.7767334,-0.1694336,0.41244507
1629,A,1127138931519655,-2.286255,13.708176,-4.7589264,-0.5654297,-0.9781189,0.061141968
1629,A,1127138981873659,-0.94921875,11.981293,-2.4573975,-0.4112854,-1.7635651,-0.059555054
1629,A,1127139032227662,-2.8066406,5.330017,-0.64720154,-0.5917053,-1.4996338,0.18850708
1629,A,1127139082581666,-0.9771576,8.857864,-1.6067963,-0.690567,-0.93548584,0.4482727
1629,A,1127139132935670,1.4588776,9.450775,-1.9449768,-0.780777,-0.48558044,0.67289734
1629,A,1127139183289674,-1.1988525,8.829086,-1.0477905,-0.7206116,-0.23043823,0.795578
1629,A,1127139233643678,-3.0774536,9.10495,-1.3456879,-0.555954,0.028427124,0.4500122
1629,A,1127139283997682,-3.4193115,8.179169,-2.3590546,-0.45335388,-0.037094116,0.032455444
1629,A,1127139334351686,-3.1329193,7.922653,-2.6085358,-0.18132019,-4.8828125E-4,-0.29907227
1629,A,1127139384705690,-3.149231,8.855286,-1.7101898,0.6684418,0.47273254,-0.5934601
1629,A,1127139435059694,-3.143097,10.067276,-2.0787811,1.5640564,-0.174057,-0.7610016
1629,A,1127139485413698,-2.4571228,11.037949,-2.2037506,1.672699,-0.68592834,-0.85743713
1629,A,1127139535767702,-2.3083801,12.6293335,1.5958099,1.3033447,0.9192505,-0.5508728
1629,A,1127139586121705,0.44400024,11.673508,3.0706482,0.8317261,1.5883026,-0.32685852
1629,A,1127139636475709,2.1053162,11.050598,-0.3152008,0.47140503,1.2454071,-0.2957306
1629,A,1127139686829713,-3.6380005,10.778198,-1.4304962,-0.07223511,0.79200745,0.009109497
1629,A,1127139737183717,-4.722,9.65741,-1.95224,-0.5057678,0.38476563,0.12654114
1629,A,1127139787537721,-1.5093994,8.671265,-2.987152,-0.22163391,0.13879395,0.048355103
1629,A,1127139837891725,-1.3010864,6.524338,-3.7138214,-0.11613464,-0.09669495,-0.026672363
1629,A,1127139888245729,-1.3127136,5.1295624,-4.4345856,0.3407898,0.38250732,0.068115234
1629,A,1127139938599733,-1.2991943,5.1108856,-4.4873962,0.03996277,0.47528076,0.38897705
1629,A,1127139988953737,-1.1265564,9.199295,-2.4522247,0.19897461,-0.5292969,0.019119263
1629,A,1127140039307741,-1.962143,12.624634,-6.043106,-0.30456543,-0.24531555,0.3482666
1629,A,1127140089661744,-3.1434174,8.529236,-5.179306,-0.872879,-0.121414185,0.3762207
1629,A,1127140140015748,-1.8623352,15.689911,-4.985489,-0.2975464,-1.3038025,0.03529358
1629,A,1127140190369752,-1.282486,8.987427,-1.8426514,-0.5274048,-1.5519257,-0.11701965
1629,A,1127140240723756,-3.5399628,4.4762115,-0.8705139,-0.66226196,-1.1100464,0.23666382
1629,A,1127140291077760,0.70825195,10.62616,-1.2224274,-0.7647095,-0.6388092,0.4409485
1629,A,1127140341431764,0.8934784,8.81868,-1.7655945,-0.76031494,-0.355484,0.73638916
1629,A,1127140391785768,-2.084198,9.333389,-0.92030334,-0.7274933,-0.23831177,0.77879333
1629,A,1127140442139772,-3.4163666,8.91243,-1.6128235,-0.5144501,0.13208008,0.30326843
1629,A,1127140492493776,-2.931839,8.378387,-2.5296326,-0.38627625,-0.17120361,-0.016143799
1629,A,1127140542847780,-2.7839813,8.022629,-2.9962769,0.032714844,0.12553406,-0.42190552
1629,A,1127140593201784,-3.1185455,9.14798,-1.4372559,1.0151978,0.97042847,-0.82788086
1629,A,1127140643555787,-2.969925,10.149933,-2.6095123,1.7832184,-0.32637024,-0.94221497
1629,A,1127140693909791,-1.9821777,11.559143,-2.1493073,1.6306458,-0.94114685,-1.020935
1629,A,1127140744263795,-2.3203888,12.828232,2.3686218,1.0410156,1.6323395,-0.51594543
1629,A,1127140794617799,1.5656433,10.904617,2.3410187,0.5877533,1.8463745,-0.361969
1629,A,1127140844971803,2.773117,12.355377,-2.14888,0.21102905,1.6275482,-0.35217285
1629,A,1127140895325807,-6.6470795,10.667007,-1.3787842,-0.50019836,0.9846802,0.0901947
1629,A,1127140945679811,-4.6217194,8.675278,-2.46286,-0.5647583,0.53970337,0.10473633
1629,A,1127140996033815,-0.8544922,8.964676,-3.9619904,-0.043380737,0.09463501,-0.096466064
1629,A,1127141046387819,-1.4024963,6.0119324,-3.8360138,0.04850769,-0.05029297,-0.2538147
1629,A,1127141096741823,-0.92881775,3.9346466,-4.359848,0.5471802,0.8860016,0.08345032
1629,A,1127141147095827,-0.59794617,4.850128,-4.1951294,-0.68470764,0.084854126,0.37571716
1629,A,1127141197449830,-0.096725464,15.391296,-3.2239227,0.31326294,-0.6009369,-0.19572449
1629,A,1127141247803834,-3.1572876,8.253555,-7.715912,-0.84947205,-0.25590515,0.89476013
1629,A,1127141298157838,-2.9540558,10.23494,-4.6540527,-0.5395508,-0.42881775,0.05708313
1629,A,1127141348511842,0.45344543,15.157028,-3.9447937,-0.30015564,-1.7172241,-0.08331299
1629,A,1127141398865846,-1.4588623,4.4405365,-0.0012207031,-0.6572418,-1.4912415,-0.0119018555
1629,A,1127141449219850,-5.1480255,12.524307,-0.8717804,-0.695343,-0.9700775,0.47373962
1629,A,1127141499573854,3.6846008,9.01268,-2.68927,-0.7404785,-0.660614,0.6207123
1629,A,1127141549927858,-0.22724915,8.553375,-1.7958221,-0.703598,-0.4583435,0.8253937
1629,A,1127141600281862,-2.6535645,9.177017,-0.50335693,-0.6292267,-0.08073425,0.5066681
1629,A,1127141650635866,-3.4571838,9.197067,-2.4748993,-0.4473114,0.11364746,0.21315002
1629,A,1127141700989869,-2.8779144,7.6185303,-2.8168488,-0.48075867,-0.19647217,-0.2160492
1629,A,1127141751343873,-2.991867,6.45665,-2.3444672,0.15800476,0.38658142,-0.40789795
1629,A,1127141801697877,-4.0959625,10.252975,-0.30374146,1.3001556,1.2467804,-0.9226532
1629,A,1127141852051881,-1.602768,11.096268,-3.4132996,1.8785095,-0.9460907,-0.79190063
1629,A,1127141902405885,-3.6243134,11.4262085,-0.02279663,1.5205994,-0.30148315,-0.7924347
1629,A,1127141952759889,-2.2313385,13.206589,4.0479126,0.9767761,1.8547058,-0.32559204
