Subject-Id,Activity Label,Time stamp,Accel_x,Accel_y,Accel_z,Gyro_x,Gyro_y,Gyro_z
1638,A,1140276360239317,12.161048,-3.7729626,0.1297358,-0.046650328,0.6431731,-2.7686784
1638,A,1140276409739317,13.959094,-2.982876,-0.19348143,1.1666858,0.82746387,-3.1127589
1638,A,1140276459239317,14.770728,-5.2549734,3.917363,0.17279415,-0.34858808,-1.8269846
1638,A,1140276508739317,14.90241,-5.2310314,4.300435,0.06307191,0.8146807,0.07983864
1638,A,1140276558239317,13.209708,-5.9229555,2.8064532,0.48172083,1.8405303,1.6692132
1638,A,1140276607739317,11.196185,-4.809652,1.0730513,2.1946661,1.0490389,2.0345988
1638,A,1140276657239317,8.201038,-2.317288,-0.033069912,1.9017183,1.1885885,3.0497959
1638,A,1140276706739317,7.018303,-1.2877812,0.16564883,1.9315457,0.7923101,2.2359338
1638,A,1140276756239317,6.6687493,-1.0531495,-0.28206688,2.6122496,1.2184159,2.3083718
1638,A,1140276805739317,6.9752073,-0.9382278,-0.3036147,2.8764353,0.5941709,1.201562
1638,A,1140276855239317,10.633548,0.19901802,0.44577044,1.6716212,0.469535,-0.093799464
1638,A,1140276904739317,14.064439,1.1327567,1.3483845,-1.8469472,0.35768223,0.02231436
1638,A,1140276954239317,11.900081,1.5086464,0.91263974,-4.5889378,-0.044987716,2.01862
1638,A,1140277003739317,11.845014,-0.7849989,0.8072949,-2.0493474,-1.2359533,1.21328
1638,A,1140277053239317,10.406098,-1.9581577,2.4736593,0.7672117,-1.8218488,-0.39100823
1638,A,1140277102739317,9.920075,0.99389297,3.0003836,-0.23626739,-1.3605893,-1.0557332
1638,A,1140277152239317,11.402086,1.9779099,0.7043442,-1.4890183,-1.0058563,-1.4413589
1638,A,1140277201739317,8.356662,-0.6772598,1.6380829,-1.8117934,-1.3446103,-1.5031443
1638,A,1140277251239317,6.3455324,-1.20159,1.0299556,-1.3164455,-0.8705676,-1.4115316
1638,A,1140277300864687,5.694309,-1.5200188,0.18719664,-0.8157712,-0.09185935,-1.5393633
1638,A,1140277350490057,8.054993,-1.0531495,0.057909753,-0.43440658,-0.3688281,-1.8813132
1638,A,1140277400115427,12.165836,-1.1082162,-0.040252518,-2.756683,0.47060028,-1.8823785
1638,A,1140277449740797,14.062044,-1.105822,-0.021098902,-2.7481608,-0.08227197,-1.3316368
1638,A,1140277499366167,13.899239,-7.1894884,1.9780595,0.5765294,-1.246606,-0.69673914
1638,A,1140277548991537,14.378079,-6.7274075,1.664419,1.5895958,-0.6340789,0.19595246
1638,A,1140277598616907,13.504195,-3.5910032,2.1624131,1.396783,0.12651986,0.42391905
1638,A,1140277648242277,12.132318,-3.3060932,-0.07855974,1.9880047,1.4399909,0.3120663
1638,A,1140277697867647,9.92247,0.8406641,-2.4248774,2.6751003,1.916164,1.140842
1638,A,1140277747493017,7.738958,-0.32291797,-0.76090723,1.7323413,1.3462477,0.7956963
1638,A,1140277797118387,5.902605,-0.6533178,-0.19826983,1.9975921,1.428273,1.2505642
1638,A,1140277846743757,5.924153,-0.44502226,-1.1104606,3.0458124,1.0969758,0.30034837
1638,A,1140277896369127,7.6743145,1.2093711,-1.553388,2.625033,1.1608917,-0.19499958
1638,A,1140277945994497,8.849867,2.8302457,-0.04743512,-1.0703695,0.29802743,-0.54121053
1638,A,1140277995619867,14.447511,1.0705074,-2.6475382,-2.3870363,-0.35604492,0.30034837
1638,A,1140278045245237,14.821007,2.7584198,-1.57733,-4.4621716,-0.8886771,1.0385766
1638,A,1140278094870607,12.6422825,2.334646,-2.242918,-4.888277,-1.0037256,1.4678782
1638,A,1140278144495977,9.979931,-0.28461072,-0.21742344,-1.9129936,-1.705735,-0.19819538
1638,A,1140278194121347,9.230545,-3.7202902,0.86714995,0.7032958,-0.91424346,-0.8213751
1638,A,1140278243746717,8.371027,-0.05955577,0.13213001,-0.3108359,-0.31449962,-0.28341654
1638,A,1140278293372087,5.6488194,1.9898809,0.76180506,-2.0621307,-0.29212907,-0.46664202
1638,A,1140278343072137,5.404611,1.0585364,0.47210664,-2.4072764,-0.5371399,-1.271982
1638,A,1140278392772187,9.544186,-0.16968904,1.259799,-5.4496713,-0.3272828,-0.760655
1638,A,1140278442472237,14.342166,5.334581,1.6596307,-12.588008,0.52279824,4.262067
1638,A,1140278492172287,13.980641,1.3937247,-6.597971,-10.768537,4.0541496,8.440034
1638,A,1140278541872337,12.5943985,-17.95382,-12.20998,-0.4067097,-0.95472354,2.4670963
1638,A,1140278591572387,1.7654245,-12.722488,-12.068722,1.5885305,-1.3786988,-0.796874
1638,A,1140278641272437,6.302437,-6.1815295,-11.3384905,6.914853,-2.2884345,-5.0238433
1638,A,1140278690972487,4.8611274,-7.7617025,-12.73431,12.251828,-1.4010693,-7.7711606
1638,A,1140278740672537,3.470096,-3.5814264,-13.75424,14.049994,0.0029491845,-7.2470503
1638,A,1140278790372587,3.3791165,-0.72514385,-11.958589,10.889355,2.6469355,-5.4020123
1638,A,1140278840072637,3.9058409,5.2244473,-7.2803183,5.980616,4.144697,-1.578778
1638,A,1140278889772687,3.671209,5.5835776,-4.0984244,0.31021327,4.046693,1.9365945
1638,A,1140278939472737,10.968736,6.392818,-1.4097359,-6.2976217,1.7361344,2.7675009
1638,A,1140278989172787,12.599187,-0.51684827,-2.0681415,-4.7817507,1.7126986,1.8364596
1638,A,1140279038872837,14.500183,-2.3268647,-6.9618897,-4.6166344,1.839465,4.271654
1638,A,1140279088572887,9.347861,2.4615386,-5.649867,-5.151397,-1.323305,4.704151
1638,A,1140279138272937,10.691009,-0.004489128,-2.396147,-0.04025874,-3.0383809,-1.1782386
1638,A,1140279187972987,13.7962885,-4.4600983,2.897433,5.713235,0.8146807,-3.3694875
1638,A,1140279237673037,12.311883,0.708983,1.199944,2.9637868,2.617108,-2.29144
1638,A,1140279287373087,8.256105,5.4111953,3.4816182,-3.150831,0.84557337,-0.7500023
1638,A,1140279337119117,4.2673655,3.9291842,3.9149687,-4.5686975,0.17126097,-1.0599943
1638,A,1140279386865147,5.6153007,-0.13856442,2.4976013,-1.7010059,-0.25271428,-1.8173974
1638,A,1140279436611177,7.3941927,-0.9909002,2.6556187,-1.4581257,0.46207815,-2.5034275
1638,A,1140279486357207,12.122741,-1.9054853,3.8168063,-1.4804963,0.4002928,-2.4214022
1638,A,1140279536103237,15.017331,-5.2789154,4.1352353,-1.4890183,0.54090774,-1.0450805
1638,A,1140279585849267,12.996625,-6.9716163,4.920533,-0.67728686,0.1403683,-0.15132374
1638,A,1140279635595297,12.352585,-7.342717,4.9756002,1.2327323,-0.14938363,0.5027486
1638,A,1140279685341327,10.396522,-7.148787,4.702661,2.637816,0.33105063,1.2654779
1638,A,1140279735087357,10.80593,-5.1711764,3.9460933,3.3313031,0.53664666,1.5040972
1638,A,1140279784833387,9.165902,-2.685995,3.9939773,1.4244798,1.5624963,2.11982
1638,A,1140279834579417,5.509956,-1.6780361,3.3906386,1.8346066,1.07354,2.0516431
1638,A,1140279884325447,4.880281,-2.355595,3.1129112,2.8210416,1.3931192,1.7789354
1638,A,1140279934071477,6.482002,-1.4050971,2.720262,3.0234418,0.94677347,0.6987573
1638,A,1140279983817507,8.907329,-0.23672669,2.4066217,1.8836088,0.7827228,-0.23761016
1638,A,1140280033563537,11.327866,-0.9621698,2.5047839,-0.5494551,0.53345084,-0.32815763
1638,A,1140280083309567,11.236886,-0.4091092,1.9373581,-3.0070202,0.5686046,1.1482989
1638,A,1140280133055597,12.838608,0.163105,1.9852421,-3.5684144,0.21067575,1.0044881
1638,A,1140280182801627,11.208156,0.25408465,1.6237177,-0.98088723,-1.6141223,-0.5966043
1638,A,1140280232547657,9.218575,-0.31812954,3.8599021,0.37945545,-1.6109264,-0.9769037
1638,A,1140280282293687,10.6359415,1.5708956,4.12087,-1.5305637,-0.8343487,-0.9587942
1638,A,1140280332039717,7.5330563,2.2915504,3.6300588,-1.9012758,-1.4713768,-1.7172625
1638,A,1140280381820207,5.7421937,0.6180033,3.455282,-1.4900836,-1.8729814,-2.3127453
1638,A,1140280431600697,6.2976484,0.50787,2.5622447,-0.11482725,-2.213866,-1.5755823
1638,A,1140280481381187,9.762058,-2.149694,3.2158618,2.5280938,-3.426137,-1.662934
1638,A,1140280531161677,12.206538,-3.5814264,6.031443,1.8654994,-3.912963,-3.2874622
1638,A,1140280580942167,16.224009,0.23014264,4.2190323,-1.6754396,0.20747995,-1.3912915
1638,A,1140280630722657,14.459482,-0.32052374,4.037073,-3.3457742,0.5142761,0.15334189
1638,A,1140280680503147,13.983036,-5.1735706,2.136077,-0.8498597,0.47166553,0.7371068
1638,A,1140280730283637,13.662212,-5.4800286,1.1712135,1.0601594,1.4932541,1.3112843
1638,A,1140280780064127,14.569615,-3.1696239,-1.7952024,2.145664,2.105781,3.0817537
1638,A,1140280829844617,10.525808,-1.831265,-1.4360721,1.2913218,1.5220163,4.134235
1638,A,1140280879625107,7.7485347,-2.6668415,-0.75372463,1.7323413,1.8415955,3.786959
1638,A,1140280929405597,6.9081697,-2.590227,0.8384195,1.952851,1.7414607,2.4479215
1638,A,1140280979186087,7.906552,-2.6931777,0.77138186,2.690014,1.371814,0.806349
1638,A,1140281028966577,9.331101,-2.8895023,0.05312135,3.2205157,0.96807873,0.08836076
1638,A,1140281078747067,10.808324,-0.18405426,-0.19348143,0.17172888,1.0596915,0.6231235
1638,A,1140281128527557,10.767623,1.1519103,0.5415385,-2.2197897,0.15528199,1.1994315
1638,A,1140281178308047,11.019014,0.5030816,0.47450083,-2.2709224,-0.674559,0.22045355
1638,A,1140281228088537,10.875362,0.38576576,0.76419926,-0.9489293,-1.7643245,-1.9505553
1638,A,1140281277869027,9.541792,0.1798644,1.5710453,-1.1023273,-1.7387582,-3.3503127
1638,A,1140281327649517,10.997466,0.081702136,0.70195,-1.9566694,-2.040228,-3.6198246
1638,A,1140281377430007,11.15309,-0.8257003,0.1225532,-2.2197897,-2.4279842,-3.2118285
1638,A,1140281427235977,9.079711,-0.61740476,-0.64119714,-1.8032714,-1.8303709,-2.4672086
1638,A,1140281477041947,8.057386,-0.7778163,-0.9165303,-1.2791612,-1.5821643,-2.2616127
1638,A,1140281526847917,10.89691,-0.62458736,-1.3450924,-1.2994013,-1.5352926,-2.275461
1638,A,1140281576653887,12.333431,0.3522469,0.08664017,-1.7787703,-1.838893,-1.8024836
1638,A,1140281626459857,14.777911,0.25408465,0.78574705,-1.7627913,-1.6194485,-0.8352235
1638,A,1140281676265827,15.639823,-3.1768064,2.9764416,-0.4812782,-0.57442415,0.014857509
1638,A,1140281726071797,16.540043,-3.3467946,2.7609634,-0.031736623,0.70069736,1.4135497
1638,A,1140281775877767,13.937546,-2.9804819,2.8543375,1.5448548,2.1111076,1.7171501
1638,A,1140281825683737,14.069227,-3.1528645,-0.5717653,3.3685875,3.2988772,1.660691
1638,A,1140281875489707,12.637494,-1.2877812,-2.5182512,3.3941538,2.5915418,1.527533
1638,A,1140281925295677,10.195409,0.15352818,-2.43206,2.1605775,2.2325475,2.035664
1638,A,1140281975101647,8.301595,0.6347627,-1.826327,1.0473763,2.1260211,2.3200898
1638,A,1140282024907617,7.363068,0.35942954,-1.7928082,0.6937085,1.6935239,1.9419209
1638,A,1140282074713587,8.57214,-0.14574704,-1.7688662,1.2817345,1.4740794,1.3336549
1638,A,1140282124519557,10.195409,0.57251346,-1.9556139,0.8897171,1.1545,0.5091402
1638,A,1140282174325527,10.765228,0.68504095,-1.1942577,-0.41416654,-0.031139277,0.512336
1638,A,1140282224131497,10.403705,1.6211739,-1.0386347,-1.5955448,-1.3786988,0.74243313
1638,A,1140282273937467,12.580033,2.1766286,-1.6084546,-2.091958,-2.1403627,-0.20245643
1638,A,1140282323743437,11.028591,0.99628717,0.019602526,-0.6911353,-3.704171,-1.4200537
1638,A,1140282373549407,11.306318,0.8574235,1.2430396,-2.0706527,-1.6034696,-1.6309761
1638,A,1140282423355377,11.30153,3.0624833,-0.4688146,-3.0080855,0.042363968,-0.90233517
1638,A,1140282473177127,7.4372883,0.50787,-0.28446108,-3.014477,-0.7395401,-1.6980877
1638,A,1140282522998877,6.9177465,-1.141735,0.14410101,-1.6466775,-0.80132544,-2.4427075
1638,A,1140282572820627,10.291177,-1.783381,-0.76330143,-0.34172857,-0.7256917,-2.7718742
1638,A,1140282622642377,12.429199,-1.0148423,0.8479963,-0.47169083,-0.75658435,-2.0687997
1638,A,1140282672464127,12.35019,0.22774844,1.3747207,-1.9588,-1.5800338,-0.7723729
1638,A,1140282722285877,13.564051,-1.0986392,1.4369699,-1.0842179,-0.50837773,0.014857509
1638,A,1140282772107627,14.677354,-1.1848305,0.6947674,-0.077543,0.598432,0.046815444
1638,A,1140282821929377,13.631088,-1.8001404,1.6596307,0.7821254,0.88711864,0.16612506
1638,A,1140282871751127,13.4299755,-3.7562032,0.56308633,1.8143666,2.8365526,1.4337897
1638,A,1140282921572877,14.306253,-1.474529,-1.2900258,1.9421984,3.9263182,3.3129163
1638,A,1140282971394627,11.315895,-0.8855553,-1.4217069,1.4479157,3.3116605,3.6474092
1638,A,1140283021216377,9.259275,0.6347627,-0.5981015,0.9461761,2.7950072,3.4556615
1638,A,1140283071038127,6.391022,0.067336924,0.36676177,2.364043,2.02056,2.792002
1638,A,1140283120859877,9.668684,-0.87119013,0.21832126,3.7233205,1.4453173,1.1237978
1638,A,1140283170681627,9.431659,-0.2439093,0.9581296,2.4343505,0.91694605,-0.10125631
1638,A,1140283220503377,10.449194,1.7815853,0.21113867,-1.9247115,0.008275507,0.24495463
1638,A,1140283270325127,9.41011,3.2061353,1.283741,-4.5431314,-0.6607106,1.1184715
1638,A,1140283320146877,10.451589,2.1119852,-0.22221185,-3.4629533,-0.9856162,0.3024789
1638,A,1140283369968627,10.932823,-1.0914567,1.4824598,-1.0778263,-1.6194485,-2.171065
1638,A,1140283419790377,10.808324,-1.2446856,1.1975498,-1.608328,-0.91211295,-2.0315154
1638,A,1140283469627367,9.094076,0.7305308,1.2765584,-2.2219203,-1.2945429,-0.82457083
1638,A,1140283519464357,7.849091,-0.2534861,1.4513352,-2.1793096,-1.2125175,-1.3422893
1638,A,1140283569301347,7.7820535,-0.4019266,1.7961001,-2.047217,-0.4231566,-2.0155365
1638,A,1140283619138337,9.532215,-0.9789292,0.4074632,-1.1364158,-0.34006596,-2.5353856
1638,A,1140283668975327,11.605594,-1.5248072,0.7163152,-0.35557702,-0.9408751,-3.2981148
1638,A,1140283718812317,13.875297,-1.7283144,1.2693758,-0.23626739,-1.3339577,-3.080801
1638,A,1140283768649307,17.124228,-3.4952352,2.9836242,-0.8892745,-0.9941383,-1.5670601
1638,A,1140283818486297,14.74918,-4.656423,3.325995,-1.7830313,0.43757707,0.8329806
1638,A,1140283868323287,13.832201,-4.2925043,4.300435,-0.7294848,1.0479736,1.2303243
1638,A,1140283918160277,10.935217,-5.997176,2.2533927,1.235928,1.7659618,1.6031668
1638,A,1140283967997267,12.402863,-4.1488523,0.5271733,1.7930614,1.5838016,2.1251464
1638,A,1140284017834257,9.723751,-2.7266965,0.4385878,1.9176973,1.2599612,2.4148982
1638,A,1140284067671247,8.538621,-2.2885575,0.67321956,2.2692347,1.1438473,2.4042456
1638,A,1140284117508237,8.88578,-1.9892824,0.3859154,2.2724304,1.609368,2.3200898
1638,A,1140284167345227,9.90571,-1.1632828,-0.461632,1.7962571,1.7371997,2.2231507
1638,A,1140284217182217,11.287165,-1.0076597,-0.54542905,0.8630855,1.8170946,2.0899925
1638,A,1140284267019207,13.003807,-0.19602527,-1.148768,-0.92655873,1.6583701,2.5054457
1638,A,1140284316856197,11.517008,0.77602065,-0.37304655,-2.6469607,0.5760614,2.5736227
1638,A,1140284366693187,10.592846,3.3545759,-0.6795044,-2.0301726,-0.9344835,1.011945
1638,A,1140284416530177,9.321525,-0.667683,3.8670847,1.046311,-3.2652822,-3.4131634
1638,A,1140284466367167,9.855432,-0.5575497,2.195932,0.6500326,-1.8815036,-2.7505689
1638,A,1140284516211867,10.487501,1.3721769,1.6117467,-1.2184412,-1.5438148,-1.2410892
1638,A,1140284566056567,9.520244,0.77123225,0.9437644,-2.1569393,-0.8450013,-1.4956875
1638,A,1140284615901267,8.758887,-0.32770637,0.4074632,-2.2560089,0.0444945,-2.915685
1638,A,1140284665745967,10.803535,-1.9605519,-0.28446108,-1.2802266,0.5760614,-3.60065
1638,A,1140284715590667,13.037326,-1.2542624,0.66364276,-2.1058064,-0.50518197,-3.6911974
1638,A,1140284765435367,14.907198,-2.317288,1.4680946,-1.3803614,-1.5214442,-3.7061112
1638,A,1140284815280067,17.751509,-9.818322,6.378602,-0.76783437,-0.9983994,-1.7545468
1638,A,1140284865124767,15.390826,-4.098574,6.127211,-1.3761003,0.61441094,0.9799871
1638,A,1140284914969467,12.261604,-7.694665,6.780828,1.9453942,1.0021672,0.41539693
1638,A,1140284964814167,11.138724,-5.307646,3.9844005,1.364825,1.7563745,1.934464
1638,A,1140285014658867,11.641506,-3.2031426,2.5622447,1.4223493,1.7680924,2.7824144
1638,A,1140285064503567,11.624747,-3.303699,1.4465468,2.4822874,2.052518,2.9049199
1638,A,1140285114348267,10.798747,-2.946963,0.6851906,4.1313167,1.7723534,1.6809311
1638,A,1140285164192967,10.856209,-5.494394,1.5494974,3.5017455,2.3369436,2.8388736
1638,A,1140285214037667,9.867403,1.1375451,1.3603555,2.086009,2.1270864,1.7246069
1638,A,1140285263882367,11.744457,1.2764088,0.7977181,0.5946389,1.8586398,1.5371203
1638,A,1140285313727067,13.310266,1.0633248,0.34521395,-0.91803664,1.190719,1.6287332
1638,A,1140285363571767,9.201815,2.0018518,-0.054617725,-0.8583818,0.14356409,1.052425
1638,A,1140285413416467,9.54658,1.4152725,0.24944589,-0.13293675,-0.92809194,-0.27489442
1638,A,1140285463261167,10.037392,2.6171618,0.21353287,-0.63041526,-1.7036045,-1.3305714
1638,A,1140285513118407,10.717344,0.9148843,1.9517233,-1.9087325,-1.0825553,-1.7172625
1638,A,1140285562975647,12.010214,1.2141595,1.6069583,-3.7846632,-0.74167067,-0.98116475
1638,A,1140285612832887,9.340678,-2.0946271,0.5846341,-0.83281547,-1.5470105,-1.7566773
1638,A,1140285662690127,7.384616,-3.4665048,1.9445407,0.6660116,-1.7004086,-1.9910355
1638,A,1140285712547367,7.7940245,0.029029695,4.049044,-0.577152,-1.9337015,-2.2062187
1638,A,1140285762404607,11.560103,-0.76584524,4.250157,-1.0639778,-1.4351578,-2.4182065
1638,A,1140285812261847,11.78037,-1.7761984,7.479935,-0.20537473,-1.3222398,-1.6341718
1638,A,1140285862119087,13.092393,-3.5215714,11.712884,-0.7976617,0.55901724,-0.90020466
1638,A,1140285911976327,13.645453,-3.5550902,9.426421,-1.8469472,0.19469678,-0.14493215
1638,A,1140285961833567,12.855367,-5.9636574,6.6036572,-0.22241896,0.20641468,0.5783824
1638,A,1140286011690807,10.449194,-6.01633,5.2940288,0.828997,1.5891279,1.9802704
1638,A,1140286061548047,13.396457,-6.3826423,3.563021,1.138989,1.3377255,2.7898715
1638,A,1140286111405287,14.1865425,-4.1273046,1.0203788,0.9035655,0.8477039,3.1286254
1638,A,1140286161262527,11.725304,-3.7035308,0.5846341,1.6662949,0.62186784,3.2308908
1638,A,1140286211119767,8.780436,-2.9254153,0.17522563,3.4804401,0.26393896,2.52249
1638,A,1140286260977007,9.115623,-1.6181811,0.24705169,4.067401,-0.2825417,1.5285983
1638,A,1140286310834247,10.169072,-0.73950905,-0.6771102,3.6636658,1.1172158,0.2662599
1638,A,1140286360691487,11.8378315,1.065719,-0.8614637,-0.40244865,2.0823452,1.0044881
1638,A,1140286410548727,8.313566,4.6306853,-0.6842928,-5.082155,0.57286566,2.0452516
1638,A,1140286460405967,5.248988,2.6339211,-1.7808372,-4.021152,-0.86737186,0.290761
1638,A,1140286510263207,7.6096706,-0.48093528,-0.8614637,-0.17874311,-1.7792382,-2.6951752
1638,A,1140286560125127,8.778041,0.1894412,-0.4688146,0.85562867,-2.3406324,-4.253657
1638,A,1140286609987047,9.683049,0.49111062,-1.9891326,0.6734684,-2.6495593,-4.0991936
1638,A,1140286659848967,13.686154,1.4392145,-3.1598973,-0.25331163,-2.7667384,-2.77507
1638,A,1140286709710887,12.620735,0.40013096,-0.27967268,-1.49541,-3.2642167,-1.6320413
1638,A,1140286759572807,10.140342,0.55096567,0.22071546,-2.5500216,-2.0753815,-0.5113831
1638,A,1140286809434727,11.655871,0.017058687,-0.8255507,-2.0940886,-1.1198393,-0.36970294
1638,A,1140286859296647,14.449905,-0.43783963,0.15367782,-2.4935627,-1.4287659,-1.2464156
1638,A,1140286909158567,13.676578,-0.5503671,0.725892,-0.9169714,-1.9560719,-1.4264452
1638,A,1140286959020487,14.382868,-2.0395606,2.8327894,0.49343875,-1.0687065,-1.4754474
1638,A,1140287008882407,16.34372,-0.72514385,1.4154221,-0.26502952,0.5792575,-0.30898288
1638,A,1140287058744327,14.337378,0.12000936,2.8471546,-0.8051186,1.2365257,1.197301
1638,A,1140287108606247,14.01416,-2.4800937,-0.13362639,1.2146227,3.3457491,2.0143588
1638,A,1140287158468167,14.780305,-2.1688476,-2.8965352,2.5504644,4.4419065,1.9600303
1638,A,1140287208330087,12.699743,-0.5479729,-3.1766567,1.4638946,3.1763723,2.3499172
1638,A,1140287258192007,8.409334,0.41689038,-1.9412487,0.5136788,2.4093819,2.9283557
1638,A,1140287308053927,7.1595607,-0.02124854,-1.6587329,0.67453367,1.637065,2.6343427
1638,A,1140287357915847,8.272864,-0.16968904,-1.565359,1.5864,1.5188208,1.6681479
1638,A,1140287407777767,9.845855,0.163105,-1.3450924,2.0018532,1.4740796,0.40580955
1638,A,1140287457639687,11.196185,0.12719196,-1.2229881,0.40395653,0.7933757,0.1405587
1638,A,1140287507501607,9.6567135,1.5254058,-0.7249942,-1.93856,-0.6521882,1.1504294
1638,A,1140287557363527,10.121188,1.7025766,-0.24854806,-1.4986057,-2.294826,0.72964996
1638,A,1140287607231687,11.129148,0.8837597,0.8408137,-0.48980033,-2.875395,-1.4115316
1638,A,1140287657099847,11.514614,-0.22475569,2.1672015,-0.8892745,-2.005074,-1.9356416
1638,A,1140287706968007,12.678196,1.5254058,0.49604866,-1.9811705,-0.08972856,-0.7073918
1638,A,1140287756836167,8.445248,1.065719,1.0802339,-2.7534873,-0.5041164,-0.35478926
1638,A,1140287806704327,6.8578916,0.12719196,2.5885808,-2.2996845,-1.026096,-1.308201
1638,A,1140287856572487,8.143578,-1.6421231,2.078616,-0.22774528,-0.24206136,-1.956947
1638,A,1140287906440647,11.179425,-0.45938745,1.8368016,-0.33427173,-0.19199394,-2.6323247
1638,A,1140287956308807,10.561722,1.0345944,1.7913117,-2.0546737,-1.1304919,-2.5321898
1638,A,1140288006176967,13.736433,0.24211365,1.889474,-3.2179425,-1.30413,-2.2466989
1638,A,1140288056045127,18.192041,-5.0490723,0.98686004,-0.25331163,0.67300075,-0.80006975
1638,A,1140288105913287,13.595175,-12.186188,1.4800656,-1.310054,1.6178904,4.042622
1638,A,1140288155781447,12.867338,-4.287716,0.8456021,-1.8671873,1.2493088,5.0088167
1638,A,1140288205649607,12.582428,-6.5933323,-1.8909705,1.2742776,0.43970788,3.38855
1638,A,1140288255517767,10.188226,-5.23582,-2.2716484,3.540095,-0.6937335,2.3893318
1638,A,1140288305385927,7.885004,-4.4792523,-1.4959271,5.6535797,-1.4149175,1.8471123
1638,A,1140288355254087,8.620024,-3.3132758,-1.6970401,6.363046,-0.52968276,0.786109
1638,A,1140288405122247,10.9064865,-2.2143373,0.6013935,2.230885,1.3995111,1.2484337
1638,A,1140288454990407,14.227244,3.105579,1.3316251,-0.93188506,3.4639935,2.9262252
1638,A,1140288504858567,12.5704565,-2.1377227,0.4122516,-1.9055368,3.1774375,3.3374174
1638,A,1140288554726727,9.402928,0.187047,-1.0099041,-2.417929,1.4612964,3.010381
1638,A,1140288604606727,8.689456,0.55096567,-0.4568436,-1.6828965,0.1989581,0.7072794
1638,A,1140288654486727,8.979155,-0.5575497,0.74743986,0.69051266,-1.6492757,-2.530059
1638,A,1140288704366727,7.2385697,-1.6181811,2.1073463,0.6116831,-1.8665897,-4.4400783
1638,A,1140288754246727,9.702203,1.0130466,-0.38262334,-1.000062,-1.1517972,-4.4454045
1638,A,1140288804126727,10.319907,-0.51684827,0.21832126,-0.70178795,-3.4687474,-4.080019
1638,A,1140288854006727,10.463559,-2.5974095,3.3092356,-0.448255,-4.8610477,-4.46671
1638,A,1140288903886727,13.22168,1.3314754,0.29732993,-3.7463136,-0.62236077,-3.1074326
1638,A,1140288953766727,13.889662,-0.43783963,0.4385878,-2.6544178,-1.0197043,-2.8965101
1638,A,1140289003646727,16.034866,-7.246949,3.3882444,-0.3321412,-1.9209181,-3.1809359
1638,A,1140289053526727,16.092327,-4.0435076,2.483236,-0.5164319,-0.6117081,-0.26211125
1638,A,1140289103406727,15.481806,-0.44502226,1.6955438,-1.3995361,1.906577,1.773609
1638,A,1140289153286727,16.755522,-2.9732993,0.045938745,-0.59632677,2.381685,2.1933234
1638,A,1140289203166727,14.387656,-3.7274728,-0.19826983,0.17172888,2.245331,2.8463304
1638,A,1140289253046727,13.152247,-2.592621,-1.5629648,1.803714,1.9811455,3.1318212
1638,A,1140289302926727,10.461165,-2.614169,-1.4791677,3.0458124,1.6530441,2.7973282
1638,A,1140289352806727,7.825149,-1.9437925,-0.40177697,3.0490081,0.60801965,2.7248902
1638,A,1140289402686727,7.777265,-0.6461352,-0.07616554,2.2117102,1.0703444,2.7792187
1638,A,1140289452566727,8.804378,0.13437457,0.18719664,2.3022578,0.9957759,2.1389947
1638,A,1140289502446727,9.771635,-0.33010057,0.5199907,2.133946,1.2003067,0.85322064
1638,A,1140289552326727,10.2935705,0.48392802,0.6109703,0.2644069,1.1928499,0.45587698
1638,A,1140289602206727,9.776423,1.563713,0.03875614,-2.0504127,0.36833516,0.86174273
1638,A,1140289652095687,9.685444,0.9340379,0.32845455,-2.268792,-1.1773635,0.30780524
1638,A,1140289701984647,10.104429,0.08888474,1.1760019,-1.8288378,-1.8463496,-1.0674511
1638,A,1140289751873607,9.625588,0.39773676,0.6947674,-1.4709089,-2.0082698,-2.4469686
1638,A,1140289801762567,11.138724,-0.34207156,2.3012767,-1.7489429,-1.9358318,-3.294919
1638,A,1140289851651527,12.905645,1.0441712,0.20635025,-3.292511,-0.6362092,-2.670674
1638,A,1140289901540487,9.869798,-0.38277298,0.5726631,-3.5460439,-0.9206348,-2.3798568
1638,A,1140289951429447,10.267235,-1.9605519,1.2861352,-2.5265858,-1.1560582,-3.0072978
1638,A,1140290001318407,11.4715185,-2.482488,1.022773,-2.0024757,0.034907382,-2.7644174
1638,A,1140290051207367,12.776358,-3.552696,1.7075148,-1.5369552,-0.71610403,-2.7218068
1638,A,1140290101096327,12.556091,-5.8176107,2.114529,-0.86583865,-0.83541363,-1.2304366
1638,A,1140290150985287,12.848185,-3.4832642,1.484854,-1.1779611,0.2618087,1.1728
1638,A,1140290200874247,13.880085,-3.0930092,0.21353287,-0.071151406,0.9084242,1.5712088
1638,A,1140290250763207,15.263934,-6.006753,0.14649522,1.9698952,0.99151486,1.8353944
1638,A,1140290300652167,15.103522,-3.588609,-1.256507,3.0063975,1.7648969,2.962444
1638,A,1140290350541127,13.2551985,-2.6931777,-1.6778865,3.8820448,2.1505225,3.4002678
1638,A,1140290400430087,11.859379,-1.6445173,-1.9388545,3.9448955,1.8991201,3.8753757
1638,A,1140290450319047,9.939229,0.43843818,-0.9141361,1.7845392,1.8852717,4.1757803
1638,A,1140290500208007,8.730157,1.1303625,-0.85428107,0.7224706,2.1238909,3.8977463
1638,A,1140290550096967,9.271247,1.1471219,-0.39698857,2.5621822,3.3777072,2.3786793
1638,A,1140290599985927,7.470807,-0.12180501,1.5854105,1.8516508,2.5606494,1.0865135
1638,A,1140290649874887,7.669526,1.9874867,2.3778913,-1.983301,0.7688746,0.16079873
1638,A,1140290699766907,7.375039,1.0585364,3.563021,-2.3444257,-1.6833642,-1.090887
1638,A,1140290749658927,10.911275,-0.59825116,3.0147488,0.67879474,-3.709497,-2.5098193
1638,A,1140290799550947,8.921694,-2.4250271,5.0761566,0.42100075,-5.6418867,-4.3495307
1638,A,1140290849442967,14.291888,-0.6724714,2.8519433,-1.330294,-2.5867083,-4.4965377
1638,A,1140290899334987,14.109928,0.04818331,2.7777228,-2.607546,-1.3829596,-3.8637702
1638,A,1140290949227007,11.131541,-0.06194997,2.7130795,-2.768401,-1.2412794,-3.3822708
1638,A,1140290999119027,8.557775,-0.04997896,1.6141409,-2.6938324,-0.9792243,-2.1763914
1638,A,1140291049011047,9.508273,0.09367314,1.508796,-2.0301726,-0.5350091,-1.7737215
1638,A,1140291098903067,10.590452,-0.58628017,3.359514,-1.8586651,0.18084861,-1.7417635
1638,A,1140291148795087,11.490672,0.32351652,3.110517,-0.8136407,0.5121459,-1.034428
1638,A,1140291198687107,12.15626,-2.377143,4.475212,0.21646999,-1.062315,-1.7950268
1638,A,1140291248579127,12.632706,-3.1217396,4.8534956,1.1677511,-1.7504758,-0.71058756
1638,A,1140291298471147,13.054086,-2.7410617,4.420145,0.83751917,-0.51157326,0.98637867
1638,A,1140291348363167,15.800235,-0.58388597,0.9413702,2.311845,1.7020462,2.5043805
1638,A,1140291398255187,16.59511,-0.5527613,-2.9444191,4.40509,2.8472054,1.8758745
1638,A,1140291448147207,13.743615,0.6371569,-3.559729,5.101773,3.1966121,1.7746743
1638,A,1140291498039227,10.008661,3.6969466,-2.5685296,2.6751003,3.4107304,2.7014544
1638,A,1140291547931247,8.876204,4.6354737,-1.2134113,1.6279453,2.3965986,2.3669615
1638,A,1140291597823267,10.305542,3.7783496,-0.4185364,1.3211492,2.1579795,1.7970449
1638,A,1140291647715287,9.508273,3.5963902,-1.5198692,0.4433713,2.1505225,1.2825222
1638,A,1140291697615977,9.599253,2.655469,-2.7600656,-0.7305501,1.673284,1.1440378
1638,A,1140291747516667,8.512285,2.2508488,-1.9675848,-2.50315,0.3512909,2.0846663
1638,A,1140291797417357,7.4875665,3.3593643,-2.621202,-2.7428346,-1.9166571,1.1184715
1638,A,1140291847318047,8.569746,2.954744,-0.5789479,-1.2067233,-3.7350633,-1.8749216
1638,A,1140291897218737,12.125135,1.9779099,1.0898107,-0.25650743,-2.4673986,-2.5098193
1638,A,1140291947119427,12.9367695,2.739266,0.14410101,-0.40138337,-1.469246,-1.7492204
1638,A,1140291997020117,8.70861,1.9826983,0.04833295,-0.8264239,-2.174451,-2.0975618
1638,A,1140292046920807,7.861062,2.0904374,0.04833295,-2.5766532,-2.802957,-2.017667
1638,A,1140292096821497,9.884163,3.273173,-0.32755673,-2.3529477,-1.9315708,-2.6120846
1638,A,1140292146722187,14.469059,1.7959505,0.007631518,-2.1058064,-0.9632454,-2.7441773
1638,A,1140292196622877,14.909592,0.9843162,0.66603696,-1.5731742,-1.2199742,-2.0474944
1638,A,1140292246523567,15.393221,0.69222355,1.7194858,-2.1888971,-0.99094224,-0.24080595
1638,A,1140292296424257,16.506525,-0.5407903,2.507178,-1.5731742,0.45568684,0.54003286
1638,A,1140292346324947,13.27914,-2.887108,1.4992192,-0.43334132,1.117216,1.6276679
1638,A,1140292396225637,10.331878,-2.3196821,2.2150855,0.77147275,1.3281384,1.9333987
1638,A,1140292446126327,14.157812,-2.683601,0.09861118,2.2170365,2.3507922,2.3680267
1638,A,1140292496027017,13.738827,-1.9868882,-1.4288895,2.2905397,2.152653,2.6780186
1638,A,1140292545927707,10.889728,-1.153706,-1.1176432,2.4183717,1.519886,3.4354217
1638,A,1140292595828397,9.599253,-0.62937576,-1.2038345,2.7443426,1.5294734,3.546209
1638,A,1140292645729087,10.631153,-0.48093528,-1.3738228,2.798671,1.608303,3.2415435
1638,A,1140292695629777,11.260828,0.459986,-0.62683195,2.5717697,1.2887236,2.6183639
1638,A,1140292745535117,11.263223,1.1830349,-0.1479916,0.8918476,1.6146945,1.5349898
1638,A,1140292795440457,10.35582,1.5948377,0.15846622,-0.99260515,1.2503741,1.2367158
1638,A,1140292845345797,9.690232,1.0705074,-0.054617725,-2.1366992,0.05621267,1.1110146
1638,A,1140292895251137,10.702979,0.99149877,-0.734571,-2.6054156,-0.81836945,0.117122896
1638,A,1140292945156477,9.378986,0.9412205,-0.2605191,-2.413668,-2.166994,-1.8195279
1638,A,1140292995061817,9.845855,-0.9621698,0.98686004,-1.3121845,-2.4258535,-3.3886623
1638,A,1140293044967157,12.2999115,-1.0076597,-0.18869302,-1.4314941,-1.4074607,-3.234199
1638,A,1140293094872497,10.7317095,0.23493104,0.48886606,-2.3582742,-1.9315708,-2.9092934
1638,A,1140293144777837,9.580099,-0.85921913,1.8391958,-2.3305774,-1.6098609,-2.8325944
1638,A,1140293194683177,11.593622,-1.6277579,1.0036194,-1.1140453,-0.68521136,-2.517276
1638,A,1140293244588517,14.006978,-1.5295956,0.8575731,-2.3433604,0.58777964,-1.7588078
1638,A,1140293294493857,13.195343,-0.12898761,0.6013935,-3.5492399,-0.23140873,-1.1324322
1638,A,1140293344399197,13.403639,-2.50643,1.0371382,-1.7713134,-0.96218014,-1.240024
1638,A,1140293394304537,13.049297,-5.5255184,0.7977181,0.6841211,-0.5584449,-1.006731
1638,A,1140293444209877,13.425187,-4.800075,1.2574048,1.0963784,0.077517964,0.30354416
1638,A,1140293494115217,12.237662,-3.3563714,0.2614169,2.2734957,2.3284216,1.9472471
1638,A,1140293544020557,14.763545,-3.0044239,-1.6850691,3.0468776,3.4863641,2.7600439
1638,A,1140293593925897,11.979089,-1.4098855,-2.4416368,2.7976058,2.8557277,3.3193078
1638,A,1140293643831237,7.7221985,-0.5575497,-0.8016087,1.9571121,1.3238773,3.4599226
1638,A,1140293693736577,8.308778,-0.37559038,-0.96680856,1.9773521,1.1523697,3.1339517
1638,A,1140293743641057,9.647137,-0.6533178,-0.6100725,2.8444774,1.1630224,1.9525735
1638,A,1140293793545537,11.892898,0.14395137,-1.2229881,2.6996014,1.2035024,0.5794476
1638,A,1140293843450017,12.766781,0.53899467,-0.7154174,0.0992909,1.1747403,0.25667253
1638,A,1140293893354497,11.931205,1.8414404,-0.53345805,-3.344709,0.59630173,1.5637519
1638,A,1140293943258977,11.572075,2.085649,-1.8981531,-4.367363,-0.8279568,1.6798658
1638,A,1140293993163457,8.715792,0.82629883,-0.14320318,-2.3838406,-2.5025525,-1.4157926
1638,A,1140294043067937,9.515455,-2.683601,1.0610802,-0.14465465,-1.8985475,-3.6059763
1638,A,1140294092972417,9.003097,-0.74429744,-0.028281508,-0.6059142,-0.5776197,-2.9412513
1638,A,1140294142876897,7.679103,0.086490534,0.079457566,-2.1143286,-1.3030647,-2.0996923
1638,A,1140294192781377,7.116465,-0.16490065,1.247828,-2.257074,-2.10947,-2.5620172
1638,A,1140294242685857,10.377368,-2.5040357,0.6971616,-0.34812015,-0.97815907,-3.4664266
1638,A,1140294292590337,14.660595,-2.0491374,0.24705169,-1.1886138,-0.74167037,-3.4813404
1638,A,1140294342494817,15.690102,-1.1345524,0.41943422,-0.7273543,-2.3896344,-2.2594821
1638,A,1140294392399297,15.55842,-3.5024178,3.1368532,-0.61869735,-2.2735207,-1.2133924
1638,A,1140294442303777,16.587927,-1.6540941,0.86714995,-0.33427173,0.561148,0.8766564
1638,A,1140294492208257,14.01416,-2.508824,1.0730513,0.957894,3.2168522,2.0825357
1638,A,1140294542112737,15.651794,-2.5614965,-1.9556139,2.4247632,4.624067,2.675888
1638,A,1140294592017217,15.091551,-1.9581577,-2.3386862,1.9315457,3.566259,3.103059
1638,A,1140294641921697,9.062951,-0.643741,-1.3450924,1.1560332,2.0503876,3.4769669
1638,A,1140294691826177,7.7964187,-0.6628946,-1.4049475,0.68199056,1.5465176,3.5494049
1638,A,1140294741730657,8.265682,-0.42108023,-1.7521068,1.3349977,1.5688882,2.9613788
1638,A,1140294791644337,9.797971,-0.8879495,-1.7257705,2.798671,1.1044328,1.4114192
1638,A,1140294841558017,12.340613,-1.5966333,-1.6802807,2.597336,0.76141775,-0.052254148
1638,A,1140294891471697,12.623129,-0.13377602,-1.067365,-1.6828965,-0.0055726646,0.81700164
1638,A,1140294941385377,12.721292,3.8597524,-2.7816133,-5.3335576,-0.82263047,2.264696
1638,A,1140294991299057,9.223363,2.5740662,-0.06180033,-2.8451,-2.7859128,-0.631758
1638,A,1140295041212737,11.725304,-3.5239656,2.234239,0.23884054,-2.8658078,-4.4869504
1638,A,1140295091126417,10.85142,-0.4019266,0.393098,-0.037062947,-1.0804244,-3.6560438
1638,A,1140295141040097,8.550592,0.28281507,0.8096891,-1.5571953,-1.2423446,-1.8781173
1638,A,1140295190953777,7.9520416,0.41210195,3.6587892,-3.1380477,-2.4247882,-1.764134
1638,A,1140295240867457,10.664672,1.3314754,1.6356887,-4.0179563,1.0756707,-1.764134
1638,A,1140295290781137,13.391668,-0.70838445,-0.64359134,-3.0208685,1.6764798,-2.7260678
1638,A,1140295340694817,16.700455,-4.191948,0.65646017,-0.5228235,-1.4117217,-4.2664404
1638,A,1140295390608497,13.463494,-10.617986,1.8463784,1.622619,-1.2487363,-0.796874
1638,A,1140295440522177,13.0876045,0.5054758,-0.35868135,-0.9254935,0.86474836,3.02636
1638,A,1140295490435857,14.356531,-1.1824363,1.0131962,-1.4613215,2.5851505,2.9432695
1638,A,1140295540349537,16.432304,-4.2326493,-1.3235446,0.7341885,2.3039205,2.454313
1638,A,1140295590263217,11.548133,-3.9022496,-0.9979332,2.5419421,1.5007112,2.8122418
1638,A,1140295640176897,7.420529,-2.3268647,-0.7010522,3.3036063,0.59843224,3.4663143
1638,A,1140295690090577,7.276877,-0.84245974,0.057909753,2.355521,1.3718143,3.3608532
1638,A,1140295740004257,8.584111,-0.097862996,-1.3570634,1.7973224,1.902316,3.1850843
1638,A,1140295789917937,9.66629,0.22056583,-1.9436429,2.2362113,0.96381795,2.0122283
1638,A,1140295839835677,10.544962,-0.5790975,-0.20784664,2.5579212,-0.8513926,0.028705947
1638,A,1140295889753417,11.445182,-0.85682493,0.15846622,0.11100881,-1.6524714,-0.3228313
1638,A,1140295939671157,12.498631,2.703353,-0.9883564,-2.6416345,-1.0729676,1.2111495
1638,A,1140295989588897,10.544962,2.4591444,-0.63640875,-2.6405692,-1.8175875,0.040423855
1638,A,1140296039506637,11.129148,-1.6253637,0.64688337,-0.07541247,-2.7891085,-2.484253
1638,A,1140296089424377,9.71178,-2.1784244,1.8032827,-0.36090332,-2.3012176,-2.807028
1638,A,1140296139342117,8.538621,1.0992378,1.0443208,-1.906602,-1.1635151,-1.3785083
1638,A,1140296189259857,7.4013753,-0.14335282,1.2550106,-2.3082068,-1.3073258,-1.0536027
1638,A,1140296239177597,10.142736,-0.9501988,1.757793,-1.9683874,0.047690555,-1.3667904
1638,A,1140296289095337,12.752416,-0.6533178,0.3907038,-1.6019363,0.2682003,-1.9899701
1638,A,1140296339013077,12.656648,-1.3380594,0.5439327,-1.3089887,-0.9589843,-2.6269982
1638,A,1140296388930817,14.679749,-1.4888942,1.7673697,-1.5177805,-1.5512713,-3.166022
1638,A,1140296438848557,16.587927,-2.1425111,0.5966051,-1.6903534,-0.9302222,-1.8418984
1638,A,1140296488766297,14.483424,-6.2174425,2.030732,-0.12761042,0.16273911,0.112861834
1638,A,1140296538684037,13.2551985,-3.1648355,-0.95723176,1.433002,2.6852853,3.1019938
1638,A,1140296588601777,14.67496,-2.709937,-1.9412487,2.2074492,4.162807,3.4716406
1638,A,1140296638519517,10.374974,-2.0658967,-1.8095676,1.4809389,2.8344223,3.8455484
1638,A,1140296688437257,7.0590043,-0.27024552,-0.21981764,0.34643224,1.153435,3.960597
1638,A,1140296738354997,7.2122335,-0.100257196,-0.5885247,0.25695005,0.11480222,3.2063897
1638,A,1140296788272737,8.519467,-0.9789292,-1.3067852,2.3746958,-0.8801548,1.2601516
1638,A,1140296838197037,10.528203,-2.0251954,-1.8071734,4.1654053,-0.3123688,-0.5678421
1638,A,1140296888121337,14.404415,-0.9837176,-3.7416883,3.177905,-0.08866329,-0.42403144
1638,A,1140296938045637,13.750798,3.2372599,-3.4567783,-1.9534737,0.45249104,2.1027758
1638,A,1140296987969937,10.291177,6.34254,-2.9970915,-5.1535277,-1.0133128,2.7994587
1638,A,1140297037894237,9.347861,2.7249007,-1.6084546,-3.9668233,-1.4404838,-0.87250775
1638,A,1140297087818537,10.884939,-2.9182327,-1.067365,-0.8296197,0.06793058,-3.1425862
1638,A,1140297137742837,9.192238,-1.3955203,-0.04504092,-1.648808,-0.38374153,-3.282136
1638,A,1140297187667137,6.48679,0.06494272,5.0522146,-2.0014105,-0.15151389,-2.384118
1638,A,1140297237591437,8.5889,-2.7362733,-0.021098902,-0.83281547,-0.8503274,-3.323681
1638,A,1140297287515737,10.813112,-1.8719665,1.1472715,1.2955829,-1.3520669,-3.9468608
1638,A,1140297337440037,12.266393,-2.116175,2.5119665,0.9046308,-2.2479544,-4.64674
1638,A,1140297387364337,15.639823,-0.02124854,2.24621,-1.7468123,-1.9869645,-2.903967
1638,A,1140297437288637,17.351677,-2.674024,1.8248307,-0.9414725,0.22026339,0.33763263
1638,A,1140297487212937,14.354137,-2.8583775,0.07466917,0.11526987,1.9087075,3.6388872
1638,A,1140297537137237,15.608699,-1.7522564,-1.3929765,1.127271,4.2000914,4.1598015
1638,A,1140297587061537,17.366043,-2.7650037,-3.8997056,2.823172,4.7763996,3.9073336
1638,A,1140297636985837,14.232033,-1.3739725,-3.454384,1.1251405,2.3103123,3.8870938
1638,A,1140297686910137,10.197803,-1.2327147,-0.38501757,-1.0501294,-0.21010344,6.063429
1638,A,1140297736834437,12.790723,-3.9357684,-2.2357354,1.098509,1.1640877,7.7955484
1638,A,1140297786758737,14.533702,-9.741708,-1.0721534,4.614947,1.2738099,5.6788683
1638,A,1140297836683037,14.370896,-10.457574,0.3883096,5.5662284,2.659719,4.9555535
1638,A,1140297886610207,11.303924,-5.1735706,2.4018333,2.9584606,3.199808,4.395225
1638,A,1140297936537377,6.5274916,-3.7011366,4.345925,2.589879,2.801399,3.622908
1638,A,1140297986464547,1.3823522,-1.6900071,4.9444757,2.3097146,0.5888449,2.3595045
1638,A,1140298036391717,0.8939351,-0.71317285,5.068974,2.0934658,-0.61277336,0.9288544
1638,A,1140298086318887,0.31693244,0.78320324,6.2900167,1.477743,-1.1720372,-0.058645736
1638,A,1140298136246057,1.1405379,3.1726165,5.533449,0.4529587,-1.1241003,-0.2514586
1638,A,1140298186173227,-1.0286089,2.7584198,4.3076177,1.1815996,-1.1251656,0.06492494
1638,A,1140298236100397,-1.5218145,1.2333132,5.3251534,1.0537678,-0.7448662,-0.024557274
1638,A,1140298286027567,-1.7851766,2.5046341,7.3985324,1.3509766,-1.0836203,-0.80752665
1638,A,1140298335954737,0.9753379,5.626673,12.0361,2.448199,-0.46363637,-2.2094147
1638,A,1140298385881907,-2.2089503,3.048118,13.479804,-0.38220862,1.1001718,-0.3207008
1638,A,1140298435809077,0.3552397,4.5995607,11.576414,0.16001098,0.14889067,0.919267
1638,A,1140298485736247,-3.937564,2.4854805,11.365725,-0.016822923,-0.13873072,0.059598614
1638,A,1140298535663417,-3.5113962,3.4503438,10.142287,-0.63574153,-1.2817595,1.2718695
1638,A,1140298585590587,-2.347814,2.6243443,10.956316,-0.04025874,-0.6969293,0.27691257
1638,A,1140298635517757,-1.837849,1.0130466,9.036166,-0.62721944,0.593106,0.4612033
1638,A,1140298685444927,-0.8586206,2.2843678,7.479935,-0.7209627,0.81787676,0.7775868
1638,A,1140298735372097,-1.4811131,1.6738462,5.078551,-0.32788014,0.6634134,0.9171365
1638,A,1140298785299267,-1.8186954,3.084031,5.114464,-0.41097075,0.246895,0.5336413
1638,A,1140298835226437,-2.1395185,4.113538,7.953987,-0.26183373,0.17871808,0.43883276
1638,A,1140298885158847,-2.2783823,3.5963902,10.637887,0.023657126,-0.5552491,0.31313154
1638,A,1140298935091257,-0.9807249,2.8541877,12.809428,0.28571218,-0.05990115,-0.13641004
1638,A,1140298985023667,0.32890347,2.6458921,12.716054,0.34536698,0.03916844,-0.37929034
1638,A,1140299034956077,1.4948797,4.041712,11.092786,-0.22774528,-0.27614984,-1.203805
1638,A,1140299084888487,1.1692683,2.7679965,10.192566,-0.65065527,-0.42422158,-1.260264
1638,A,1140299134820897,1.2913725,1.1327567,10.060884,-1.3217719,-0.26656246,-1.4754474
1638,A,1140299184753307,1.4900913,0.9603742,7.4344454,-1.0533252,0.61015016,-1.240024
1638,A,1140299234685717,-2.1897967,-0.2463035,5.8039937,-0.8924703,-0.15257916,-1.018449
1638,A,1140299284618127,-3.3581672,0.7377134,5.3179708,-1.1726348,-0.25058347,-0.79580873
1638,A,1140299334550537,-2.1538837,1.4440029,8.574085,-1.6871575,0.56540906,-0.99927425
1638,A,1140299384482947,-1.6056116,1.8701708,11.514165,-0.9617125,0.7848535,-0.4037914
1638,A,1140299434415357,-2.3071127,-1.510442,13.331364,-2.4349732,0.3097456,-0.21737014
1638,A,1140299484347767,-5.824195,-3.7514148,10.159047,-2.1430907,-0.99200755,0.38130847
1638,A,1140299534280177,-6.1833253,-4.8288054,9.34023,-2.776923,-2.17019,-0.06929838
1638,A,1140299584212587,-2.8386254,-10.251673,8.760833,-3.7377915,-1.340349,1.8598955
1638,A,1140299634144997,-1.9192519,-8.439261,8.763227,-3.9252782,-1.292412,1.9941188
1638,A,1140299684077407,1.9425954,-10.029012,5.8877907,0.18664259,-0.06416221,1.0449682
1638,A,1140299734009817,-1.3063363,-8.614038,4.7696986,2.7954752,-0.23993084,1.5733393
1638,A,1140299783942227,-2.098817,-2.5375545,5.092916,3.2577999,-0.19732027,1.3506991
1638,A,1140299833874637,-2.297536,-0.72274965,4.891803,2.6804266,-0.6745587,0.21193142
1638,A,1140299883807047,-1.6726491,1.3003508,4.5039425,0.9621551,-1.8846991,-1.4956875
1638,A,1140299933741407,1.3608044,2.4328082,4.5302787,-0.46529925,-3.7723477,-2.6728046
1638,A,1140299983675767,6.130054,0.8526351,4.2693105,-3.4139512,-6.6134076,-3.8318124
1638,A,1140300033610127,11.258434,-1.3596073,-1.8047792,-4.4184957,-3.5582294,-5.063258
1638,A,1140300083544487,19.510649,-1.8839375,-7.3952403,-4.1330047,-2.9105487,-5.9303837
1638,A,1140300133478847,19.510649,-8.863035,-3.0449758,-1.0682389,-4.422159,-6.2531586
1638,A,1140300183413207,16.774675,-6.9093666,-1.7616836,-1.3782308,-3.5571642,-4.0469956
1638,A,1140300233347567,10.056545,-0.23193829,-2.0346224,-2.913277,-2.2575417,-0.56997263
1638,A,1140300283281927,13.061268,2.6841993,-3.5501523,-5.18229,0.0732569,0.85322064
1638,A,1140300333216287,14.643835,-1.6397289,-4.3641806,-5.2046604,0.649565,-0.5241663
1638,A,1140300383150647,13.39885,-3.0594904,-1.2277765,-4.375885,0.42266363,-2.2211325
1638,A,1140300433085007,12.18499,-4.7833157,-0.7226,-3.957236,0.7955062,-1.606475
1638,A,1140300483019367,11.96233,-9.191041,3.005172,-3.5119555,0.8658136,0.16932085
1638,A,1140300532953727,9.474754,-7.445668,3.7593455,-0.41416654,-0.46470162,1.7480427
1638,A,1140300582888087,7.6623435,-10.792762,6.2876225,4.545705,-1.5896208,2.4681616
1638,A,1140300632822447,13.836989,-9.65791,2.792088,7.06399,0.093496926,2.8623092
1638,A,1140300682756807,14.852131,-4.457704,0.5343559,9.350047,1.9278823,3.1062548
1638,A,1140300732691167,15.697284,-2.8104935,-1.565359,7.2578683,1.8969896,1.2612169
1638,A,1140300782625527,15.072397,5.4854155,-6.547693,10.7455435,4.057346,0.3802432
1638,A,1140300832559887,4.9688663,1.563713,-5.4128413,0.9397845,2.357184,-0.25252387
1638,A,1140300882494247,12.505814,10.5323925,-0.16475101,-6.8931046,0.4301205,2.6737576
1638,A,1140300932428607,11.457153,3.4264019,-0.1479916,-5.535958,1.8000505,1.1909094
1638,A,1140300982367387,12.8888855,-1.5415666,0.09382278,-2.336969,0.3523562,-0.58275586
1638,A,1140301032306167,11.438,1.5230116,1.9038392,-2.1292422,0.2799182,-1.7311109
1638,A,1140301082244947,10.901698,1.1878233,0.6157588,-1.592349,-1.1560582,-2.3585517
1638,A,1140301132183727,11.282376,0.1678934,1.925387,-1.3281634,-1.7739116,-2.4704044
1638,A,1140301182122507,11.593622,0.28281507,1.8990508,-1.6498733,-2.0444887,-2.5673435
1638,A,1140301232061287,7.8993692,1.2093711,2.0498855,-1.2791612,-1.9922909,-3.5388646
1638,A,1140301282000067,8.04781,0.0026934769,3.0841806,-1.5337595,-1.143275,-2.811289
1638,A,1140301331938847,8.457218,0.6084265,3.9317281,-2.168657,-0.4359395,-2.577996
1638,A,1140301381877627,12.752416,0.519841,5.155165,-3.4885197,0.2767224,-2.7036972
1638,A,1140301431816407,11.473912,-1.0148423,6.9867296,-2.0536084,-0.041791655,-2.1604125
1638,A,1140301481755187,11.414058,-3.5838206,10.084826,-1.7638565,0.947839,-0.32815763
1638,A,1140301531693967,10.336666,-5.1113214,9.567678,0.35495436,0.577127,0.5815782
1638,A,1140301581632747,9.034221,-2.628534,9.59641,1.2710818,1.519886,1.6095583
1638,A,1140301631571527,11.270405,-3.871125,9.22052,2.4663084,1.6029767,2.8282208
1638,A,1140301681510307,11.011831,-3.1624413,6.5222545,4.3241296,1.4005764,3.2681751
1638,A,1140301731449087,10.770017,-0.13377602,1.781735,8.307154,1.6519787,3.6282344
1638,A,1140301781387867,9.333496,-0.040402155,1.1496657,7.5050097,3.1049995,2.087862
1638,A,1140301831326647,10.889728,2.8996775,-0.36107555,0.6628158,2.6970031,1.2654779
1638,A,1140301881265427,9.778817,5.5117517,2.069039,-1.165178,2.112173,0.87772167
1638,A,1140301931204207,9.036615,4.9395375,2.17199,-2.2144635,0.92759895,-0.045862563
1638,A,1140301981142987,8.517074,1.6163855,2.8710968,-4.428083,-0.5605754,-0.36331135
1638,A,1140302031085207,10.257658,1.7193362,0.6061819,-5.8289056,0.004014715,0.38770005
1638,A,1140302081027427,11.73488,0.38576576,-2.7073932,-3.7271388,-0.086532764,0.37811267
1638,A,1140302130969647,9.208998,-1.084274,1.448941,0.74164563,-3.1768649,-0.66052014
1638,A,1140302180911867,9.33589,0.68982935,2.5143607,-1.2173756,-3.5337284,-2.1593473
1638,A,1140302230854087,10.834661,4.2308536,-0.07377134,-4.1852026,-1.9262444,-1.759873
1638,A,1140302280796307,8.758887,1.1399393,-0.37304655,-4.006238,-2.496161,-2.2498946
1638,A,1140302330738527,8.82832,-0.6748656,2.1648073,-1.2919441,-3.745716,-3.6443257
1638,A,1140302380680747,13.109152,-2.3484125,0.8527847,0.9142184,-2.6239927,-3.7156985
1638,A,1140302430622967,16.171335,0.22535424,3.4720414,-1.4826266,-2.7294538,-1.9995575
1638,A,1140302480565187,16.743551,0.36182374,6.3379006,-3.293576,0.432251,0.62099296
1638,A,1140302530507407,16.056414,-2.1329343,4.0059485,-2.8759923,1.8852717,0.43244117
1638,A,1140302580449627,13.650242,-4.194342,3.170372,-1.5071276,1.592324,0.7488247
1638,A,1140302630391847,11.198579,-4.4529157,3.6300588,-0.21496184,1.7425263,1.8002404
1638,A,1140302680334067,14.610316,-6.2174425,1.6213235,1.9304807,2.7193737,2.2668262
1638,A,1140302730276287,12.711715,-3.444957,0.75462246,3.0245073,2.5201693,2.7238247
1638,A,1140302780218507,9.848249,-1.4721348,0.07706337,5.3382616,1.9949939,3.1456695
1638,A,1140302830160727,9.939229,-3.5838206,2.148048,6.100991,1.8447917,2.1166239
1638,A,1140302880102947,8.507497,1.302745,-1.2972084,4.924939,1.741461,1.4433769
1638,A,1140302930045167,9.228151,0.4575918,-1.4456489,4.743844,-0.0013116068,0.7200623
1638,A,1140302979987387,11.30153,2.9331963,0.7091326,0.059876382,-0.5967944,0.4654641
1638,A,1140303029929607,10.5880575,4.187758,0.5511153,-3.7388566,-0.32089093,1.508358
1638,A,1140303079869947,11.172243,2.4519618,-0.20784664,-5.1556582,0.8008325,1.7416509
1638,A,1140303129810287,10.219351,1.5182232,-2.1495442,-5.0565886,0.1989581,0.88304776
1638,A,1140303179750627,7.9999256,-0.44023383,-0.18629882,-2.769466,-3.8884616,-0.60832244
1638,A,1140303229690967,10.961554,-1.7881694,-1.4600141,-1.0607818,-2.1914952,-1.4733171
1638,A,1140303279631307,9.6567135,-0.042796355,0.11776479,-0.8637079,-2.246889,-1.2975485
1638,A,1140303329571647,7.171532,1.9707273,2.6053405,-2.2730527,-1.9400929,-1.1675863
1638,A,1140303379511987,7.5474215,2.8398225,0.5989993,-3.1700053,-1.1954731,-1.367856
1638,A,1140303429452327,10.880151,-0.952593,0.35718498,-1.8629259,-1.2625847,-1.7108711
1638,A,1140303479392667,15.67813,0.5916671,3.2014966,-4.531413,-1.299869,-0.4304233
1638,A,1140303529333007,18.70919,-3.255815,1.3771149,-3.9124947,1.7467873,1.2015618
1638,A,1140303579273347,12.733262,-8.049006,-1.2277765,-3.4235382,2.1941984,3.0125113
1638,A,1140303629213687,13.463494,-7.2038536,-1.57733,-0.4589074,2.2996595,1.6063623
1638,A,1140303679154027,8.49792,-8.022671,-1.2421417,2.55153,0.46314368,0.658277
1638,A,1140303729094367,10.944794,-8.803181,-2.1878514,4.116403,-0.05457483,1.1685386
1638,A,1140303779034707,10.032603,-4.218284,-2.8247092,4.18245,0.17978334,1.85883
1638,A,1140303828975047,8.090905,-3.0810382,-0.7800608,4.9078946,0.24263395,1.822611
1638,A,1140303878915387,6.7142396,-2.829647,-1.3786112,5.340392,0.99151486,1.0183363
1638,A,1140303928855727,8.31596,-0.9262568,-2.0106804,5.6887336,1.1342603,0.38769978
1638,A,1140303978796067,9.855432,0.28520927,-1.0482115,3.8990893,1.0618223,-0.19499984
1638,A,1140304028736407,10.85142,2.3921068,-1.3714286,0.45722002,0.7592872,0.1714511
1638,A,1140304078681927,10.166678,2.5932198,-0.3107973,-2.1548083,-0.3997205,0.89796144
1638,A,1140304128627447,11.217732,1.860594,-0.9093477,-3.2957065,-0.7970641,0.8500246
1638,A,1140304178572967,9.89374,1.7097592,-0.43769,-3.285054,-1.8069348,-0.08527761
1638,A,1140304228518487,10.722133,0.8502409,-0.5957073,-2.7843797,-1.5725766,-1.2986138
1638,A,1140304278464007,11.581652,-0.41629183,-1.1631331,-2.0184546,-1.473507,-1.528711
1638,A,1140304328409527,8.28723,-0.5575497,-0.028281508,-1.4879528,-2.359807,-1.7470901
1638,A,1140304378355047,7.564181,-0.4091092,1.3100772,-1.4101886,-2.620797,-2.3489645
1638,A,1140304428300567,9.64953,-1.6445173,0.9365818,-0.8700995,-1.7440842,-2.5737352
1638,A,1140304478246087,11.892898,-0.14095862,0.2685995,-1.4911486,-1.1475362,-2.0688
1638,A,1140304528191607,13.712491,0.5366005,0.5223849,-1.6690478,-1.2764331,-1.2868959
1638,A,1140304578137127,16.04205,-0.7873931,1.8607436,-1.4101886,-0.9185043,-0.60193086
1638,A,1140304628082647,15.1178875,-2.2071548,1.7386394,-0.743333,0.72945976,0.13416685
1638,A,1140304678028167,14.95987,-3.0954034,2.363526,0.6883824,1.5539745,0.6859738
1638,A,1140304727973687,13.875297,-4.7713447,1.5016134,2.5632477,2.8269653,1.0066184
1638,A,1140304777919207,13.599963,-2.9517515,-0.8662521,3.1992106,3.5161915,1.5829265
1638,A,1140304827864727,10.786777,-1.2710218,-1.0458173,2.8008018,3.014452,2.088927
1638,A,1140304877810247,8.675091,-0.2534861,-0.5574001,1.9592428,2.8322918,2.2519126
1638,A,1140304927755767,9.268852,-0.16490065,-1.2038345,1.8250196,2.4541228,1.7054319
1638,A,1140304977701287,9.759664,-0.3636194,-1.136797,1.8079753,2.2336133,1.0055531
1638,A,1140305027646807,10.427647,-0.37319618,-1.9484313,1.2071662,2.104716,0.47611675
1638,A,1140305077592327,11.670237,0.045789108,-1.1918635,-0.13932806,0.8498347,0.8787867
1638,A,1140305127541437,10.336666,1.9372084,-1.3833997,-3.523673,0.76567876,1.8087626
1638,A,1140305177490547,9.295189,3.6730046,-2.8797758,-3.10822,-1.5683156,1.1770607
1638,A,1140305227439657,8.04781,0.4671686,1.3938743,-0.5281496,-3.914028,-1.831246
1638,A,1140305277388767,10.875362,-1.3045406,1.2526164,-0.14998071,-2.8967004,-3.0776055
1638,A,1140305327337877,10.008661,2.5980082,-0.054617725,-2.8610787,-1.8346317,-1.8536166
1638,A,1140305377286987,7.9640126,2.2843678,0.36436757,-3.0485651,-1.453267,-0.75958997
1638,A,1140305427236097,7.920917,-0.21039048,0.031573534,-1.8991449,-1.8591328,-1.569191
1638,A,1140305477185207,12.295123,-2.8224645,-0.10010756,1.0111575,-1.9965519,-3.092519
1638,A,1140305527134317,14.873679,-2.86556,1.8822914,3.2780402,-1.8985475,-2.2030232
1638,A,1140305577083427,15.625458,-0.9430162,5.51669,-0.64532864,-0.23886557,0.16825531
1638,A,1140305627032537,15.855302,5.1334677,4.192696,-3.4373868,1.1108245,1.2377808
1638,A,1140305676981647,16.511312,-1.0052655,2.0618565,-2.0557387,1.6967199,0.5485547
1638,A,1140305726930757,12.031761,-4.857536,2.6819549,0.843911,1.4421217,0.18849534
1638,A,1140305776879867,12.778752,-4.407426,0.17283143,2.6303594,2.26131,0.6359064
1638,A,1140305826828977,11.564892,-1.6852187,-0.94047236,2.0423334,2.7087212,1.1791912
1638,A,1140305876778087,7.8658504,-0.48332947,-0.10250176,1.250842,2.4402745,1.9440511
1638,A,1140305926727197,6.4676366,-0.18644845,0.2829647,1.1070313,2.0226908,1.931268
1638,A,1140305976676307,7.303213,-0.4091092,-0.09053075,1.617293,1.7957895,1.0769259
1638,A,1140306026625417,9.106047,-0.6820482,-0.41135377,1.4447201,1.5220165,0.25241122
1638,A,1140306076574527,10.887333,-0.3875614,-1.5725416,0.3315188,1.0980413,0.2406933
1638,A,1140306126523637,9.496302,0.79038584,-0.5526117,-1.7968795,-0.25164875,1.1685386
1638,A,1140306176469227,10.726921,1.6187797,-1.5126866,-1.9609302,-1.4617891,0.93204993
1638,A,1140306226414817,10.695797,0.5030816,0.75462246,0.14190175,-3.3377197,-0.25571993
1638,A,1140306276360407,12.773964,-0.6461352,0.6851906,0.6841213,-3.140646,-1.1686516
1638,A,1140306326305997,12.285546,1.6666636,-0.66513914,-1.2738347,-1.3254353,-0.51564443
1638,A,1140306376251587,8.756494,2.5932198,-0.34192193,-2.4658656,-1.3083911,-0.21310934
1638,A,1140306426197177,8.222587,1.8414404,1.4297873,-3.245639,-1.2732373,-1.166521
1638,A,1140306476142767,8.794801,-0.13377602,-0.425719,-2.6789184,-0.9962686,-2.4927752
1638,A,1140306526088357,10.758046,-0.74908584,-0.0067336923,-2.0269766,-1.6886904,-3.301311
1638,A,1140306576033947,13.324631,-1.4314333,0.010025719,-0.7614425,-3.1917787,-3.7156987
1638,A,1140306625979537,17.41632,-2.9780877,2.9070098,0.12698804,-2.866873,-2.5534954
1638,A,1140306675925127,14.698902,-3.588609,1.0754455,-0.27142087,-0.2441919,0.12244895
1638,A,1140306725870717,14.574404,0.6323685,1.2813468,-0.7081793,1.5539745,2.205041
1638,A,1140306775816307,14.94311,-1.9820998,-0.7226,0.251624,4.4951696,2.7568479
1638,A,1140306825761897,14.667777,-3.6053684,-3.071312,1.7003835,4.9383197,2.5896013
1638,A,1140306875707487,11.708544,-2.5495255,-2.218976,2.3640432,3.3233786,2.9699008
1638,A,1140306925653077,9.015067,-1.3811551,-0.95244336,2.4524603,1.6296083,3.325699
1638,A,1140306975598667,8.24174,-0.74190325,-0.95004916,2.4918752,1.262092,2.7568479
1638,A,1140307025544257,9.932047,-0.83048874,-1.7449241,3.0522041,1.2620922,1.4188758
1638,A,1140307075489847,10.212168,-0.72993225,-1.067365,2.9957452,1.2578312,0.10646998
1638,A,1140307125435437,11.399693,-0.20320787,-1.5940894,1.2582989,0.99044985,0.15547214
1638,A,1140307175381027,10.810719,1.503858,-0.6938696,-1.0192364,0.3033543,1.0843828
1638,A,1140307225326417,11.253646,2.0545244,-1.8670284,-2.4616046,-0.6756237,1.3315241
1638,A,1140307275271807,11.399693,2.9475615,-0.8087913,-2.258139,-3.235454,0.116057366
1638,A,1140307325217197,11.3206835,-0.26785132,0.18480244,-1.7361594,-3.121471,-1.3561381
1638,A,1140307375162587,11.538556,0.25887305,-1.6371851,-1.4112538,-1.2444749,-1.3199191
1638,A,1140307425107977,7.918523,1.0154408,-1.2253823,-2.0855663,-1.1486012,-0.9545334
1638,A,1140307475053367,7.3223667,0.8358757,-0.33473933,-2.708746,-1.4649847,-1.6171279
1638,A,1140307524998757,9.884163,-0.71077865,-0.27727848,-1.8064669,-1.9635284,-3.0296686
1638,A,1140307574944147,12.534544,-1.3763667,0.012419921,-1.146003,-2.7656724,-3.5931933
1638,A,1140307624889537,14.859314,-0.58867437,0.4002806,-0.88288265,-3.7094967,-2.97534
1638,A,1140307674834927,18.201618,0.8526351,1.8152539,-2.342295,-1.841023,-1.315658
1638,A,1140307724780317,15.697284,-1.0100539,0.6037877,-1.8650564,0.21174155,0.3067397
1638,A,1140307774725707,13.508984,-2.0874445,0.6205472,-0.82003206,1.8969898,1.7491077
1638,A,1140307824671097,10.470742,-2.3867197,0.065092355,1.0367239,2.7342877,1.8204805
1638,A,1140307874616487,17.380407,-4.8910546,-2.3889644,2.9328945,4.790248,1.3720042
1638,A,1140307924561877,12.955923,-2.7793689,-2.1184196,3.6231859,3.472516,2.0441859
1638,A,1140307974507267,9.443629,-0.3875614,-0.4640262,3.1693833,2.2570493,2.8953323
1638,A,1140308024452657,10.846631,0.36661214,-0.84949267,2.4780266,2.851467,2.608776
1638,A,1140308074398047,12.417228,0.44083238,-2.2261586,2.318237,3.222179,1.7544341
1638,A,1140308124343437,10.944794,0.2995745,-1.2517185,1.9496555,2.7854204,0.868134
1638,A,1140308174288827,11.715727,0.82629883,-1.3857939,0.22925343,2.2123082,0.60181797
1638,A,1140308224234217,10.097246,1.6499043,-1.2325649,-2.3039453,1.559301,1.2985009
1638,A,1140308274180237,8.952818,2.5932198,-1.8311154,-3.4256687,0.35022593,1.697975
1638,A,1140308324126257,8.964789,2.5309706,-0.8135797,-1.702071,-2.5845776,-0.21523987
1638,A,1140308374072277,9.462783,-2.0347722,0.8575731,-0.43653685,-4.0344024,-2.837921
1638,A,1140308424018297,11.102811,-0.6772598,-0.7776666,-0.7465288,-2.9190707,-2.4469688
1638,A,1140308473964317,10.904093,1.4176667,-2.1327848,-1.9630607,-1.9912252,-1.4711866
1638,A,1140308523910337,8.3829975,0.5054758,-1.6730981,-2.5404341,-2.566468,-1.4019444
1638,A,1140308573856357,11.16506,-0.8089409,0.1249474,-1.9822356,-3.9129624,-2.2562866
1638,A,1140308623802377,13.947123,-0.5431845,-1.1224316,-2.4509518,-3.134254,-2.9700136
1638,A,1140308673748397,15.474624,0.0026934769,0.08424597,-2.5457604,-3.1726036,-2.4821227
1638,A,1140308723694417,17.947834,-0.5000889,1.4202105,-2.2773137,-2.2649982,-1.4456203
1638,A,1140308773640437,16.753128,-2.389114,1.2693758,-1.6807657,-0.4433961,-0.111909226
1638,A,1140308823586457,15.371673,-2.1640592,0.9461586,-0.7976615,1.4005766,1.2473682
1638,A,1140308873532477,12.249634,-3.3060932,0.46013564,0.4273926,2.9430795,1.7512382
1638,A,1140308923478497,14.447511,-3.492841,-2.2141876,1.7121015,4.7231364,2.0697522
1638,A,1140308973424517,13.23365,-3.0044239,-2.8318918,2.1936011,4.238441,2.141125
1638,A,1140309023370537,9.898528,-1.8983027,-1.4600141,1.8260849,2.44134,2.8324816
1638,A,1140309073316557,8.450036,-1.1728595,-0.66753334,1.9762871,1.3462481,3.2181075
1638,A,1140309123262577,10.300754,-1.0746973,-1.5845126,2.9541998,1.256766,2.3935926
1638,A,1140309173208597,12.922404,-0.74190325,-1.0458173,2.9573956,2.0354743,1.1887786
1638,A,1140309223154617,13.312659,-0.13377602,-1.7856256,1.5970529,2.0216258,0.72112757
1638,A,1140309273100637,11.806706,1.5996261,-0.6100725,-0.011496333,1.5071031,1.4050273
1638,A,1140309323047227,10.085276,2.2795794,-0.6076783,-1.4858223,0.9318603,1.7778698
1638,A,1140309372993817,8.866627,3.4599206,-0.66035074,-2.5787835,-0.47961506,1.327263
1638,A,1140309422940407,8.586505,2.715324,-0.36825815,-2.6863754,-2.3065436,-1.1729126
1638,A,1140309472886997,10.76044,-0.87358433,0.5271733,-1.5444119,-2.191495,-3.063757
1638,A,1140309522833587,11.433211,-0.12180501,-1.6347909,-1.2152451,-1.4202435,-2.5577564
1638,A,1140309572780177,8.289624,0.7137714,-0.6890812,-1.5092582,-2.143558,-2.2062192
1638,A,1140309622726767,8.806771,0.005087679,-0.03546411,-1.2152451,-3.5124228,-2.688784
1638,A,1140309672673357,11.686996,-0.72753805,0.5008371,-1.2450725,-3.4815302,-3.5420606
1638,A,1140309722619947,15.1657715,-0.5575497,-0.7800608,-1.6051319,-3.0383801,-3.2267425
1638,A,1140309772566537,16.164154,-0.3684078,0.76419926,-1.5859572,-2.8253274,-1.9217935
1638,A,1140309822513127,16.540043,-1.297358,1.6261119,-1.311119,-0.954723,-0.32602736
1638,A,1140309872459717,14.277522,-1.3141174,0.16564883,-1.2599863,0.76035273,1.125928
1638,A,1140309922406307,14.143447,-1.8240824,0.99404263,-0.71350557,1.7318739,1.8130236
1638,A,1140309972352897,11.904869,-3.3252468,0.25902268,1.1890566,2.9057953,1.790653
1638,A,1140310022299487,13.60954,-4.311658,-2.2213702,3.087358,3.7814426,1.8034362
1638,A,1140310072246077,12.625524,-2.743456,-2.693028,3.7211902,3.2839642,2.104906
1638,A,1140310122192667,10.200197,-0.28221652,-1.2038345,2.2181022,2.6032603,2.9049196
1638,A,1140310172139257,8.557775,0.57490766,-1.0362405,1.1507071,2.2250912,2.917703
1638,A,1140310222085847,10.477924,-0.15532383,-1.4648025,1.9208933,1.9662321,2.0697522
1638,A,1140310272032437,11.021408,-0.43783963,-1.2277765,2.25006,1.6296085,0.662538
1638,A,1140310321979027,12.11077,-0.59825116,-1.091307,1.1475114,0.80189806,0.12671001
1638,A,1140310371931537,11.244069,1.1614871,-1.5150808,-2.1548083,1.2077638,0.96400785
1638,A,1140310421884047,11.636718,3.6921582,-4.412065,-3.2062244,-0.4306129,1.4881179
1638,A,1140310471836557,10.140342,1.1926117,0.725892,-1.1651777,-3.8788738,-0.97370815
1638,A,1140310521789067,10.64073,-1.7738042,0.5367501,-1.0352155,-3.073534,-2.777201
1638,A,1140310571741577,10.092458,0.6060323,-1.2110171,-1.057586,-1.5651195,-1.7353722
1638,A,1140310621694087,7.8921866,1.515829,-1.3211504,-1.8362943,-1.3659151,-1.2133926
1638,A,1140310671646597,8.232163,1.5134348,1.0898107,-2.487171,-2.1882992,-1.8813134
1638,A,1140310721599107,10.164284,-1.0507553,-0.2653075,-1.4133843,-2.240497,-3.3961194
1638,A,1140310771551617,14.145842,-2.3915083,-0.19348143,-0.098848015,-2.6655376,-3.2704182
1638,A,1140310821504127,14.454694,-0.5288193,1.4872482,-0.3236188,-3.2844563,-2.0155368
1638,A,1140310871456637,15.888821,1.1255741,1.7123032,-1.6040666,-0.9163735,-0.38994324
1638,A,1140310921409147,14.708479,-0.8783727,-0.73935944,-1.2003314,1.1715448,0.51979256
1638,A,1140310971361657,15.737986,-2.695572,-0.018704701,0.36028096,2.27942,1.2409766
1638,A,1140311021314167,14.828189,-3.6412816,-0.7896376,2.1435337,3.5268445,1.5030316
1638,A,1140311071266677,15.83136,-3.2127194,-3.7177463,3.5337036,4.9457765,1.9025058
1638,A,1140311121219187,12.292729,-1.5966333,-3.035399,2.8796313,4.1702642,2.5342076
1638,A,1140311171171697,10.226533,0.8789713,-1.3690344,0.99198276,3.149741,3.2980022
1638,A,1140311221124207,9.388563,0.06494272,-1.7185879,0.6755992,2.6075213,3.12756
1638,A,1140311271076717,9.292794,-0.9573814,-2.2213702,1.5246149,2.2858114,2.3286116
1638,A,1140311321029227,9.256882,-1.177648,-1.0338463,2.5472689,1.0181468,1.0513595
1638,A,1140311370981737,10.532991,-0.9909002,-0.74654204,1.7770827,0.89777184,0.26945543
1638,A,1140311420937727,10.465954,1.740884,-0.63401455,-1.5305634,0.982993,0.73923707
1638,A,1140311470893717,8.715792,4.2883143,-1.4576199,-3.1678748,-0.289998,1.060947
1638,A,1140311520849707,9.781212,3.2683847,0.76659346,-1.6690478,-3.830937,-1.146281
1638,A,1140311570805697,11.145906,-1.6732477,0.2805705,-0.84346783,-5.0123153,-4.1375437
1638,A,1140311620761687,13.480253,-1.2758102,-1.778443,-0.2128313,-3.609362,-3.5495176
1638,A,1140311670717677,12.467506,0.4647744,-2.6235962,-1.4091233,-2.5632722,-1.6789132
1638,A,1140311720673667,9.9512005,1.5182232,-1.5462054,-4.0328693,-1.9123957,-0.940685
1638,A,1140311770629657,10.839449,-0.28939912,-1.7832314,-5.071502,-1.4351573,-1.2059358
1638,A,1140311820585647,13.611935,-1.4817116,-3.466355,-4.5441966,-0.7065164,-1.9430988
1638,A,1140311870541637,14.196119,-3.4497454,-2.5374048,-1.6967447,-2.376851,-2.6983712
1638,A,1140311920497627,13.604752,-5.6811414,2.2366333,1.7238194,-5.184888,-2.991319
1638,A,1140311970453617,14.24161,-4.098574,1.7194858,2.4279592,-2.7891083,-1.7417638
1638,A,1140312020409607,18.783411,-0.33010057,1.7170916,1.5097013,1.6168253,0.61034006
1638,A,1140312070365597,16.104298,0.42407298,1.7123032,1.544855,4.821141,1.8812006
1638,A,1140312120321587,16.59032,-0.6868366,-3.6507087,2.9126546,8.3951025,1.8236762
1638,A,1140312170277577,17.409138,-1.4194623,-4.333056,2.725168,7.2297034,1.6447119
1638,A,1140312220233567,12.699743,0.2995745,-1.9891326,0.70542663,3.9966261,2.9070501
1638,A,1140312270189557,8.794801,-0.15292963,-1.0984896,0.04283215,2.192068,3.002924
1638,A,1140312320145547,10.758046,-1.2111667,-2.0489876,2.1744263,1.7105685,2.0580344
1638,A,1140312370101537,10.9543705,-2.6524763,-1.2301707,3.4697878,2.026952,0.14801529
1638,A,1140312420057527,12.211327,-1.2231377,-2.1256022,1.7802784,2.840814,-0.39953062
1638,A,1140312470011997,10.200197,1.6882114,-1.6300025,-1.6605257,2.7545278,1.0833175
1638,A,1140312519966467,7.2457523,2.988263,-1.148768,-2.7343123,0.77207065,2.527816
1638,A,1140312569920937,7.5378447,1.5589246,-0.24854806,-0.6261539,-2.4716597,1.1632123
1638,A,1140312619875407,7.2625117,-1.0770915,0.9581296,-0.42375368,-4.686344,-1.863204
1638,A,1140312669829877,9.309554,-0.20560206,-0.48796824,-1.6999404,-5.0378814,-2.8986409
1638,A,1140312719784347,11.749246,1.0585364,-2.2285528,-2.8450997,-3.835198,-2.5513647
1638,A,1140312769738817,12.678196,0.27084407,-3.0449758,-3.9061031,-3.0021613,-2.2850487
1638,A,1140312819693287,13.152247,-1.153706,-3.1144075,-3.9700189,-2.944637,-2.3681393
1638,A,1140312869647757,14.344561,-3.006818,-1.3905823,-1.7553343,-4.580883,-2.2530906
1638,A,1140312919602227,15.826571,-3.219902,0.6061819,0.2654724,-4.999532,-1.984644
1638,A,1140312969556697,17.65574,0.69222355,2.7298388,-0.87116474,-2.4066784,-0.46770754
1638,A,1140313019511167,15.211261,3.4934394,0.67321956,-2.6863754,0.10734563,-0.027753334
1638,A,1140313069465637,15.544055,-1.0794857,-0.9021651,-1.6615909,2.8578584,0.5996874
1638,A,1140313119420107,13.70052,-4.3571477,0.5343559,-0.045584794,2.8131173,1.1387112
1638,A,1140313169374577,12.773964,-3.5910032,-0.23657705,1.5618992,2.9910164,2.0548387
1638,A,1140313219329047,15.54645,-2.7673979,-2.846257,2.5227678,4.0232577,2.4702919
1638,A,1140313269283517,14.057256,-2.2622213,-3.5788827,3.0830967,3.9327102,2.4639
1638,A,1140313319237987,11.849802,-1.4769232,-2.7097874,2.817846,3.1007388,2.6460605
1638,A,1140313369192457,10.578481,-0.23433249,-2.0106804,2.173361,2.4999294,2.636473
1638,A,1140313419146927,10.204986,0.005087679,-1.826327,2.1563168,2.4296222,1.9280722
1638,A,1140313469107897,11.287165,0.21577743,-1.0889128,1.6950573,2.6000643,0.8819825
1638,A,1140313519068867,10.367791,0.4504092,-1.6874633,0.2697335,2.0312133,0.36213344
1638,A,1140313569029837,9.237728,0.76883805,-0.63162035,-0.6240234,0.25009108,0.56559896
1638,A,1140313618990807,9.525032,0.38097733,-0.0043394906,-0.40883997,-1.6503407,0.47505146
1638,A,1140313668951777,10.001478,0.8334815,-0.5741595,-0.89353526,-2.8104136,-0.31537473
1638,A,1140313718912747,9.671079,0.7472902,-0.2605191,-1.2898136,-3.6967137,-1.2091316
1638,A,1140313768873717,11.119571,0.5102642,-0.92131877,-2.5894363,-2.788043,-1.5223193
1638,A,1140313818834687,11.277588,0.2923919,-2.3650224,-3.5950458,-1.7856293,-1.5180583
1638,A,1140313868795657,9.153931,-0.5623381,-2.0705357,-3.4128857,-2.2096045,-1.9580125
1638,A,1140313918756627,9.809942,-1.8001404,-0.53824645,-1.8639911,-3.7041705,-2.7281988
1638,A,1140313968717597,12.999019,-1.9054853,-0.53106385,-1.4421464,-3.1523635,-2.8656178
1638,A,1140314018678567,14.208091,-0.7849989,-0.35628715,-1.0639776,-3.7201495,-2.2893097
1638,A,1140314068639537,18.524836,-0.31812954,1.9493291,-1.0320196,-2.5238576,-1.0653208
1638,A,1140314118600507,17.1362,-0.3923498,0.8096891,-1.1491988,-0.037530333,0.17997323
1638,A,1140314168561477,15.225626,-0.9693524,0.6013935,-0.7571814,1.9076425,1.3198062
1638,A,1140314218522447,13.362938,-2.4082677,0.010025719,1.089987,3.4426885,1.3283283
1638,A,1140314268483417,15.606304,-3.8328176,-2.6666918,2.7475386,5.2184844,1.1685386
1638,A,1140314318444387,15.196896,-2.5614965,-3.9739258,3.389893,4.939385,1.4891832
1638,A,1140314368405357,11.672631,-0.9382278,-2.8773816,2.4652436,3.517257,2.519294
1638,A,1140314418366327,10.166678,0.069731124,-1.9029415,1.2433852,2.6906118,2.7909362
1638,A,1140314468327297,9.168296,-0.6964134,-1.9651906,0.9312627,1.9960594,2.499054
1638,A,1140314518292057,11.143513,-1.2901754,-0.782455,1.7216889,1.0671489,1.7970446
1638,A,1140314568256817,11.655871,-2.0347722,-0.052223526,0.8854563,2.0365396,1.1248628
1638,A,1140314618221577,12.199355,-0.73711485,-2.71697,-0.57395595,3.1816988,1.9568343
1638,A,1140314668186337,9.539397,1.1495161,-2.300379,-1.7926185,2.3017902,2.9208987
1638,A,1140314718151097,9.302371,1.5804724,-1.4049475,-0.9798217,-1.321174,1.4998358
1638,A,1140314768115857,8.852262,-0.8999206,1.1807903,-0.46423373,-4.330546,-1.6629342
1638,A,1140314818080617,9.2904005,-1.0052655,0.5487211,-0.64319813,-4.243194,-2.7356555
1638,A,1140314868045377,10.872968,1.587655,-2.2285528,-1.9321681,-2.1201222,-1.863204
1638,A,1140314918010137,9.199421,1.7001824,-2.3578398,-3.5566964,-1.232757,-1.6703911
1638,A,1140314967974897,10.664672,0.27084407,-2.4536078,-4.05524,-1.7749766,-2.7228723
1638,A,1140315017939657,13.317448,-2.2239141,-1.8981531,-3.0730662,-3.1576898,-4.24407
1638,A,1140315067904417,17.880796,-3.19596,-2.7600656,-0.34385884,-3.9726171,-4.700003
1638,A,1140315117869177,18.438644,-3.7801452,0.49365446,1.0399196,-4.7119107,-3.3162246
1638,A,1140315167833937,17.818546,-1.2758102,1.5494974,-0.9350806,-1.793086,-1.0834304
1638,A,1140315217798697,15.72362,-0.28700492,1.046715,-2.093023,0.71348107,1.0481638
1638,A,1140315267763457,13.597569,-1.6612767,2.5598505,-1.1332197,1.5699537,1.4913137
1638,A,1140315317728217,13.451523,-5.152023,1.8679262,1.307301,3.061324,1.4369853
1638,A,1140315367692977,14.1865425,-4.2374377,-1.328333,2.9573956,4.363077,1.6234065
1638,A,1140315417657737,14.55525,-2.5710733,-2.9635727,3.4559393,4.347098,2.2061062
1638,A,1140315467622497,13.291111,-0.018854339,-2.633173,1.9134365,4.250159,3.0444694
1638,A,1140315517587257,12.146683,0.20620061,-2.9276597,1.089987,3.7324405,2.954987
1638,A,1140315567552347,13.018172,-0.5431845,-2.6499324,1.9475249,3.017648,2.141125
1638,A,1140315617517437,13.647847,-0.74429744,-2.0729299,1.7397984,2.4402747,0.8968962
1638,A,1140315667482527,12.417228,-0.19123685,-2.0034978,-0.2788777,2.7705066,1.1344502
1638,A,1140315717447617,9.728539,2.0281882,-2.2572832,-2.0227156,1.8138993,2.1081018
1638,A,1140315767412707,8.560169,1.8174983,-1.8742111,-1.6551993,-0.6394047,1.2995661
1638,A,1140315817377797,8.610447,0.06254852,0.15367782,-0.9052532,-2.9425063,-0.86079013
1638,A,1140315867342887,9.144354,-0.91668,-0.49036244,-0.46956003,-3.9672909,-2.7005017
1638,A,1140315917307977,11.088446,-0.60064536,-1.6395793,-0.6762213,-3.242911,-2.4459035
1638,A,1140315967273067,10.691009,0.39055416,-2.4368484,-1.5795655,-2.8828516,-1.9015535
1638,A,1140316017238157,9.132383,-0.3636194,-1.5845126,-1.943886,-3.488987,-2.097562
1638,A,1140316067203247,11.900081,-1.6828245,-0.8901941,-1.0597166,-4.939877,-2.9007714
1638,A,1140316117168337,14.844949,-1.7211318,-0.7249942,-1.814989,-4.278348,-2.4086194
1638,A,1140316167133427,16.899174,0.1726818,-0.25573066,-1.5710435,-3.7244105,-0.96731657
1638,A,1140316217098517,17.564762,0.35703534,1.0155904,-1.190744,-1.7398229,-0.151324
1638,A,1140316267063607,15.850513,0.07212532,-0.16475101,-1.35586,0.8690097,-0.035210185
1638,A,1140316317028697,16.434698,-2.2023664,-0.21263504,-0.707114,2.6682413,0.4835736
1638,A,1140316366993787,15.010148,-2.9158385,-0.7130232,0.6393802,4.077586,1.657495
1638,A,1140316416958877,13.645453,-1.8743607,-2.645144,1.5927919,4.9574947,2.4702919
1638,A,1140316466923967,13.657424,-2.173636,-3.4926913,2.29054,4.6347194,2.2689567
1638,A,1140316516889057,11.102811,-1.7211318,-2.5805006,1.8569775,3.3457494,2.3051758
1638,A,1140316566854147,9.654319,-0.7012018,-1.8406922,1.0324628,2.3742282,2.3658957
1638,A,1140316616821777,9.618406,-0.44741645,-1.304391,1.6354024,1.6668928,1.967487
1638,A,1140316666789407,9.414899,-1.2207435,-0.8806173,1.4798739,1.8788804,0.99063945
1638,A,1140316716757037,10.037392,-0.43783963,-1.4169185,0.54350644,2.3028557,0.7019528
1638,A,1140316766724667,9.855432,0.23253684,-1.9053357,-0.77422565,1.4357303,1.0034226
1638,A,1140316816692297,8.244134,0.6251859,-0.8758289,-1.1204365,-0.68095005,0.8404372
1638,A,1140316866659927,10.748469,0.3115455,-0.23418285,-0.007235276,-3.585926,-0.3675727
1638,A,1140316916627557,9.199421,0.9220669,1.4561236,-1.3281631,-4.870635,-2.0474946
1638,A,1140316966595187,11.746851,0.8717887,-0.95483756,-2.205941,-3.3164144,-2.0592127
1638,A,1140317016562817,12.692561,0.42646718,-1.9292777,-2.133503,-1.7227787,-1.3572034
1638,A,1140317066530447,10.121188,0.024241293,-1.5342344,-2.6277857,-1.397873,-1.0312325
1638,A,1140317116498077,9.821913,-0.62698156,-0.94526076,-2.4978235,-1.7014734,-1.5926268
1638,A,1140317166465707,11.574469,-2.530372,-1.5557822,-1.0639776,-1.9113305,-2.1178021
1638,A,1140317216433337,12.979865,-2.1568766,-0.48557404,-0.3236188,-2.7816515,-2.0144715
1638,A,1140317266400967,12.948741,-1.2710218,0.3954922,-0.19472182,-2.6655376,-1.3944876
1638,A,1140317316368597,15.053244,0.5054758,0.49126026,-1.0810218,-1.3265003,-0.6722383
1638,A,1140317366336227,14.354137,-0.5407903,-0.09771336,-1.0671734,0.1201288,-0.27063364
1638,A,1140317416303857,13.379697,-1.5535376,1.934964,-0.11589225,0.6442389,0.1149921
1638,A,1140317466271487,12.831425,-3.7633858,0.45055884,1.4937226,2.5159085,0.76160735
1638,A,1140317516239117,13.987824,-2.3939025,-2.2117934,2.5078542,4.5867825,1.4849219
1638,A,1140317566206747,12.876915,-1.510442,-3.2413,2.6250334,5.0373893,2.0782743
1638,A,1140317616174377,9.378986,-0.13856442,-1.601272,1.455373,3.7995522,2.4138324
1638,A,1140317666143567,8.354267,0.23253684,-1.0338463,0.53818035,2.5521276,2.431942
1638,A,1140317716112757,9.295189,-0.72993225,-1.5462054,1.6322069,1.8234866,1.4902482
1638,A,1140317766081947,10.810719,-1.3141174,-1.340304,2.0849442,1.7350696,0.20447405
1638,A,1140317816051137,11.73488,-0.9358336,-2.1279964,0.28677797,1.4634273,-0.25678545
1638,A,1140317866020327,11.742063,0.23014264,-1.601272,-2.6064801,1.1054984,0.9757255
1638,A,1140317915989517,11.5912285,1.7480665,-4.5844474,-3.6909194,-0.35817492,1.6681473
1638,A,1140317965958707,11.028591,0.9555858,-0.023493104,-0.6208273,-4.418963,0.26306358
1638,A,1140318015927897,11.081264,-1.996465,0.37873277,-0.62615365,-3.2684774,-1.6671956
1638,A,1140318065897087,10.13316,1.4224551,-2.2453122,-2.0770438,-0.9952031,-1.0195148
1638,A,1140318115866277,7.164349,3.2635963,-2.3985412,-2.5564127,-0.7683017,-1.0120579
1638,A,1140318165835467,8.263288,0.8430583,1.1185411,-1.5976748,-2.553685,-3.2832017
1638,A,1140318215804657,10.456377,-2.4800937,0.15367782,0.17918627,-3.4666166,-5.264593
1638,A,1140318265773847,15.194502,-3.0475194,0.32606035,1.9858748,-5.160387,-4.6616535
1638,A,1140318315743037,18.32133,1.2716204,2.9046156,-1.1928743,-2.3385015,-0.3601161
1638,A,1140318365712227,15.192107,6.8118033,-0.23897126,-4.036065,1.0905848,2.2124975
1638,A,1140318415681417,14.732421,-0.21996728,-3.0880713,-2.803554,4.463212,2.7025192
1638,A,1140318465650607,15.30703,-5.2573676,-2.2046108,0.17918627,4.3822517,1.2857175
1638,A,1140318515619797,12.278364,-5.626075,-0.8255507,2.143534,2.3550537,1.0087487
1638,A,1140318565588987,11.368567,-2.9780877,-1.3331214,3.3408911,1.4304041,1.8780044
1638,A,1140318615558177,11.493066,-1.5631144,-1.9771616,3.3920238,1.8032466,2.2252808
1638,A,1140318665527367,10.872968,-0.13138182,-1.2469301,1.9496558,2.8056605,2.1357985
1638,A,1140318715497597,8.672696,0.43843818,-1.115249,1.1666864,2.6693065,1.783196
1638,A,1140318765467827,8.794801,0.09127894,-0.62443775,1.197579,2.691677,1.1759952
1638,A,1140318815438057,9.323919,0.06494272,-0.6962638,0.16533783,1.6296085,0.47718173
1638,A,1140318865408287,10.257658,0.43364978,-0.5861305,-1.7287023,1.8937941,0.9043528
1638,A,1140318915378517,7.375039,2.322675,-0.37544075,-2.645895,-0.03007348,1.251629
1638,A,1140318965348747,8.160337,0.98910457,0.76180506,-0.8551855,-1.5097258,0.11925289
1638,A,1140319015318977,11.5672865,-0.27742812,0.34042555,0.05028927,-2.2341056,-2.1327162
1638,A,1140319065289207,10.43004,0.3067571,1.0371382,-0.68261266,-3.0383801,-2.6216724
1638,A,1140319115259437,11.888109,0.7496844,-0.18629882,-1.1726342,-2.77526,-1.7225893
1638,A,1140319165229667,11.919234,2.1048026,-0.2964321,-2.202745,-1.8815031,-0.75745976
1638,A,1140319215199897,9.369409,1.7193362,-0.6052841,-3.0901103,-1.1656454,-1.0642558
1638,A,1140319265170127,9.63756,-0.6605004,-0.64359134,-1.6253717,-1.08362,-2.1987624
1638,A,1140319315140357,11.327866,-1.7498622,-0.8183681,-0.667699,-1.6908207,-3.1543047
1638,A,1140319365110587,13.305477,-0.44023383,0.1297358,-1.2834218,-2.976595,-3.4259472
1638,A,1140319415080817,14.009372,-0.84485394,1.1137527,-1.0863478,-3.6562335,-3.151109
1638,A,1140319465051047,15.651794,-3.5455134,1.7601871,-0.32255328,-1.9049388,-1.6746525
1638,A,1140319515021277,15.012543,-1.4697405,0.4098574,-0.44292817,0.3267901,0.69236517
1638,A,1140319564991507,14.375685,-2.0347722,1.0275614,0.0130050145,2.2527883,2.2242155
1638,A,1140319614961737,13.65503,-3.172018,-0.6938696,1.8761525,3.8943608,2.8868098
1638,A,1140319664931967,16.456245,-3.2366614,-3.7776015,3.9022853,6.1750917,2.9134414
1638,A,1140319714902197,13.348573,-1.7761984,-3.751265,4.1291866,4.3652077,2.6673653
1638,A,1140319764873177,12.218509,0.0362123,-1.6467619,2.4290247,2.312443,3.3917453
1638,A,1140319814844157,10.983101,0.2947861,-1.8359038,1.4276762,1.9225562,3.1073196
1638,A,1140319864815137,11.339837,-0.46417585,-1.4743793,2.6186419,1.5294737,1.9994446
1638,A,1140319914786117,11.670237,-0.60303956,-1.1344028,2.2734962,2.0887375,0.46013752
1638,A,1140319964757097,11.438,0.26605567,-1.6539445,0.59890044,2.4125779,0.47505122
1638,A,1140320014728077,9.716568,1.3338696,-1.0649709,-1.3356198,1.9609058,0.9693339
1638,A,1140320064699057,8.643966,1.266832,-0.5981015,-1.2951397,-0.8407397,1.452964
1638,A,1140320114670037,7.1428013,1.1399393,-0.47599724,-1.0980657,-2.8615463,0.06172861
1638,A,1140320164641017,7.647978,0.5270237,-0.06419453,-1.1332195,-3.875678,-1.9185979
1638,A,1140320214611997,10.485107,0.39534256,-0.7992145,-1.3398808,-3.274869,-2.180653
1638,A,1140320264582977,12.266393,0.67067575,-2.254889,-1.8373593,-2.598426,-1.8078104
1638,A,1140320314553957,10.887333,0.15592238,-1.5821184,-2.1803744,-3.0224013,-1.6192586
1638,A,1140320364524937,11.191397,-0.60782796,-0.7202058,-2.113263,-3.3547637,-1.9420338
1638,A,1140320414495917,13.274352,-0.358831,-0.995539,-2.0994143,-2.8583505,-2.0624087
1638,A,1140320464466897,15.192107,0.1846528,-0.25333646,-2.1974187,-2.7475631,-1.8429642
1638,A,1140320514437877,15.445893,0.8478467,0.88390934,-2.1079364,-1.865524,-1.2890267
1638,A,1140320564408857,16.190489,-0.20560206,1.1089643,-1.4591904,0.15954359,-0.8032661
1638,A,1140320614379837,15.486594,-4.6875477,1.283741,-0.5909999,1.6168253,0.30247837
1638,A,1140320664350817,14.483424,-2.805705,1.7362452,-0.22987528,1.9470572,1.6596253
1638,A,1140320714321797,13.006202,-3.5622728,0.8049007,1.3275414,3.0016692,1.9813352
1638,A,1140320764292777,14.746786,-3.76578,-2.1447558,2.889219,4.2799864,1.8588297
1638,A,1140320814264327,13.27914,-2.5830443,-3.394529,3.115055,3.6557415,2.5342073
1638,A,1140320864235877,10.607211,-0.8807669,-2.5541644,1.9784179,2.723635,3.2085197
1638,A,1140320914207427,10.188226,-0.4091092,-2.515857,1.648186,2.2943335,2.899593
1638,A,1140320964178977,11.512219,0.14155717,-1.0170869,2.240473,1.8064424,1.8843961
1638,A,1140321014150527,12.56088,1.7815853,-0.5885247,0.3730644,2.3859463,0.6188619
1638,A,1140321064122077,12.163443,3.4120367,-0.8423101,-1.0639774,2.518039,0.90541804
1638,A,1140321114093627,9.09647,2.8493993,-0.75851303,-1.5220411,0.6058894,0.9022222
1638,A,1140321164065177,8.323143,2.751237,0.48647186,-1.0149752,-1.2316917,-0.5912785
1638,A,1140321214036727,8.500314,1.5804724,-0.14320318,-1.1023269,-2.5526197,-2.7015674
1638,A,1140321264008277,9.862615,0.3043629,-0.77048403,-1.0288236,-3.3153489,-3.4909282
1638,A,1140321313979827,11.517008,0.13676877,-1.6778865,-1.7915529,-2.614405,-2.990254
1638,A,1140321363951377,11.236886,-0.20320787,-2.4033296,-2.5883708,-2.4141352,-2.1700003
1638,A,1140321413922927,10.6359415,-0.42826283,-2.195034,-2.734312,-2.7731295,-2.2541564
1638,A,1140321463894477,12.127529,-1.996465,-2.0968719,-1.4346893,-3.041576,-2.7718747
1638,A,1140321513866027,15.560815,-2.2167315,-2.111237,-1.4123188,-2.7326493,-2.5172765
1638,A,1140321563837577,13.559262,-1.1201872,0.10579379,-1.7265718,-3.467682,-1.5148628
1638,A,1140321613809127,15.213655,-1.3811551,2.3443723,-0.7944654,-3.2205405,-0.8277672
1638,A,1140321663780677,16.252739,-0.8783727,2.447323,-0.4290797,-0.5222256,0.23856251
1638,A,1140321713752227,15.572785,-1.4050971,2.6268883,-0.02640977,1.857575,0.93204963
1638,A,1140321763723777,13.224073,-3.339612,1.4321815,1.7216891,3.1390882,1.5275325
1638,A,1140321813695327,15.620669,-2.8679543,-2.1279964,3.5155945,5.423015,1.8652213
1638,A,1140321863664747,16.243162,-1.4697405,-4.445584,3.8106728,5.333533,2.037794
1638,A,1140321913634167,13.049297,-0.9382278,-3.2556653,2.8380864,4.199026,2.7291508
1638,A,1140321963603587,11.138724,0.1822586,-2.9683611,1.94646,3.1007388,2.8963974
1638,A,1140322013573007,11.356597,0.117615156,-2.2261586,2.1350117,1.9300131,1.9834657
1638,A,1140322063542427,11.042956,0.19422962,-1.0266637,1.6577733,1.8884678,0.9096791
1638,A,1140322113511847,11.878532,0.4528034,-1.6802807,0.004482899,2.163306,0.25880253
1638,A,1140322163481267,10.671855,1.0944494,-1.7233763,-1.7042012,1.7180254,0.89689595
1638,A,1140322213450687,8.569746,0.7640496,-1.6707039,-2.4339073,0.36940068,1.7341938
1638,A,1140322263420107,7.822755,1.6211739,-1.1535563,-1.8693172,-3.2045615,0.74562836
1638,A,1140322313389527,7.1858974,-0.1074398,-0.75611883,-1.3697082,-4.7151065,-2.0741265
1638,A,1140322363358947,10.880151,-1.3643957,-1.6707039,-0.1063046,-3.7457159,-2.6877189
1638,A,1140322413328367,11.672631,0.3474585,-2.621202,-1.0032573,-2.670864,-1.6469555
1638,A,1140322463297787,9.168296,1.2811972,-1.4264953,-3.4661486,-2.7283883,-0.49327415
1638,A,1140322513267207,11.600805,0.56772506,-0.14080898,-4.365232,-2.3715248,-0.78835243
1638,A,1140322563236627,13.099575,-2.520795,-0.8686463,-1.687157,-2.0178568,-1.8834442
1638,A,1140322613206047,15.201684,-3.1792006,-1.1415854,1.0207452,-2.5899038,-3.7050464
1638,A,1140322663175467,15.287876,-2.743456,0.9772832,0.88971764,-2.2426276,-3.0467129
1638,A,1140322713144887,15.570392,2.928408,4.4891282E-4,-1.4591904,-0.28147587,-0.6392154
1638,A,1140322763114307,15.268723,0.5318121,-0.62922615,-1.9012752,1.0948458,0.6114051
1638,A,1140322813083727,14.631865,-3.3874962,1.1329063,-0.6304147,1.9119036,1.1216667
1638,A,1140322863047467,12.647071,-3.9214032,-1.2229881,1.4926573,3.8432279,1.9877267
1638,A,1140322913011207,14.476241,-2.4681227,-3.7752073,2.4929407,5.1535034,1.968552
1638,A,1140322962974947,11.878532,-1.9988592,-2.9204772,2.4758964,4.1553507,2.2156932
1638,A,1140323012938687,9.960777,-1.2159551,-1.814356,3.3419564,2.0791502,2.1933227
1638,A,1140323062902427,7.9855604,-1.0938509,-4.8789344,1.9453946,1.5337347,0.6902346
1638,A,1140323112866167,11.107599,4.226065,-2.4727614,1.4276762,2.8525321,1.0939698
1638,A,1140323162829907,10.892121,-0.9597756,-1.268478,0.058811385,2.6203043,0.64229774
1638,A,1140323212793647,11.976695,1.338658,-1.5509938,-2.7492256,1.0799321,0.98850864
1638,A,1140323262757387,10.511443,1.4224551,-1.1415854,-3.2712052,-0.022616629,1.3027617
1638,A,1140323312721127,8.878597,-0.21757308,-0.96441436,-0.6964611,-1.9560716,0.13310133
1638,A,1140323362684867,8.615235,-1.0363901,0.2877531,1.0005051,-4.0024447,-1.7747873
1638,A,1140323412648607,10.003873,-0.27024552,0.6325182,-0.2053742,-3.790457,-1.9217937
1638,A,1140323462612347,11.823465,1.2620436,-1.4959271,-1.9577342,-1.9262441,-0.9204452
1638,A,1140323512576087,9.101258,0.9627684,-0.8159739,-2.7715962,-1.4170477,-0.2280233
1638,A,1140323562539827,7.4612303,-0.32770637,-0.042646717,-2.3220546,-1.7089303,-0.87676936
1638,A,1140323612503567,10.066122,-1.7881694,-0.50712186,-0.50897455,-1.7430186,-1.7758526
1638,A,1140323662467307,13.166613,-0.84245974,0.405069,0.05987665,-2.7369103,-2.490645
1638,A,1140323712431047,13.540109,1.515829,1.8463784,-1.4591904,-3.0224013,-2.0442991
1638,A,1140323762394787,15.864879,3.5389295,1.307683,-3.2392473,-1.284955,-1.072778
1638,A,1140323812358527,17.995718,-0.30376434,-0.7154174,-2.7939668,1.3419871,-0.17689063
1638,A,1140323862322267,15.371673,-5.094562,-0.4640262,-0.78807384,2.3657062,1.4987704
1638,A,1140323912290937,13.032537,-2.554314,-1.8933647,0.7608206,3.8048785,3.1605828
1638,A,1140323962259607,13.329419,-1.6876129,-2.5350106,1.9006536,4.0264535,2.6215591
1638,A,1140324012228277,9.797971,-2.781763,-1.1200374,2.9233074,2.6458707,2.3275461
1638,A,1140324062196947,7.9137344,-0.7897873,0.23986909,2.2607129,1.5475831,2.303045
1638,A,1140324112165617,8.385392,-0.066738375,0.6085761,1.7792134,1.2855281,1.9174192
1638,A,1140324162134287,8.354267,-0.18166006,1.199944,1.9230242,1.5039073,0.9341802
1638,A,1140324212102957,10.485107,-1.3572131,-0.49275663,2.2010581,2.2655714,0.026574885
1638,A,1140324262071627,11.507431,-0.23193829,-0.4568436,0.7767996,2.3699672,0.15227608
1638,A,1140324312040297,10.619183,0.68504095,-0.5621885,-1.0938047,1.3302692,0.97998655
1638,A,1140324362008967,10.097246,0.6060323,-0.8111855,-1.9161888,0.39709756,1.4923787
1638,A,1140324411977637,10.384551,1.1974001,-1.1056722,-2.2943578,-1.6141217,0.57199025
1638,A,1140324461946307,7.971195,-0.61979896,0.34760815,-1.5593253,-3.838394,-1.1558686
1638,A,1140324511914977,9.220968,-1.0675147,-0.09771336,-1.4634515,-3.3025658,-1.9441643
1638,A,1140324561883647,10.403705,0.57969606,-0.9021651,-1.7446812,-2.6761904,-1.3849005
1638,A,1140324611852317,9.283217,1.5708956,-0.39938277,-3.2051587,-2.2681937,-1.8823789
1638,A,1140324661820987,11.531373,0.7640496,-0.54303485,-2.9846492,-2.900961,-2.7420473
1638,A,1140324711789657,14.148235,-0.9837176,-0.9045593,-0.9968657,-3.1779296,-3.4951894
1638,A,1140324761758327,16.56159,-0.3684078,0.89348614,-1.5497379,-3.4112225,-3.1830668
1638,A,1140324811726997,16.192884,0.8574235,0.014814123,-2.214463,-1.78989,-2.1433687
1638,A,1140324861695667,17.088316,-2.2526445,-0.1551742,-1.5188452,0.12119433,-0.7255018
1638,A,1140324911664337,14.117111,-3.0355484,-0.033069912,-0.7955307,1.0309302,1.0417719
1638,A,1140324961635767,12.855367,-3.1672297,1.0131962,0.20901367,1.8778154,1.9813352
1638,A,1140325011607197,14.143447,-3.6628294,-2.1208138,1.8452598,4.2959657,2.60558
1638,A,1140325061578627,13.86572,-2.520795,-3.6124015,3.2503436,4.7188754,2.368026
1638,A,1140325111550057,11.076475,-2.616563,-2.420089,3.4804406,3.4405582,2.5778832
1638,A,1140325161521487,10.159495,-0.47375265,-1.3881881,2.498267,2.4296224,2.762174
1638,A,1140325211492917,10.980707,-0.3660136,-2.2285528,2.4972017,1.9939291,2.1986492
1638,A,1140325261464347,11.337442,-0.2415151,-0.9931448,2.4673743,1.8490533,1.324067
1638,A,1140325311435777,11.720515,0.04818331,-2.0322282,0.9536335,2.278355,0.32165313
1638,A,1140325361407207,11.339837,0.7544728,-1.2038345,-0.49938717,1.6519793,0.6817125
1638,A,1140325411378637,10.233716,0.720954,-0.73696524,-1.4037967,0.58458436,1.2047573
1638,A,1140325461350067,9.874586,0.56772506,-1.1463737,-1.0895437,-0.71077716,1.0162055
1638,A,1140325511321497,9.158719,0.90291333,0.5295675,-0.65598106,-2.5377057,-0.17369483
1638,A,1140325561292927,9.228151,0.8646061,0.55590373,-1.5859569,-2.703887,-1.40301
1638,A,1140325611264357,10.908881,1.0034698,-0.77048403,-2.2336376,-1.5054644,-1.5404291
1638,A,1140325661235787,9.237728,0.23493104,-1.160739,-2.4253852,-1.5406182,-1.2304372
1638,A,1140325711207217,7.7940245,-0.047584757,-0.413748,-1.8895572,-2.5323794,-1.8397684
1638,A,1140325761178647,9.994296,-0.679654,0.74983406,-0.7497243,-3.8309367,-2.9806666
1638,A,1140325811150077,12.141894,-0.9741408,-0.4209306,-0.32042274,-3.1054916,-3.1606963
1638,A,1140325861121507,15.105916,0.9244611,0.65167177,-1.5433463,-3.178995,-2.5012977
1638,A,1140325911092937,16.757915,1.8821418,1.1855787,-2.3625348,-2.3598065,-1.8546821
1638,A,1140325961064367,17.471388,-1.9629462,1.1855787,-0.9712993,-0.3720231,-0.9651863
1638,A,1140326011037377,15.235203,-2.6237457,0.45774144,-0.49193034,1.5145602,0.7509547
1638,A,1140326061010387,11.919234,-2.0754735,0.8120833,0.18344732,2.5063214,1.9419203
1638,A,1140326110983397,14.251186,-2.6189573,-2.420089,1.5416595,5.3505774,2.4457903
1638,A,1140326160956407,15.295058,-2.6237457,-3.7057753,2.2777572,4.5825214,2.1656258
1638,A,1140326210929417,10.949582,-2.0826561,-1.6970401,2.3246288,2.5382793,2.6396685
1638,A,1140326260902427,8.926482,-1.0866683,-0.64837974,2.3224983,1.4336001,2.92729
1638,A,1140326310875437,10.808324,-0.976535,-1.4600141,2.603728,1.671154,2.0995796
1638,A,1140326360848447,11.914446,-0.74429744,-1.3211504,2.3427384,2.2293527,1.1504289
1638,A,1140326410821457,12.263999,-0.21996728,-2.3338978,0.82047546,2.7417448,0.7477589
1638,A,1140326460794467,11.291953,0.48632222,-1.517475,-0.84453285,2.1398704,1.4028965
1638,A,1140326510767477,9.824307,0.42407298,-1.2325649,-1.3196408,1.0085596,2.0356636
1638,A,1140326560740487,8.888175,0.7161656,-1.1559505,-0.2682248,-1.000529,1.2729343
1638,A,1140326610713497,7.918523,1.0274118,1.2669816,-0.39925233,-3.4751384,-0.35905084
1638,A,1140326660686507,8.110059,1.029806,0.8336311,-1.6360244,-3.856503,-1.9154022
1638,A,1140326710659517,10.997466,0.7425018,-1.328333,-1.4666473,-2.6932342,-1.9175327
1638,A,1140326760632527,9.706991,0.0338181,-1.0003273,-1.5316284,-2.9648767,-1.7907662
1638,A,1140326810605537,8.679879,-0.58388597,-0.53585225,-2.182505,-2.8647418,-1.665065
1638,A,1140326860578547,10.798747,-0.27024552,0.440982,-1.6061969,-2.7550197,-2.1976972
1638,A,1140326910551557,14.624681,-0.6892308,-0.8662521,-1.3771651,-2.3885686,-2.196632
1638,A,1140326960524567,14.593557,-0.026036944,0.13931261,-1.2088532,-2.7720637,-1.7971578
1638,A,1140327010497577,16.137817,0.9364321,1.2502222,-1.8490772,-1.8495449,-1.1143233
1638,A,1140327060471527,15.184925,0.40491936,0.34281975,-1.8267066,0.11267222,-0.32496238
1638,A,1140327110445477,14.8473425,-1.6493057,0.33324295,-0.77848643,1.5028423,0.43244064
1638,A,1140327160419427,13.161824,-3.5814264,-0.071377136,0.8758692,2.774768,0.9458981
1638,A,1140327210393377,15.041273,-2.805705,-2.26686,2.0423338,4.4727993,1.441246
1638,A,1140327260367327,13.192949,-2.1903954,-2.9468133,2.0700307,4.2863784,1.7608254
1638,A,1140327310341277,10.164284,-1.1728595,-1.6587329,1.6460553,3.4916909,2.6204937
1638,A,1140327360315227,9.225757,-0.14095862,-1.4480431,2.8796315,2.485016,1.8769392
1638,A,1140327410289177,10.19062,-1.4290391,-1.613243,1.6737523,2.5393445,1.477465
1638,A,1140327460263127,10.020632,1.1710639,-0.49275663,1.1475116,1.6551751,0.72751886
1638,A,1140327510237077,11.967118,0.04818331,-0.5621885,0.04070189,0.34276932,0.7850432
1638,A,1140327560211027,10.102035,0.4528034,-0.49036244,-0.8306844,0.23624289,1.2942395
1638,A,1140327610184977,10.037392,0.4456208,-1.589301,0.07479035,0.07325744,1.4540292
1638,A,1140327660158927,10.233716,0.79517424,-1.1751041,-0.4237534,-0.14831756,0.74349785
1638,A,1140327710132877,8.684668,2.133533,-0.32276833,-1.836294,-1.950745,-0.1566506
1638,A,1140327760106827,8.998308,1.7241246,0.1297358,-2.218724,-2.0508797,-0.9428157
1638,A,1140327810080777,10.334272,0.117615156,-1.5869068,-1.884231,-1.8048037,-1.1217802
1638,A,1140327860054727,8.098088,-0.14574704,-1.2469301,-1.4581251,-2.7049522,-1.8269852
1638,A,1140327910028677,8.155549,-0.940622,0.043544542,-1.9801047,-3.3377192,-1.7960925
1638,A,1140327960002627,10.983101,1.8055273,0.7115268,-2.5031495,-2.973399,-2.4405775
1638,A,1140328009976577,16.142605,0.20380642,-0.2605191,-1.7265718,-2.256476,-2.885858
1638,A,1140328059950527,15.239991,-1.1034278,0.8384195,-0.082868785,-2.4237223,-3.2544396
1638,A,1140328109917697,16.87523,0.27802667,1.2669816,-0.595261,-0.78001934,-2.0506907
1638,A,1140328159884867,16.930298,-2.2478561,1.1233295,-1.1044574,1.5827371,0.33869737
1638,A,1140328209852037,13.226468,-0.31334114,1.4776714,-2.0951533,2.480755,2.641799
1638,A,1140328259819207,13.212103,-2.8440123,0.03875614,-0.50258297,3.6834385,3.1392775
1638,A,1140328309786377,15.036485,-3.9980175,-2.4416368,1.7355376,3.9721253,2.7728267
1638,A,1140328359753547,11.34702,-3.3444004,-2.444031,2.8743052,2.9771683,2.5672305
1638,A,1140328409720717,9.33589,-1.9653404,-2.1136312,3.2780404,2.013104,2.6716266
1638,A,1140328459687887,9.706991,-1.3524247,-2.3865702,3.47831,1.4868634,2.4255505
1638,A,1140328509655057,10.358214,-0.988506,-2.4727614,3.2535393,1.2514399,1.6212758
1638,A,1140328559622227,10.506655,-0.33488896,-1.6635213,2.4599173,1.1449134,0.828719
1638,A,1140328609589397,11.109994,0.2947861,-2.2453122,0.32406223,1.2130904,0.92139703
1638,A,1140328659556567,10.825084,2.0569186,-1.8335096,-1.9481468,0.96807957,2.137929
1638,A,1140328709523737,10.676643,2.4854805,-2.5876832,-2.351882,-0.54353064,1.7160842
1638,A,1140328759490907,8.97676,0.9843162,0.86714995,-0.9425372,-3.4240057,-0.7436113
1638,A,1140328809458077,10.451589,-0.23193829,0.85996735,-0.5643683,-3.6690166,-1.9633391
1638,A,1140328859425247,12.113164,1.2021885,-1.2229881,-2.5106065,-2.2053432,-1.3582689
1638,A,1140328909392417,9.565734,2.298733,0.11058219,-3.8517742,-1.7813679,-0.5635816
1638,A,1140328959359587,9.055769,0.084096335,-0.21502924,-3.862427,-1.8367617,-1.0855612
1638,A,1140329009326757,11.727697,-5.2813096,0.09382278,-2.5873055,-1.2828242,-2.626999
1638,A,1140329059293927,12.496237,-2.7266965,-1.0218753,-0.3491849,-0.92063427,-3.1042373
1638,A,1140329109261097,13.566444,-1.522413,0.062698156,-1.0032573,-0.74699616,-2.337247
1638,A,1140329159232637,15.613487,0.6060323,1.0060136,-2.1335027,-0.6149034,-0.83202827
1638,A,1140329209204177,15.735591,-2.458546,1.9684827,-1.4421462,1.1065639,0.11712236
1638,A,1140329259175717,14.24161,-3.7466264,2.234239,-0.70285267,1.4495791,0.8798517
1638,A,1140329309147257,12.024579,-4.0075946,2.885462,1.3658909,1.8650322,0.72325784
1638,A,1140329359118797,12.869732,-4.5031943,0.7187094,2.660187,2.5425403,0.6859736
1638,A,1140329409090337,10.339061,-2.7171197,-0.51669866,2.4727006,2.4701023,1.2580205
1638,A,1140329459061877,7.954436,-1.6828245,-0.6028899,2.04766,2.0344093,1.5967747
1638,A,1140329509033417,7.920917,-1.1369466,-1.1176432,2.2351465,1.3707495,1.0641425
1638,A,1140329559004957,8.756494,-1.7307086,-1.5821184,2.8263683,0.7049592,0.6220577
1638,A,1140329608976497,10.453982,-1.6924013,-1.1942577,2.7699094,0.373662,0.0862297
1638,A,1140329658948037,13.173796,-1.0004771,-2.8869584,1.2124927,1.0042986,0.8255232
1638,A,1140329708919577,12.867338,0.14634559,-3.00188,-0.8658381,1.5720844,2.7685654
1638,A,1140329758891117,11.528979,2.9140427,-4.6083894,-3.1710703,1.7553099,4.3153296
1638,A,1140329808862657,10.018238,4.6833577,-2.4368484,-2.875992,-0.7789541,3.0391426
1638,A,1140329858834197,9.285612,0.76883805,-0.54303485,-1.0352151,-1.2956073,-0.335615
1638,A,1140329908805737,10.02542,0.32830492,-1.1966519,0.6883827,-1.2508663,-1.8813137
1638,A,1140329958777277,8.378209,0.7520786,0.6947674,0.54776776,-2.2820423,-1.6682608
1638,A,1140330008748817,7.6072764,1.7001824,0.91263974,-0.82855386,-2.1222525,-1.6054102
1638,A,1140330058720357,8.979155,1.4248493,1.1496657,-1.4016662,-1.6119909,-1.7865052
1638,A,1140330108691897,11.658266,1.3865421,0.76419926,-2.4221895,-1.7728459,-2.26907
1638,A,1140330158663437,13.48983,0.38337156,2.2486043,-1.6040664,-1.4969423,-2.434186
1638,A,1140330208631907,17.926287,-0.29179335,3.7473745,-2.1771786,-0.0023763387,-2.0666697
1638,A,1140330258600377,16.11627,-2.8440123,4.1400237,-1.8352288,2.0013862,-0.17795588
1638,A,1140330308568847,14.756363,-4.5079827,2.897433,-1.6924833,1.6242825,1.2058226
1638,A,1140330358537317,13.018172,-5.2932806,2.4928129,1.301975,2.1111083,0.76799893
1638,A,1140330408505787,12.536938,-5.1975126,0.7306804,1.3403245,2.3252265,1.0758604
1638,A,1140330458474257,9.908105,-2.8559833,0.48886606,0.65749,2.046127,1.9429855
1638,A,1140330508442727,7.2122335,-2.5950153,0.75941086,0.6159447,1.6455877,2.5427294
1638,A,1140330558411197,6.6352305,-2.9637225,0.91503394,1.6492512,1.0799323,2.1230152
1638,A,1140330608379667,8.172308,-3.4832642,0.87912095,2.5973365,0.72200346,1.1674731
1638,A,1140330658348137,9.991901,-2.7362733,0.07466917,2.5568564,0.60056335,0.5943608
1638,A,1140330708316607,11.801918,-1.2925696,-0.23418285,1.2252759,1.0564965,0.88943905
1638,A,1140330758285077,11.99106,0.81911623,-0.66035074,-1.2908787,1.3260084,2.2050407
1638,A,1140330808253547,10.564116,3.8860886,-1.6730981,-3.0240638,0.5004285,2.6183631
1638,A,1140330858222017,10.85142,4.080019,-0.03546411,-1.8032708,-2.6410363,0.15973294
1638,A,1140330908190487,9.015067,0.66828156,0.2829647,-0.60591364,-2.9755294,-3.1947846
1638,A,1140330958158957,10.358214,-0.20560206,-0.19108722,0.7586901,-2.7422364,-3.324747
1638,A,1140331008127427,11.864167,0.5940613,-0.7034464,-0.9681035,-2.9329188,-1.8695958
1638,A,1140331058095897,9.994296,1.7504607,-0.18151042,-1.9353637,-2.61547,-1.6490861
1638,A,1140331108064367,10.219351,-1.0818799,-0.042646717,-0.8977961,-1.5118561,-2.0293856
1638,A,1140331158032837,13.178584,-2.7003603,0.18959084,0.65855527,-1.5342265,-1.6586734
1638,A,1140331208001307,13.769952,-1.5415666,2.519149,0.41567495,-1.2487357,-0.57743007
1638,A,1140331257967627,14.653412,2.1981764,4.61647,-1.1619817,-0.28147563,-0.19606538
1638,A,1140331307933947,14.244003,2.2364836,5.2174144,-1.3856872,0.9606227,-0.8725083
1638,A,1140331357900267,15.05085,-1.4146739,4.4009914,-1.2834218,1.6850026,-0.4677078
1638,A,1140331407866587,12.556091,-3.351583,3.7425861,0.19196944,2.0961945,0.43989748
1638,A,1140331457832907,14.052467,-5.23582,1.2071266,0.68944794,3.383034,1.5999705
1638,A,1140331507799227,13.604752,-2.899079,-1.4336779,1.3168887,3.1433494,2.1560385
1638,A,1140331557765547,9.946412,-2.58065,-1.9244893,1.6950575,2.2325485,2.291327
1638,A,1140331607731867,7.3343377,-1.996465,-1.3881881,1.491592,1.7329394,2.3413944
1638,A,1140331657698187,7.38701,-1.5272014,-2.183063,1.8239546,1.4101642,1.936594
1638,A,1140331707664507,8.57214,-2.0012534,-2.207005,3.1299686,0.22026393,1.0268582
1638,A,1140331757630827,10.1164,-2.209549,-1.0122985,3.0628572,-0.44020003,-0.01603569
1638,A,1140331807597147,12.302306,-0.60064536,-2.075324,-0.13506675,0.6080202,1.2857175
1638,A,1140331857563467,10.755651,2.7799675,-0.95004916,-2.658678,0.1701965,3.0391426
1638,A,1140331907529787,11.950358,2.8541877,-1.4600141,-2.2986188,-1.290281,2.7728267
1638,A,1140331957496107,11.895292,2.09762,0.13213001,-1.1651775,-2.5899036,-0.3601161
1638,A,1140332007462427,12.022184,0.12240356,0.90306294,0.16640308,-2.148884,-1.995297
1638,A,1140332057428747,12.436381,2.1359272,0.09382278,-0.9904741,-1.4053296,-1.2400246
1638,A,1140332107395067,9.675867,2.0952258,0.6205472,-2.4307115,-1.0814892,-0.7979398
1638,A,1140332157361387,8.49792,0.7065888,0.9198224,-2.795032,-0.75338775,-1.7588083
1638,A,1140332207327707,8.490737,-2.650082,-0.36586395,-1.1183058,-1.0410092,-2.454426
1638,A,1140332257294027,10.303147,-1.8025346,0.47928926,-0.2522458,-1.9688544,-3.0680182
1638,A,1140332307259757,12.977471,-0.16968904,0.37394437,-1.8554688,-1.1944072,-1.9963622
1638,A,1140332357225487,14.188937,0.6060323,0.6085761,-2.0227153,-1.3435442,-0.99288315
1638,A,1140332407191217,15.45547,-2.5112183,1.5111902,-0.4056439,0.19789338,-0.38568243
1638,A,1140332457156947,14.7755165,-4.3691187,1.5303438,-0.08180352,1.1843282,0.9331149
1638,A,1140332507122677,12.450747,-2.8033109,1.877503,0.5008961,2.0482576,1.5222062
1638,A,1140332557088407,12.5225725,-3.409044,-0.74414784,1.837803,2.6352184,1.7235411
1638,A,1140332607054137,10.7077675,-2.8272529,-1.256507,2.8199768,1.981146,1.6969095
1638,A,1140332657019867,7.7437463,-2.4513633,-0.75133044,3.4484828,1.2695494,1.4273976
1638,A,1140332706985597,7.0949173,-1.8480245,-1.2517185,3.046878,1.0735407,1.3592207
1638,A,1140332756951327,7.918523,-0.6509236,-1.9651906,2.7773662,0.9851238,0.88091695
1638,A,1140332806917057,9.520244,-0.6772598,-0.92850137,2.5696397,0.60056335,0.112861305
1638,A,1140332856882787,10.985496,-0.70838445,-1.067365,0.93126297,0.9307953,-0.21097909
1638,A,1140332906848517,13.058874,0.5006874,-1.9173067,-1.7585298,1.1140208,1.2889132
1638,A,1140332956814247,13.128305,3.1821933,-2.9851205,-4.389733,1.1076292,2.7877402
1638,A,1140333006779977,10.511443,2.049736,-2.0465934,-2.6735919,-1.4447443,1.4199407
1638,A,1140333056745707,9.75727,-0.60064536,-0.32995093,-0.43440604,-1.3968074,-1.4062058
1638,A,1140333106711437,10.140342,-0.7706337,-0.7249942,0.54563725,-1.2593883,-2.0506907
1638,A,1140333156677167,9.185056,-0.18644845,-0.50233346,0.5935741,-1.6950815,-1.6118019
1638,A,1140333206642897,6.642413,0.43125558,1.0802339,-0.760377,-2.454615,-1.5745176
1638,A,1140333256608627,6.7238164,0.519841,1.84159,-2.189962,-1.580033,-1.4924922
1638,A,1140333306574357,9.802759,1.0345944,0.33803135,-2.3870358,-0.68414557,-1.4978185
1638,A,1140333356540087,11.497854,-0.3899556,0.6133646,-1.239746,-0.13340387,-1.1995444
1638,A,1140333406505817,13.968671,-1.3907319,2.2773347,0.90356606,0.8626184,-1.0269716
1638,A,1140333456471547,16.200066,-4.266168,6.4887357,0.24310213,2.13774,-0.78089553
1638,A,1140333506437277,14.4810295,-4.3930607,7.218967,0.062007178,2.6394794,1.1706688
1638,A,1140333556403007,10.470742,-6.3754597,7.8438535,3.070314,2.0301483,1.3006312
1638,A,1140333606368737,16.882414,-7.0195003,4.168754,4.154753,3.5694554,1.5765346
1638,A,1140333656334467,14.94311,-6.923732,3.254169,4.703364,5.1588297,2.129407
1638,A,1140333706300197,12.043733,-5.3890486,2.9501054,2.7027977,5.628611,3.306524
1638,A,1140333756265927,10.710162,-2.3579893,4.6116815,3.662601,5.1215453,3.7656531
1638,A,1140333806231657,9.766847,-2.8224645,4.8774376,2.6580565,5.0331283,2.850591
1638,A,1140333856197387,8.7493105,-2.6883893,6.744915,2.3853488,4.228854,2.1389942
1638,A,1140333906163117,6.6495957,2.2245126,8.356213,0.8162144,3.4810383,1.2857175
1638,A,1140333956128847,4.332009,2.4088662,8.41128,1.1496421,2.2932684,1.2867827
1638,A,1140334006094577,3.5323453,4.0369234,8.1551,1.3552382,1.6008466,1.3570901
1638,A,1140334056060307,1.7845781,5.315427,7.0561614,0.9898525,0.11693328,0.85641587
1638,A,1140334106026037,1.4254478,4.604349,7.7959695,0.30169168,-0.44446108,0.28330362
1638,A,1140334155991767,2.9074588,3.6514568,8.425645,-0.02427924,0.13078171,-0.014970427
1638,A,1140334205957497,1.190816,3.3641527,6.7520976,-0.048780322,0.03597318,0.0074001257
1638,A,1140334255923227,-1.2009914,3.6706104,5.6699185,0.46254662,0.28204927,0.22045301
1638,A,1140334305888957,-1.2392987,3.52217,4.997148,0.2079484,0.39709783,-0.07036418
1638,A,1140334355859607,-0.90411043,5.0089693,5.5502086,0.052419797,0.5174727,-0.10764843
1638,A,1140334405830257,-1.6678607,6.5197105,7.302764,0.43804553,0.4397084,0.2683899
1638,A,1140334455800907,-2.204162,7.642591,9.309105,0.44976342,0.4492958,0.48250806
1638,A,1140334505771557,-1.8641853,8.511686,9.56289,-0.020018183,0.7475698,0.5528155
1638,A,1140334555742207,-3.1043818,7.9442606,9.3115,-0.24585424,0.24689554,0.23217092
1638,A,1140334605712857,-3.3007064,5.897218,9.462334,-0.69220006,-0.044986915,0.094751805
1638,A,1140334655683507,-4.595969,4.226065,9.392902,-0.86051184,0.2777882,0.22045301
1638,A,1140334705654157,-4.0620623,2.868553,8.598027,-0.6485242,0.8295952,0.5592071
1638,A,1140334755624807,-1.9384055,3.6634278,6.529437,-0.8999266,1.1768714,0.5485545
1638,A,1140334805595457,-1.6941969,3.6275148,3.9867947,-0.28739956,0.9638185,0.37278584
1638,A,1140334855566107,-2.3573909,3.9459436,2.9501054,-0.6304147,0.39390203,-0.050124153
1638,A,1140334905536757,-2.7548282,4.9658737,3.1200938,-1.0639774,-0.56164014,-0.6328238
1638,A,1140334955507407,-1.9982606,5.7870846,3.2014966,-2.1569386,-2.3076086,-1.418989
1638,A,1140335005478057,0.16849194,5.8206034,4.2118497,-2.3689263,-5.1401467,-2.1902404
1638,A,1140335055448707,3.0343513,4.697723,4.204667,-4.4643016,-8.987882,-3.9553835
1638,A,1140335105419357,10.741286,3.333028,-1.1200374,-3.0453691,-8.671498,-4.659523
1638,A,1140335155390007,19.510649,1.2620436,-5.5445223,-1.4474726,-9.219045,-5.2134604
1638,A,1140335205360657,19.510649,0.8789713,-7.287501,-4.341796,-5.0165763,-3.0168855
1638,A,1140335255331307,19.510649,-0.21278468,-6.499809,-6.0419583,-1.8719155,0.2896952
1638,A,1140335305301957,12.572851,-1.1225814,-4.4551606,-7.075265,-2.490834,2.5097063
1638,A,1140335355269647,15.206472,-0.51445407,-4.342633,-6.343428,-0.73101723,-0.5891479
1638,A,1140335405237337,15.400403,-5.8128223,-4.948366,-2.3891664,0.85409623,-3.3353996
1638,A,1140335455205027,14.622288,-4.433762,-2.7672482,-3.406494,-0.2282124,-3.7785497
1638,A,1140335505172717,12.761992,-1.4027029,0.8551789,-5.054458,-0.8982637,-1.2996793
1638,A,1140335555140407,14.706084,-10.215759,2.420987,-3.136982,1.6658278,0.2715857
1638,A,1140335605108097,8.148366,-13.088801,7.587674,0.15042412,0.77846247,0.54961973
1638,A,1140335655075787,8.596082,-9.621997,6.706608,0.9962441,0.50149375,2.1890616
1638,A,1140335705043477,10.643125,-9.406519,5.7321677,2.7272987,0.22239445,3.6079938
1638,A,1140335755011167,14.416387,-7.457639,2.6268883,5.042118,0.54410434,4.0245123
1638,A,1140335804978857,14.789882,-5.762544,-0.6028899,6.745476,0.77100563,3.8860278
1638,A,1140335854946547,15.54645,-3.2462382,-3.2915785,6.4418755,1.5912592,3.681497
1638,A,1140335904914237,14.890438,-1.1153988,-3.0449758,5.2242785,1.9992555,2.7131717
1638,A,1140335954881927,15.4363165,-0.41389763,-3.5214217,4.108947,1.9598408,1.5413809
1638,A,1140336004849617,13.628694,0.12000936,-1.1296142,2.04766,2.1963294,0.679582
1638,A,1140336054817307,14.160207,0.7544728,-2.6906338,-2.1058059,3.6674597,1.7288674
1638,A,1140336104784997,11.212944,4.5636477,-3.6698623,-6.7791214,3.2520065,4.282306
1638,A,1140336154752687,7.372645,5.588366,-4.2301054,-5.085351,-1.2774979,3.1669743
1638,A,1140336204720377,7.1882915,-0.42586863,1.2047324,0.7554943,-4.7406726,-3.381206
1638,A,1140336254688067,10.990284,-2.1544824,-0.36107555,4.532922,-4.6511908,-4.8587275
1638,A,1140336304655757,11.562498,0.64433956,-2.7361236,1.1656212,-3.9715517,-2.861357
1638,A,1140336354623447,11.935993,5.0616417,-1.57733,-3.8368607,-3.3451762,-0.9002052
1638,A,1140336404595327,11.483489,1.3362638,-1.5366286,-5.0278263,-3.719084,-1.4509469
1638,A,1140336454567207,14.739603,-0.8831611,0.74743986,-3.9337997,-2.7539544,-2.2861142
1638,A,1140336504539087,15.989377,-2.3388357,-2.0729299,-1.0096488,-1.8143911,-2.381988
1638,A,1140336554510967,15.228021,-1.6469115,1.0874165,-1.4400157,-2.3395665,-1.789701
1638,A,1140336604482847,15.884032,1.5062522,3.1775546,-2.3540125,0.02105948,0.22577934
1638,A,1140336654454727,15.57518,-0.30615854,2.8088474,-3.4469738,2.0269525,1.1770605
1638,A,1140336704426607,13.690943,-3.0092123,2.3228245,-1.6051316,2.247462,1.224997
1638,A,1140336754398487,12.70932,-6.246173,2.5454853,2.0050495,2.2250917,1.1674728
1638,A,1140336804370367,13.456311,-5.654805,0.37633857,3.4026763,3.0133872,1.8417852
1638,A,1140336854342247,12.527361,-2.5040357,-1.0170869,3.585902,3.071977,2.3147626
1638,A,1140336904314127,10.992678,-1.8911201,-1.9843442,3.1576655,2.7151132,2.5448596
1638,A,1140336954286007,10.25287,-1.0435727,-2.3530514,2.579227,2.182481,2.340329
1638,A,1140337004257887,10.001478,-0.7921815,-2.2620716,3.171514,1.1694145,1.4124837
1638,A,1140337054229767,11.430817,-1.0459669,-0.5526117,2.2436688,1.7723542,0.3173918
1638,A,1140337104201647,11.99106,0.7520786,-1.7209821,-1.3515987,2.903665,0.9118094
1638,A,1140337154173527,10.781988,2.4447792,-0.97159696,-3.3564265,1.7915289,2.7600431
1638,A,1140337204145407,9.359832,0.65631056,-1.103278,-2.279444,-0.33367357,2.8015885
1638,A,1140337254117287,9.766847,1.848623,0.4098574,-0.14039306,-2.414135,0.89050406
1638,A,1140337304089167,7.7221985,1.6618752,0.87433255,0.049224004,-3.7861955,-2.0070152
1638,A,1140337354061047,11.68939,0.69701195,0.5487211,-0.5377367,-3.4218752,-2.7100897
1638,A,1140337404035997,11.8857155,2.1000142,-1.2852374,-2.5702612,-1.9028081,-1.8664002
1638,A,1140337454010947,10.595241,1.4056957,-0.92610717,-3.6110246,-2.148884,-1.5276462
1638,A,1140337503985897,11.086052,-0.46417585,-0.67232174,-3.161483,-2.4631371,-2.5364516
1638,A,1140337553960847,13.171401,-2.1544824,-1.4767735,-1.6296327,-2.007204,-2.9785364
1638,A,1140337603935797,15.462652,-2.2861633,-0.8830115,-0.85625076,-2.405613,-2.5545611
1638,A,1140337653910747,14.203302,-1.2518682,0.950947,-1.8554688,-1.7163868,-0.93642443
1638,A,1140337703885697,14.706084,0.81672204,1.5901989,-2.235768,-0.16749233,0.17890744
1638,A,1140337753860647,14.028525,-2.343624,1.5255554,-0.45997238,0.91801214,-0.23015411
1638,A,1140337803835597,12.821848,-4.5510783,2.8710968,1.1784043,0.7773972,-0.053320214
1638,A,1140337853810547,11.890504,-4.069844,2.8950388,1.7163628,2.0514536,0.64868903
1638,A,1140337903785497,13.439552,-3.3084874,0.55350953,2.1019886,3.3159223,1.5168796
1638,A,1140337953760447,12.661436,-2.2263083,-0.94526076,2.6900146,3.2520065,2.0644255
1638,A,1140338003735397,10.676643,-1.9342157,-1.6994343,3.1406214,2.9526672,2.1517773
1638,A,1140338053710347,10.312724,-1.6277579,-2.0513818,3.1534045,2.5318878,1.8662863
1638,A,1140338103685297,11.665448,-0.6700772,-2.1543326,2.638882,2.3944685,1.2484329
1638,A,1140338153660247,12.455535,0.5030816,-1.3546692,0.54457194,2.9025998,0.8841125
1638,A,1140338203635197,12.168231,1.3626001,-1.5940894,-1.9822353,3.0069957,1.7384546
1638,A,1140338253610147,11.0022545,1.3937247,-1.5557822,-3.4661486,2.0184302,2.6886704
1638,A,1140338303585097,9.795577,1.7193362,-2.8199208,-2.738573,0.039168973,2.2668257
1638,A,1140338353560047,9.278429,1.4511855,0.49365446,0.82686704,-3.3451762,-1.0376246
1638,A,1140338403534997,9.017462,-0.26066872,1.9301754,1.1837306,-3.7702167,-3.678415
1638,A,1140338453505817,12.158654,2.1742344,-0.4329016,-1.7563992,-1.8463491,-2.4235337
1638,A,1140338503476637,11.406875,2.9930513,-0.92131877,-3.939126,-1.1656451,-0.9492076
1638,A,1140338553447457,10.003873,0.80235684,-1.1415854,-3.8347301,-2.2479537,-2.1401732
1638,A,1140338603418277,10.889728,-2.5112183,0.31648353,-0.9712993,-2.7390406,-4.0288873
1638,A,1140338653389097,13.789105,-2.1592708,-0.27009588,-0.3523807,-1.672711,-3.782811
1638,A,1140338703359917,14.8473425,0.27802667,-0.0043394906,-2.8813183,-1.8601975,-1.7193937
1638,A,1140338753330737,13.880085,0.9220669,2.1576247,-3.2733357,-0.98135436,-0.3590511
1638,A,1140338803301557,14.15063,-3.432986,2.7011085,-1.856534,0.75822246,0.09155575
1638,A,1140338853272377,11.397298,-4.7833157,2.420987,-0.42055762,0.8604878,0.46333304
1638,A,1140338903243197,10.295965,-3.4162266,4.022708,0.19410023,0.8402478,0.8393714
1638,A,1140338953214017,11.971907,-5.4010196,2.6939259,2.686819,1.7190909,0.9863779
1638,A,1140339003184837,15.761928,-5.5518546,0.08664017,3.6189253,2.5713024,1.9270064
1638,A,1140339053155657,13.401245,-2.7290907,-1.067365,3.4410262,2.6810248,2.9134412
1638,A,1140339103126477,11.337442,-1.7690158,-1.0338463,3.7691276,2.4679718,3.0189023
1638,A,1140339153097297,10.911275,-1.6014217,-2.2165818,3.5379653,2.3454664,2.9059844
1638,A,1140339203068117,10.808324,-0.7826047,-1.4480431,3.3025417,1.4495791,2.2284763
1638,A,1140339253038937,11.141118,0.04818331,-1.0099041,1.8814791,1.8426616,1.1142097
1638,A,1140339303009757,11.279982,0.7544728,-1.4121301,0.5307238,1.7904637,0.7253881
1638,A,1140339352980577,10.875362,1.290774,-0.65795654,-2.0323024,1.2748758,1.406092
1638,A,1140339402951397,10.66946,3.5293527,-1.8406922,-3.4959757,0.06047426,1.7075619
1638,A,1140339452922217,8.706215,2.0353708,-0.2964321,-2.4509513,-1.8122606,-0.26743835
1638,A,1140339502898317,7.7341695,-0.31573534,-0.40895957,-1.2077878,-2.747563,-2.6184769
1638,A,1140339552874417,10.54975,-1.0316017,-0.51669866,-0.8658379,-3.034119,-3.2373955
1638,A,1140339602850517,11.6151705,-0.44981065,-1.3618518,-1.6030009,-2.756085,-2.722873
1638,A,1140339652826617,10.121188,-0.48093528,-0.5621885,-2.4754524,-3.3355887,-1.9793183
1638,A,1140339702802717,10.65749,0.187047,1.2286744,-1.9673213,-2.3235874,-2.0379078
1638,A,1140339752778817,13.195343,-2.281375,-0.1575684,-0.97769064,-2.015726,-2.260548
1638,A,1140339802754917,14.227244,-0.16490065,0.7043442,-2.610741,-1.7483448,-0.5816914
1638,A,1140339852731017,14.22485,1.9276316,3.1081228,-2.613937,-0.82795626,0.48889938
1638,A,1140339902707117,15.201684,-1.2135609,2.9788358,-1.132154,1.2706146,-0.16623825
1638,A,1140339952683217,14.41878,-4.2111015,2.8088474,-0.020017916,2.0631714,0.11605683
1638,A,1140340002659317,13.808259,-2.9804819,2.6149173,0.6244671,2.359315,1.0417717
1638,A,1140340052635417,15.465047,-4.7952867,0.10100538,1.8090411,3.374512,1.6287323
1638,A,1140340102611517,14.069227,-3.4617164,-2.135179,2.6442084,3.3244445,2.1826699
1638,A,1140340152587617,10.743681,-2.1832128,-2.26686,2.2724311,2.5052562,2.744064
1638,A,1140340202563717,9.137172,-1.3356652,-1.7185879,1.8079759,2.1004558,2.9059844
1638,A,1140340252539817,9.230545,-1.3883377,-1.4911387,2.7613876,1.4804717,2.4383333
1638,A,1140340302515917,10.7317095,-1.2303205,-0.8063971,3.0905542,1.6551751,1.3325888
1638,A,1140340352492017,10.80593,0.32351652,-0.8063971,1.2039709,2.2112432,0.6912996
1638,A,1140340402468117,11.078869,2.5908256,-0.5741595,-1.5124534,1.7893984,1.4838563
1638,A,1140340452444217,8.277653,2.5860372,-0.413748,-2.3220544,0.09030167,1.797044
1638,A,1140340502420317,9.029432,1.8773534,0.8527847,-0.6751555,-2.366198,0.035096735
1638,A,1140340552399097,8.651149,1.6522985,0.75462246,-1.2482678,-3.4644856,-2.3926408
1638,A,1140340602377877,9.764452,0.66349316,0.07466917,-1.2514637,-4.162234,-2.9796016
1638,A,1140340652356657,13.530532,0.081702136,-1.5605706,-2.2773132,-3.115079,-3.0541701
1638,A,1140340702335437,13.2551985,-0.28700492,-2.3674166,-3.4011672,-2.1946905,-2.4224682
1638,A,1140340752314217,11.517008,-0.47614688,-1.1798925,-4.778554,-1.7803026,-1.6522821
1638,A,1140340802292997,11.892898,-1.249474,-1.8670284,-4.5303473,-1.5864246,-1.7343075
1638,A,1140340852271777,13.228862,-4.1895537,-1.8215386,-3.0251288,-0.96750593,-1.6746527
1638,A,1140340902250557,12.639889,-2.0587142,-0.49515083,-2.336968,-1.4394181,-1.6810442
1638,A,1140340952229337,12.132318,-3.0355484,2.1312885,-0.13506648,-2.1052084,-1.5478863
1638,A,1140341002208117,14.038102,-4.833594,3.55105,0.878,-0.052443765,-0.1257582
1638,A,1140341052186897,15.18253,-1.5032594,3.3403602,-0.20537393,2.3145738,1.4987701
1638,A,1140341102165677,13.145065,-3.7969046,3.4265516,1.2657562,3.181699,1.994118
1638,A,1140341152144457,15.838542,-5.2693386,0.725892,3.2727144,3.2157874,2.3179584
1638,A,1140341202123237,14.124293,-3.8543653,-1.7377415,4.482855,2.854663,2.3829396
1638,A,1140341252102017,11.5433445,-1.7091607,-2.2477064,3.367523,2.1494577,2.679083
1638,A,1140341302080797,9.900922,-1.0124481,-2.3578398,2.7017326,2.0972598,2.7909358
1638,A,1140341352059577,10.825084,-0.9573814,-2.4344542,2.7198422,1.892729,2.030337
1638,A,1140341402038357,12.211327,-0.07152677,-1.7856256,2.3395429,2.2559843,0.92459255
1638,A,1140341452017137,12.347796,0.37140054,-1.7473184,0.24842872,2.60113,0.66040695
1638,A,1140341501995917,11.038168,1.716942,-1.0529999,-2.3699913,1.6764804,1.7533683
1638,A,1140341551974697,8.699033,2.0688896,-0.7321768,-2.5297809,-0.11849016,1.8961136
1638,A,1140341601954807,9.175479,1.7552491,0.48647186,-0.67409027,-2.5696635,0.2641286
1638,A,1140341651934917,8.184279,1.2740146,0.5966051,-0.67409027,-3.255694,-2.236047
1638,A,1140341701915027,11.921628,0.07451953,-0.76569563,-0.58141226,-3.5901868,-2.93273
1638,A,1140341751895137,12.953529,0.1846528,-1.3810055,-1.2834215,-3.4027004,-2.6142159
1638,A,1140341801875247,10.616788,0.38815996,-0.6100725,-2.228311,-3.1172094,-2.091171
1638,A,1140341851855357,10.516232,-0.87119013,-0.025887307,-2.2293763,-2.7273228,-1.9484257
1638,A,1140341901835467,13.173796,-1.1561002,-0.66992754,-2.6703959,-1.6173172,-1.3518776
1638,A,1140341951815577,14.404415,0.8430583,-0.96441436,-3.7676182,-1.2721715,-0.90553176
1638,A,1140342001795687,13.214497,-1.5631144,1.0826281,-0.5537154,-2.1680589,-1.2091321
1638,A,1140342051775797,15.836148,-3.4258034,4.084957,0.68199134,-0.3144988,-1.0930183
1638,A,1140342101755907,14.454694,-1.9677346,4.4560585,-0.67835134,1.6594362,0.054271493
1638,A,1140342151736017,14.631865,-1.9461867,3.7258267,-0.60165226,2.3614454,1.4305931
1638,A,1140342201716127,13.784317,-4.156035,1.6213235,1.5128976,3.1081958,1.748042
1638,A,1140342251696237,16.166548,-3.9261916,-1.5629648,3.3131945,3.6280448,1.7512378
1638,A,1140342301676347,13.058874,-2.9206269,-3.0737062,3.7606056,3.2711813,2.0026402
1638,A,1140342351656457,10.820295,-1.0627263,-2.183063,2.718777,2.730027,2.2828047
1638,A,1140342401636567,11.105206,0.3043629,-1.6036662,1.3882617,3.2392232,2.3147626
1638,A,1140342451616677,11.100417,0.38576576,-1.6707039,0.9195453,3.3095307,2.0132928
1638,A,1140342501596787,10.691009,0.38337156,-2.1639094,-1.2205709,3.4959521,2.2710867
1638,A,1140342551576897,8.181885,6.2467713,-3.2221465,-4.225682,1.7691584,1.9408548
1638,A,1140342601557007,4.185962,1.5254058,-0.53585225,-1.434689,-2.6847122,-0.9971445
1638,A,1140342651530277,8.378209,-3.3611598,-0.5669769,2.9456782,-3.7308018,-2.6536307
1638,A,1140342701503547,13.049297,-1.5272014,-1.9029415,4.9366574,-4.8812876,-2.4512305
1638,A,1140342751476817,13.616723,0.24450785,-3.205387,1.2721479,-3.5166836,-1.1494774
1638,A,1140342801450087,13.959094,3.701735,-2.3650224,-3.2115502,-1.3446095,0.8958304
1638,A,1140342851423357,11.363779,1.3578117,-2.348263,-4.846731,-1.4735066,1.3560246
1638,A,1140342901396627,7.7796593,0.48871642,0.8096891,-4.98415,-2.3608718,-0.25678572
1638,A,1140342951369897,9.924864,-2.4130561,-1.0410289,-2.981453,-2.2554107,-1.9729267
1638,A,1140343001343167,12.498631,-3.136105,-0.18629882,0.2644077,-2.6239922,-3.4600358
1638,A,1140343051316437,13.070845,-2.1927896,0.79292965,0.38584784,-3.348372,-3.0808017
1638,A,1140343101289707,16.769886,2.7991211,2.3491607,-2.7907708,-2.6335795,-0.4549249
1638,A,1140343151262977,16.331747,2.8063037,1.8080711,-2.9217982,1.0341259,0.9437673
1638,A,1140343201236247,16.6406,-3.9477394,1.4082395,-1.2429415,2.548932,1.2377803
1638,A,1140343251209517,13.145065,-3.385102,0.689979,0.85349894,3.1934168,1.3155446
1638,A,1140343301182787,14.806642,-4.254197,-1.826327,2.9978762,4.11274,1.1930392
1638,A,1140343351156057,13.690943,-2.5112183,-3.6028247,3.3430219,3.6876996,1.5722733
1638,A,1140343401129327,10.68622,-1.0148423,-2.9970915,2.2809532,3.1305664,2.2625647
1638,A,1140343451102597,9.36462,-0.32291797,-2.585289,1.526746,2.8642502,2.5480554
1638,A,1140343501075867,9.989508,-0.47135845,-2.4392426,1.9208939,2.3348138,1.9472464
1638,A,1140343551049137,10.633548,-0.61501056,-1.4504373,1.820759,2.0141692,0.68810385
1638,A,1140343601022407,11.323077,0.10803835,-0.8830115,0.15362018,2.1441314,0.47824675
1638,A,1140343650995677,11.258434,2.1263504,-1.4552257,-2.3753176,1.8810111,1.5190101
1638,A,1140343700973157,8.825925,2.0090344,-1.6754923,-2.9058192,0.36087883,1.8705473
1638,A,1140343750950637,7.942465,1.2165537,-0.36346975,-1.3079226,-2.538771,0.019117769
1638,A,1140343800928117,8.514679,-0.04997896,-0.121655375,-0.17341599,-3.6690166,-2.747374
1638,A,1140343850905597,10.832266,-0.7730279,-0.49754503,-0.10310854,-3.634928,-2.9519048
1638,A,1140343900883077,11.708544,0.2995745,-1.4887445,-1.5657166,-2.9158745,-1.9260551
1638,A,1140343950860557,9.129989,0.5246295,-0.5669769,-2.9154067,-3.4261363,-1.1707826
1638,A,1140344000838037,9.182661,0.41210195,1.6428713,-3.0315204,-2.043423,-1.7012843
1638,A,1140344050815517,13.516167,-0.29179335,-0.3179799,-2.034433,-1.2050599,-1.8674655
1638,A,1140344100792997,14.24161,-0.3660136,0.17043723,-1.8735781,-1.4703107,-1.4669261
1638,A,1140344150770477,14.648623,-0.74669164,2.7178679,-1.0107138,-1.5917509,-1.0802351
1638,A,1140344200747957,15.158588,-1.6205753,3.076998,-0.92868847,0.6101507,-0.13214979
1638,A,1140344250725437,14.411598,-1.6564883,2.0139725,-1.2482678,1.8629017,0.83617556
1638,A,1140344300702917,12.68059,-2.908656,1.8487726,0.5094185,1.8224217,1.107818
1638,A,1140344350680397,14.7515745,-5.0730143,-0.50233346,2.5877495,2.8930123,1.2697382
1638,A,1140344400657877,13.915998,-3.219902,-2.029834,3.5347695,3.052802,1.6862566
1638,A,1140344450635357,10.729316,-1.9749172,-2.2213702,3.5763147,2.4935381,2.3019795
1638,A,1140344500612837,9.601646,-0.4019266,-1.2517185,2.2330163,2.6586542,2.4564428
1638,A,1140344550590317,10.018238,0.54138887,-1.5462054,1.6449903,2.7555933,2.0292718
1638,A,1140344600567797,9.814731,0.5844845,-0.7896376,1.3861312,2.4456012,1.1152749
1638,A,1140344650545277,10.238504,0.79517424,-0.5717653,0.18770865,2.037605,0.39941716
1638,A,1140344700522757,9.934441,1.2979566,-0.48796824,-1.434689,1.5614319,0.7115396
1638,A,1140344750502337,7.7964187,0.7472902,-0.28446108,-1.2077878,-0.30384618,0.9703989
1638,A,1140344800481917,8.936059,0.098461546,-0.09053075,-0.20750445,-2.0146608,-0.22269726
1638,A,1140344850461497,9.544186,0.53899467,-0.32755673,-0.6613071,-2.8519588,-1.2261764
1638,A,1140344900441077,10.078093,0.19422962,-0.75851303,-0.9297537,-3.6125574,-1.4615998
1638,A,1140344950420657,11.739669,-0.11941081,-1.4791677,-1.7659863,-2.7390406,-1.5382988
1638,A,1140345000400237,10.64073,-0.5527613,-1.2158055,-2.477583,-2.744367,-1.2432206
1638,A,1140345050379817,9.388563,-0.5790975,-0.19587563,-2.583044,-3.0373147,-1.3369639
1638,A,1140345100359397,12.079645,-0.7826047,-0.24854806,-1.4197754,-2.2096043,-2.16787
1638,A,1140345150338977,13.420399,-0.87119013,0.37394437,-0.92655796,-2.8945692,-2.679197
1638,A,1140345200318557,13.523349,0.471957,2.0522797,-2.361469,-3.0532937,-1.3902271
1638,A,1140345250298137,16.810589,2.844611,3.3786676,-2.6213937,-0.9462006,0.21193063
1638,A,1140345300277717,15.833754,-0.85921913,1.3316251,-1.3484026,2.0099082,0.3568066
1638,A,1140345350257297,14.332589,-3.0954034,0.9653122,0.37626046,2.7332227,0.31845707
1638,A,1140345400236877,12.611158,-4.326023,0.029179333,1.7856053,3.0709116,0.7158007
1638,A,1140345450216457,15.709255,-2.6333225,-3.320309,2.0860097,3.6759818,1.6297976
1638,A,1140345500196037,12.400469,-1.9916766,-3.3777697,2.3512607,3.4490807,2.3882658
