Subject-Id,Activity Label,Time stamp,Accel_x,Accel_y,Accel_z,Gyro_x,Gyro_y,Gyro_z
1639,A,184964141163193,8.288427,-4.857087,9.167398,-3.5558815,-0.82497483,0.5897498
1639,A,184964190663193,14.506168,-13.624654,14.149732,0.61675936,0.5598689,-0.20387217
1639,A,184964240163193,8.800786,-3.22903,4.3766007,-0.9150909,-1.1946216,-0.52451676
1639,A,184964289663193,18.195633,-11.740417,0.48123455,-0.30043334,0.0655862,0.93596077
1639,A,184964339163193,16.316185,-3.9927802,-0.9864111,-4.3537645,0.0059313923,1.2502137
1639,A,184964388663193,11.582849,-3.9640498,0.5650316,-5.7801538,0.44801614,-0.05686568
1639,A,184964438163193,5.982811,-0.250643,0.21787235,-2.5960782,0.43736348,-0.5138641
1639,A,184964487663193,0.33010057,-4.4596496,-2.8323407,-4.7820005,0.56199944,-0.7748539
1639,A,184964537163193,1.3356652,-5.620837,-2.5091233,-3.425919,0.568391,-0.63317376
1639,A,184964586663193,0.83767134,-9.8298435,-7.69257,-2.5641203,0.35853392,-1.3596841
1639,A,184964636163193,1.7809868,-5.9536314,-4.2161894,-2.4778337,0.0038008634,-0.23902589
1639,A,184964685663193,5.142446,-10.007015,-3.715801,-2.9912913,0.070912525,0.38628432
1639,A,184964735163193,6.5598135,-7.2249527,-7.321469,-1.2730198,0.52791095,0.2616484
1639,A,184964784663193,12.64348,-4.4931684,-2.3822308,-0.50283355,0.52151936,0.77723634
1639,A,184964834163193,10.376171,-4.7421656,4.84347,0.55071294,0.31698862,-0.022777218
1639,A,184964883663193,9.016264,0.74055654,-1.055843,7.8339257,0.7452249,-1.314943
1639,A,184964933163193,7.7832503,-1.7326539,-5.0254292,8.170549,-0.007917046,-1.2137429
1639,A,184964982663193,0.51924247,1.2385504,-0.15801731,1.5808237,0.7878355,-0.82172555
1639,A,184965032163193,-4.2332478,-11.022157,11.781867,1.719308,2.3899932,0.30745476
1639,A,184965081780513,-4.3769,-6.6742864,13.998898,-2.4075263,2.7319431,0.6664489
1639,A,184965131397833,6.332364,-19.926193,3.8043866,-0.9502446,-1.0561372,2.3058908
1639,A,184965181015153,19.511847,-17.045967,-6.1770406,0.6242162,-3.653252,-0.11758575
1639,A,184965230632473,19.511847,17.104925,3.2082303,-1.5574454,-2.307823,-0.5990853
1639,A,184965280249793,19.511847,-11.299884,-3.1028855,2.520387,-2.207688,-0.47871038
1639,A,184965329867113,10.481516,-11.939136,0.1340753,4.3931217,-1.7229928,-0.09095414
1639,A,184965379484433,5.23582,-11.208904,-4.757279,3.3619459,-0.84841067,0.14659983
1639,A,184965429101753,1.8791491,0.039055414,3.2992098,0.09158398,-0.2880816,1.2544749
1639,A,184965478719073,1.1249756,-11.307066,0.009576807,-0.9353309,0.31059703,1.2076032
1639,A,184965528336393,1.2949638,-7.0334163,-0.49559975,-0.26421434,0.6099363,-0.1101289
1639,A,184965577953713,4.6109333,3.1754596,5.8921304,-0.10229415,0.5992837,0.48961496
1639,A,184965627571033,3.3180642,-11.98702,-1.3479356,1.1227599,-0.34880167,0.6866889
1639,A,184965677188353,3.9166148,-11.690139,2.0973208,-0.20988585,-0.25399312,-0.1101289
1639,A,184965726805673,5.870283,-4.095731,-0.61770403,0.10117136,0.9103409,-0.58523655
1639,A,184965776422993,6.507141,-11.429171,6.4284315,0.19065358,1.8083588,-1.1935025
1639,A,184965826040313,8.135198,-7.251289,3.4524388,1.1344779,1.1446991,-0.37537947
1639,A,184965875657633,13.174993,-11.14426,-0.11492168,-0.03305196,-0.986895,0.13807797
1639,A,184965925274953,13.488633,-5.4101477,6.861782,-3.6613426,0.22537586,1.1159908
1639,A,184965974892273,6.140828,1.5067011,1.9776106,-1.3316092,1.1660043,0.8145209
1639,A,184966024509593,4.1057568,-4.011934,2.9592333,1.9494052,1.7476387,-0.65554404
1639,A,184966074201713,2.9780877,-0.21233577,3.2632968,0.37814012,1.052021,-2.375946
1639,A,184966123893833,5.080197,-0.2889502,2.6048915,0.5730835,0.45973405,-3.8321626
1639,A,184966173585953,9.605238,-3.5378819,0.92655605,0.039386023,-0.5043303,-4.877187
1639,A,184966223278073,17.443853,-2.0822072,-1.2330139,-7.006273,-1.312866,-4.4361672
1639,A,184966272970193,19.511847,-4.696676,-2.6431987,-2.998748,-0.50859135,-2.7850077
1639,A,184966322662313,13.086408,-19.926193,4.63278,6.1603956,-1.199948,0.03048627
1639,A,184966372354433,10.060136,-3.954473,-0.7158663,3.7987041,-0.5096566,1.9277222
1639,A,184966422046553,5.8535237,-2.8746881,1.6184803,1.2367432,-0.4979387,2.2526278
1639,A,184966471738673,6.1336455,-3.4277487,3.3638535,1.723569,-0.46065444,2.1109476
1639,A,184966521430793,5.772121,-2.3886652,0.89782566,2.1997423,-0.13042246,1.0499443
1639,A,184966571122913,7.1416044,-2.6041431,2.4157495,1.0897367,0.28076962,0.10292425
1639,A,184966620815033,8.554183,-1.0574889,1.7142484,-1.6511886,0.94442934,-0.3178552
1639,A,184966670507153,12.281956,0.03187281,-0.06703765,-4.645647,1.4291247,-0.35833526
1639,A,184966720199273,12.327445,-0.5930138,-2.980781,-5.1282115,1.0914358,-0.8419653
1639,A,184966769891393,18.109442,-3.7820904,-0.8643068,-3.481313,0.3617297,-1.1018898
1639,A,184966819583513,8.879795,-4.914548,-1.2090719,1.0460609,-0.9581329,-0.53836495
1639,A,184966869275633,8.338705,-3.5139399,2.813187,3.955298,-0.7866253,0.26804024
1639,A,184966918967753,4.2972927,-3.18354,0.45250413,1.9217082,-0.5842251,0.2691055
1639,A,184966968659873,3.3348236,1.3438953,0.5386954,0.4676223,-0.5725072,-0.284832
1639,A,184967018351993,8.027459,-1.7494133,2.3415294,-0.08738045,0.062390406,-0.76526624
1639,A,184967068044113,10.383353,-2.0893898,1.9129672,-1.9952691,0.09115255,-0.75674415
1639,A,184967117782593,11.005846,-1.5602713,1.0773908,-2.3031304,-0.01643916,-0.6992199
1639,A,184967167521073,13.404836,-4.215441,1.4628572,-0.29617226,-0.14214036,-0.90375066
1639,A,184967217259553,14.0033865,-4.8642697,0.9888053,1.368836,0.16146,-0.784441
1639,A,184967266998033,13.845369,-6.6240077,3.3303347,1.7576575,0.043215647,0.09759793
1639,A,184967316736513,9.246108,-3.3128269,1.9488802,1.9984074,0.5066057,1.024378
1639,A,184967366474993,9.504682,-3.406201,1.757344,1.2793539,1.1084801,1.4920291
1639,A,184967416213473,7.476793,-1.8930653,1.8698715,-0.22373429,1.3087498,1.9138738
1639,A,184967465951953,6.282086,-1.5578771,1.757344,-0.8256087,1.2224634,1.9618107
1639,A,184967515690433,6.3275757,-1.9098247,0.29209262,0.1267377,1.0136715,1.2683235
1639,A,184967565428913,7.13921,-2.6256912,-1.0271125,1.3560529,0.3052707,0.32769504
1639,A,184967615167393,9.25329,-3.030311,-0.33518824,1.8535314,-0.28701633,-0.21772034
1639,A,184967664905873,12.758402,-1.2274773,-0.8331822,0.7371342,-0.5501366,-0.6171945
1639,A,184967714644353,11.381736,-1.2394483,0.22505496,-0.2801933,-0.63003147,-1.578063
1639,A,184967764382833,16.340128,-2.1516392,-0.21068975,-1.9835511,-0.12829192,-1.5407788
1639,A,184967814121313,7.0841436,-2.4245782,1.340753,-2.4735727,-0.34027955,-0.89203274
1639,A,184967863859793,7.840711,-2.0103812,1.0510546,-2.4298968,-0.062245533,-0.39135844
1639,A,184967913598273,6.272509,-4.004751,0.35673606,-1.5585107,-0.32856163,-0.058995944
1639,A,184967963336753,5.211878,-3.1907227,0.6536171,-0.6104253,-0.7567979,-0.24435195
1639,A,184968013075233,8.178294,-3.267337,1.9560628,0.42714226,-0.8409538,-0.6118682
1639,A,184968062813713,8.999505,-3.8323689,2.9520507,0.7744185,-1.0454845,-0.6832409
1639,A,184968112552193,9.8638115,-2.6783636,2.813187,1.1280862,-0.910196,-0.83983475
1639,A,184968162318913,13.234848,-3.5187283,3.5913026,0.87987965,-0.8292359,-1.0614097
1639,A,184968212085633,15.957055,-3.1021373,3.0310593,0.57840985,0.6823743,-0.61932504
1639,A,184968261852353,15.028105,-5.2234,3.5817258,-0.70842963,0.7249849,0.7069292
1639,A,184968311619073,9.595661,-2.6376622,1.3431472,0.004232296,0.93590724,1.83824
1639,A,184968361385793,9.217378,-3.4469023,1.7645266,0.31635478,1.1617433,2.156754
1639,A,184968411152513,7.2038536,-2.9225721,1.6400281,0.23965573,1.1979623,2.1599498
1639,A,184968460919233,6.3587003,-1.9074305,1.2856863,0.26309156,1.0925012,1.7072124
1639,A,184968510685953,6.4903817,-1.6536452,0.3878607,0.5943888,1.0786526,0.8049335
1639,A,184968560452673,6.3227873,-1.9074305,0.21068975,0.057495516,0.98597467,-0.13676025
1639,A,184968610219393,7.7952213,-1.3208512,-0.12928689,-1.2985861,0.80701023,-0.86753166
1639,A,184968659986113,10.955567,-1.4573207,-1.2162545,-2.305261,0.71326697,-1.0614097
1639,A,184968709752833,11.032182,-2.6400564,-0.8714894,-1.8003256,-0.109117165,-1.5077555
1639,A,184968759519553,16.067188,-3.157204,-1.448492,-1.253845,-0.2699721,-1.4204038
1639,A,184968809286273,10.862194,-4.136432,-0.4285621,-0.13212155,-1.1189878,-0.913338
1639,A,184968859052993,8.779239,-4.071789,2.3343468,1.6447395,-1.1946216,-0.38603213
1639,A,184968908819713,5.882254,-4.1747394,2.0326772,1.6213037,-1.1541415,-0.10267179
1639,A,184968958586433,4.8383822,-1.75899,1.7980455,0.5091676,-1.0156572,-0.33702996
1639,A,184969008353153,6.5622077,-1.6991351,2.3199813,0.3909233,-0.91552234,-0.9112075
1639,A,184969058119873,9.715371,-2.9824271,3.4715924,0.26522207,-0.75147164,-1.134913
1639,A,184969107886593,9.691429,-3.0135517,3.1316159,0.42394647,-0.7397537,-1.0795193
1639,A,184969157653313,12.672211,-3.9688382,3.1771057,1.1824148,-0.31577846,-0.81959474
1639,A,184969207445553,13.7088995,-4.193893,2.372654,0.9192944,-0.17516357,-0.44142586
1639,A,184969257237793,18.530823,-3.9018006,3.347094,0.1331293,0.7228544,0.4459394
1639,A,184969307030033,8.56376,-2.992004,1.9560628,-0.11827312,0.7484207,1.2374308
1639,A,184969356822273,9.356241,-3.1308677,1.5586253,0.65830463,1.0562822,1.4366353
1639,A,184969406614513,8.793604,-3.4014125,1.4197617,0.30783266,1.3034235,1.5687281
1639,A,184969456406753,7.3331404,-1.6320974,1.2545617,-0.65942746,1.2821182,1.6709934
1639,A,184969506198993,6.792051,-1.63928,0.019153614,-0.39630714,1.0371073,1.3269131
1639,A,184969555991233,6.7489552,-2.5131636,-0.6967127,1.0066462,0.53430253,0.44700468
1639,A,184969605783473,8.207025,-2.9513025,-0.8403648,2.0463443,0.10819678,-0.16871817
1639,A,184969655575713,9.672276,-2.0702362,0.6536171,1.1866758,-0.2188394,-0.49895015
1639,A,184969705367953,11.676223,-1.3232454,-0.47165772,-0.4538314,-0.62790096,-1.2169384
1639,A,184969755160193,15.590742,-0.88750064,-0.14604631,-1.8482625,-0.023896012,-1.4875156
1639,A,184969804952433,10.091261,-3.1045315,1.4221559,-2.7516067,-0.36051956,-0.9197296
1639,A,184969854744673,8.1998415,-2.884265,1.0103531,-1.777955,-0.36478063,-0.27417937
1639,A,184969904536913,7.82874,-4.3495164,0.5793968,-0.5656842,-0.45426285,0.25312653
1639,A,184969954329153,5.391443,-3.01834,1.0965444,-0.40376398,-0.6236399,0.3383477
1639,A,184970004121393,5.702689,-2.268955,1.1085154,-0.051161453,-0.8718465,-0.22624245
1639,A,184970053913633,7.7760677,-2.8627172,1.7645266,0.39518434,-0.90700024,-0.77698416
1639,A,184970103705873,8.087314,-2.6041431,2.1811178,0.71582896,-1.199948,-1.3500965
1639,A,184970153498113,11.858182,-2.8698997,3.074155,1.4455351,-0.8590633,-1.6931115
1639,A,184970203290353,14.089578,-4.998345,4.10845,1.4647099,-0.8558675,-1.5769978
1639,A,184970253101393,19.511847,-5.1132665,4.402937,0.7051763,0.67172164,-0.16871817
1639,A,184970302912433,10.096049,-3.0949545,2.0709844,0.052169196,0.8581429,1.3002815
1639,A,184970352723473,10.783185,-2.4557028,2.0207062,-0.2056248,1.3609477,1.8978949
1639,A,184970402534513,8.74572,-3.1260793,1.8004397,-0.39311135,1.4919753,1.9895076
1639,A,184970452345553,6.6651583,-2.422184,1.8315643,-0.460223,1.3716004,1.9500928
1639,A,184970502156593,5.4512978,-1.9002479,0.8690952,-0.16407949,1.1596128,1.5410312
1639,A,184970551967633,5.3172226,-1.6488568,-0.62728083,0.24604732,0.96573466,0.33621716
1639,A,184970601778673,8.453627,-1.6847697,-0.93373865,-0.29404175,0.92738515,-0.73011255
1639,A,184970651589713,11.460744,-1.8834885,-0.7685388,-1.7981951,0.8890356,-0.87818426
1639,A,184970701400753,12.167034,-1.3854946,-1.8219875,-2.580099,0.29248753,-1.0187992
1639,A,184970751211793,14.6163025,-1.9241899,-2.4492683,-2.2232356,0.028301945,-1.2712668
1639,A,184970801022833,9.926061,-4.155586,-0.79008657,-0.18858057,-1.0401583,-1.3703364
1639,A,184970850833873,8.063372,-4.5171103,0.7326257,2.4064035,-1.3970219,-0.9612749
1639,A,184970900644913,8.616432,-5.3886,2.5713725,2.649284,-1.2031437,-0.11012863
1639,A,184970950455953,5.712266,-1.5746366,1.2856863,0.2140894,-0.9890256,0.23182125
1639,A,184971000266993,6.320393,-1.1364976,1.42455,-0.32813022,-0.8856949,-0.08882335
1639,A,184971050078033,8.5182705,-2.2737434,2.4708161,-0.007485613,-0.7259053,-0.71200305
1639,A,184971099889073,9.329905,-2.9608793,2.9855695,-0.022399316,-1.0167224,-1.3096163
1639,A,184971149700113,13.103167,-2.7956793,2.695871,0.87135756,-0.7003389,-1.5897809
1639,A,184971199511153,14.386458,-4.8977885,3.2609026,2.2572665,-0.2880816,-1.3554227
1639,A,184971249322193,16.972197,-6.173898,4.88896,1.8556619,0.37557814,-0.2070677
1639,A,184971299148033,9.67467,-2.8052561,3.0621839,1.1366084,1.063739,0.8209125
1639,A,184971348973873,10.680235,-2.4844332,2.3175871,0.028733378,1.8786663,1.3013468
1639,A,184971398799713,9.159917,-1.9409494,1.8818425,-1.6671675,2.1684182,1.8627411
1639,A,184971448625553,6.80881,-1.7542017,1.6998832,-2.1955388,1.861622,2.1929731
1639,A,184971498451393,6.3826423,-2.5466824,0.6392518,-0.86821926,1.4962363,1.7828462
1639,A,184971548277233,7.23019,-2.6328738,-0.7110779,0.33446428,1.3268592,0.6888197
1639,A,184971598103073,9.238925,-1.7685668,-1.2665327,-0.5976421,1.0669347,-0.21239401
1639,A,184971647928913,13.680169,-1.5866076,-1.364695,-2.3446758,0.7963576,-0.17510976
1639,A,184971697754753,10.021829,-1.5842134,-1.8148049,-1.6586455,-0.21670887,-0.7620705
1639,A,184971747580593,15.811008,-2.8794765,-1.7142484,-0.7052338,-0.81858325,-1.1455656
1639,A,184971797406433,7.8933835,-3.406201,-0.5530606,0.9150334,-1.6707948,-1.2488964
1639,A,184971847232273,8.767267,-3.18354,1.1587936,2.601347,-1.6761211,-0.91227275
1639,A,184971897058113,6.5981207,-4.1651626,2.4540567,1.9792325,-1.4992872,-0.32211626
1639,A,184971946883953,4.919785,-0.7007529,2.585738,-0.48578933,-1.244689,-0.32531205
1639,A,184971996709793,6.0881557,-0.33204585,1.9177556,-2.2967389,-0.9560024,-0.99962443
1639,A,184972046535633,10.359411,-1.0886136,4.582502,-1.01203,-0.5245703,-1.6899158
1639,A,184972096361473,11.642704,-4.2537484,2.4420857,1.0236903,-0.49048182,-1.8592929
1639,A,184972146187313,14.977826,-5.604078,3.9097314,2.8399663,-0.71312207,-1.4726019
1639,A,184972196013153,16.270695,-4.6607623,3.3446999,2.3659236,0.79422706,-0.4851017
1639,A,184972245838993,14.314632,-4.100519,3.6703112,-0.2652796,1.1958318,0.8379567
1639,A,184972295664833,10.807127,-1.2777555,1.4939818,-1.2282786,1.6975713,1.8701979
1639,A,184972345497443,8.77445,-2.541894,1.5562311,-1.3134998,1.7945104,2.310152
1639,A,184972395330053,6.698677,-3.243395,1.5035586,-0.69032013,1.6091543,2.3793943
1639,A,184972445162663,6.1791353,-2.4365492,0.9983821,-0.053291984,1.4813226,2.039575
1639,A,184972494995273,5.7936687,-1.675193,-0.12928689,0.29824528,1.341773,1.0137253
1639,A,184972544827883,7.354688,-1.6057612,-0.557849,-0.26421434,1.120198,-0.14315183
1639,A,184972594660493,10.342652,-1.4645033,-0.39025488,-1.7768898,0.90181875,-0.6534135
1639,A,184972644493103,12.878112,-1.615338,-1.2808979,-2.4480064,0.1401547,-0.965536
1639,A,184972694325713,12.006622,-2.0031986,-1.9608512,-1.2346703,-0.3477364,-1.5130819
1639,A,184972744158323,12.693758,-4.4716206,-0.38067806,0.53579926,-1.2681248,-1.546105
1639,A,184972793990933,8.8366995,-4.5626,1.3455414,2.3158562,-1.4971567,-0.93038225
1639,A,184972843823543,8.104074,-3.8395514,2.2361844,1.6585879,-1.2691901,-0.21985087
1639,A,184972893656153,5.482423,-1.7685668,1.8339585,0.08945345,-1.0263098,-0.009993779
1639,A,184972943488763,6.0594254,-1.0838252,1.6496049,-0.30789018,-0.9560024,-0.4765796
1639,A,184972993321373,8.269274,-2.4987984,2.6599581,0.16402195,-0.9410887,-1.1178688
1639,A,184973043153983,9.930849,-3.2481835,3.3566709,0.5336687,-1.1807731,-1.4747324
1639,A,184973092986593,12.61475,-3.4540849,3.8977604,1.4753624,-0.7141874,-1.3650101
1639,A,184973142819203,14.27872,-4.854693,2.834735,1.6745669,-0.5629198,-0.8909675
1639,A,184973192651813,16.505327,-3.264943,3.3423057,0.64019513,0.43310243,-0.03982118
1639,A,184973242484423,10.325892,-3.1236851,3.643975,-0.031986695,0.8592082,0.7005376
1639,A,184973292317033,10.416872,-2.9848213,2.4492683,0.057495516,1.3950362,1.0115948
1639,A,184973342163653,9.037812,-3.0710125,1.6543933,-0.6690148,1.6347207,1.4440922
1639,A,184973392010273,5.992388,-1.8547581,1.4053963,-1.2836725,1.4621478,1.77752
1639,A,184973441856893,6.188712,-1.8619407,0.5626374,-0.62320846,1.2299203,1.3556752
1639,A,184973491703513,8.298004,-2.6448448,-0.46926352,0.16615249,1.1990275,0.5567269
1639,A,184973541550133,8.544606,-2.2713492,-0.5410896,-0.6892548,0.89329666,0.08694529
1639,A,184973591396753,11.812692,-1.0598831,-1.4820108,-2.1369493,0.72391963,0.02089889
1639,A,184973641243373,10.948385,-1.9912276,-0.9864111,-1.5105737,-0.09739926,-0.5415607
1639,A,184973691089993,14.776713,-2.5394998,-1.316811,-0.8202824,-0.2667763,-0.8504874
1639,A,184973740936613,10.227731,-2.994398,0.007182605,0.039386023,-0.9410887,-0.691763
1639,A,184973790783233,8.266879,-2.814833,1.7980455,0.90225023,-0.95706767,-0.41799006
1639,A,184973840629853,6.4089785,-2.9848213,1.970428,0.756309,-0.9048697,-0.2912236
1639,A,184973890476473,4.469675,-1.366341,1.0103531,0.027668113,-0.9197834,-0.6448914
1639,A,184973940323093,5.4560866,-1.3639468,1.1204864,0.18745777,-1.0380278,-1.5706061
1639,A,184973990169713,9.289204,-2.8244097,2.6240451,0.38559696,-0.9400234,-2.1096299
1639,A,184974040016333,10.790368,-3.2864907,2.645593,0.53473395,-0.9762424,-2.1011078
1639,A,184974089862953,15.844527,-4.6727333,3.1004913,1.3422045,-0.6854252,-1.501364
1639,A,184974139709573,16.076765,-4.586542,2.5929205,1.7022638,0.50127935,-0.2699183
1639,A,184974189556193,13.371317,-4.756531,3.8283286,0.45270863,0.5385636,1.0776412
1639,A,184974239402813,9.830293,-2.9369373,2.2218192,0.93633866,0.995562,1.7892379
1639,A,184974289249433,9.337088,-3.279308,1.376666,1.0726925,1.434451,1.9085474
1639,A,184974339096053,8.1519575,-2.1061492,2.0901382,-0.28765017,1.6261985,1.967137
1639,A,184974388951393,6.9213376,-1.105373,1.4413095,-1.1867334,1.6006322,1.8009558
1639,A,184974438806733,6.6795235,-1.3232454,-0.30645782,-0.82986975,1.5122153,1.2448877
1639,A,184974488662073,7.8071923,-2.1276972,-0.7445967,-0.739322,1.3556215,0.65579647
1639,A,184974538517413,11.00824,-1.5339351,-1.3239936,-1.5190955,1.0626737,0.27762762
1639,A,184974588372753,11.221324,-1.2657845,-1.5777789,-1.436005,0.38196975,-0.37111843
1639,A,184974638228093,10.819098,-1.5219641,-1.3431472,-0.80323786,-0.16451092,-1.6515663
1639,A,184974688083433,14.422372,-3.4971805,-0.7517793,-0.816021,-0.8004738,-2.0286698
1639,A,184974737938773,7.151181,-3.5809774,0.90979666,1.0109074,-1.4044787,-1.5130819
1639,A,184974787794113,8.496722,-3.7749078,2.5354595,2.4809723,-1.2106006,-0.7716578
1639,A,184974837649453,6.341941,-3.097349,0.58418524,1.1802845,-0.962394,-0.41159847
1639,A,184974887504793,6.9380975,-0.9545383,1.448492,-0.5028333,-0.81006116,-0.47444907
1639,A,184974937360133,8.23336,-1.7422307,2.480393,-0.86395794,-0.6673157,-0.7961589
1639,A,184974987215473,9.049783,-3.3439517,2.5234885,-0.37287104,-0.87291175,-1.1370436
1639,A,184975037070813,12.243649,-3.1165025,2.2649148,0.3770751,-0.57357246,-1.320269
1639,A,184975086926153,13.900435,-4.749348,3.3734303,1.2005246,-0.7674506,-1.275528
1639,A,184975136781493,19.511847,-5.5178866,3.9217024,1.2559183,0.5651952,-0.21772034
1639,A,184975186636833,10.445602,-4.356699,1.9967642,0.5666922,0.8943619,1.2576709
1639,A,184975236492173,10.445602,-2.6400564,1.5993267,0.041516818,1.2970319,2.1706026
1639,A,184975286347513,7.9029603,-2.32881,1.8315643,-0.54437864,1.4067541,2.575403
1639,A,184975336202853,6.4233437,-2.3024738,2.0973208,-0.296172,1.281053,2.514683
1639,A,184975386067133,5.992388,-1.960103,0.81881696,0.719025,1.1617433,1.6475576
1639,A,184975435931413,7.0195003,-1.6488568,-0.23702596,0.54645216,1.2767918,0.44167835
1639,A,184975485795693,8.81994,-1.1460744,-0.1316811,-1.2037773,1.1436338,-0.21026349
1639,A,184975535659973,11.250054,-0.64089787,-1.2042835,-2.3691766,0.9486904,-0.44462165
1639,A,184975585524253,11.357794,-2.0247464,-1.067814,-1.6724937,0.061325144,-1.2009594
1639,A,184975635388533,15.389629,-2.173187,-2.1499932,-0.7691494,-0.21670887,-1.6973727
1639,A,184975685252813,11.070489,-3.6647747,-0.007182605,0.19917595,-1.1328362,-1.4715365
1639,A,184975735117093,9.440038,-3.597737,1.6783354,1.7310262,-1.1083353,-0.77485365
1639,A,184975784981373,6.9189434,-3.7701194,2.15957,1.2963983,-1.0582677,-0.23476458
1639,A,184975834845653,4.3547535,-1.1724106,1.0630256,0.22367704,-0.9549371,-0.35194367
1639,A,184975884709933,5.439327,-1.4812627,1.4939818,0.27054867,-1.0231141,-1.134913
1639,A,184975934574213,9.528624,-2.8866591,3.028665,0.2428518,-0.78023374,-1.6515663
1639,A,184975984438493,9.760861,-2.8076503,2.9472623,-0.28338882,-0.9016739,-1.7367874
1639,A,184976034302773,15.217247,-3.3224037,2.4157495,0.15656537,-0.36904168,-1.191372
1639,A,184976084167053,13.833398,-5.0558057,1.8818425,1.2314172,0.2062011,-0.42438164
1639,A,184976134031333,16.459837,-6.154744,4.2521024,0.57095325,0.4149932,0.8379567
1639,A,184976183895613,9.875783,-2.6496332,1.8028339,0.666827,0.87412214,1.806282
1639,A,184976233759893,10.103231,-2.9752445,1.6424223,0.62528175,1.3066195,2.088577
1639,A,184976283624173,8.149563,-2.5155578,1.5945383,-0.110815994,1.429125,2.2696722
1639,A,184976333488453,6.7058597,-1.6057612,1.5442601,-0.47833222,1.2767922,2.2068214
1639,A,184976383352733,6.7537436,-1.6249148,-0.007182605,0.060691576,1.1052846,1.4973553
1639,A,184976433227293,8.032248,-1.6775872,-0.8714894,0.20876333,1.0914361,0.48641944
1639,A,184976483101853,11.027393,-1.4812627,-0.91697925,-1.3305438,0.93058115,0.0070504528
1639,A,184976532976413,11.30991,-0.6025906,-1.3311762,-1.8940686,0.4714522,-0.49362382
1639,A,184976582850973,10.732907,-1.4668975,-1.6759412,-1.2101688,-0.110182166,-1.6941768
1639,A,184976632725533,14.724041,-3.1380503,-1.1827357,-0.7297346,-0.7173829,-2.0755415
1639,A,184976682600093,7.632416,-3.3894415,0.60094464,1.1025202,-1.3746511,-1.7836591
1639,A,184976732474653,9.183859,-3.7725136,1.946486,2.7004168,-1.2137961,-1.0656708
1639,A,184976782349213,6.4305263,-3.8156092,0.94810385,1.5424744,-1.0721159,-0.42438164
1639,A,184976832223773,5.8535237,-0.74863696,1.0893618,-0.20775506,-0.94641477,-0.30507204
1639,A,184976882098333,8.060978,-1.6704046,2.552219,-0.7052336,-0.68222916,-0.64808714
1639,A,184976931972893,10.316316,-2.9967923,2.5210943,-1.0748804,-0.669446,-0.9250559
1639,A,184976981847453,11.329063,-2.4126072,1.9728222,-0.50176805,-0.58955115,-1.1572835
1639,A,184977031722013,14.305056,-4.806809,2.9400797,1.2974635,-0.8132567,-1.1721972
1639,A,184977081596573,17.355268,-5.4771852,3.7565024,2.152871,0.587566,-0.2635267
1639,A,184977131471133,10.886136,-4.4811974,3.3135753,0.5357995,0.8464253,1.0147907
1639,A,184977181345693,10.407295,-1.7757494,1.6783354,0.2726792,1.4781271,1.7572799
1639,A,184977231220253,10.019435,-2.446126,1.4867992,-0.36861,1.8871887,2.0587497
1639,A,184977281094813,8.240543,-2.0295348,1.9129672,-1.1739498,1.8264686,2.2739332
1639,A,184977330969373,7.1416044,-1.6895583,1.376666,-0.8330653,1.5431082,2.0683372
1639,A,184977380843933,7.1176624,-1.9529204,-0.15801731,0.14910853,1.3524259,1.2438225
1639,A,184977430718493,8.5422125,-1.7422307,-0.7422025,-0.21627718,1.2533563,0.43528676
1639,A,184977480599323,11.027393,-0.98566294,-1.0007763,-1.6937989,0.9838444,0.0134420395
1639,A,184977530480153,11.111191,-0.98566294,-1.3455414,-1.6959294,0.16146027,-0.8121379
1639,A,184977580360983,12.054506,-1.615338,-1.5131354,-0.85543585,-0.17835909,-1.7921811
1639,A,184977630241813,11.022605,-3.087772,-0.6344634,-0.2184077,-1.0337664,-2.0606277
1639,A,184977680122643,8.795998,-3.2146647,0.40222588,1.2559183,-1.3799773,-1.7740717
1639,A,184977730003473,9.131186,-4.143615,1.4820108,2.1059992,-1.3363016,-1.1008246
1639,A,184977779884303,5.630863,-2.3695116,0.7422025,0.8937284,-1.3011478,-0.691763
1639,A,184977829765133,6.3036337,-1.1580454,1.0773908,-0.057552774,-1.2872994,-0.99110234
1639,A,184977879645963,9.866206,-2.2593782,2.4995465,-0.2663446,-1.003939,-1.4108166
1639,A,184977929526793,10.567707,-3.2026937,2.918532,-0.41122055,-1.040158,-1.5599536
1639,A,184977979407623,14.2021055,-3.552247,3.6894648,0.45910048,-0.5757027,-1.2819195
1639,A,184978029288453,14.403218,-5.4532433,3.4644098,1.5382134,0.084761225,-0.52238595
1639,A,184978079169283,15.9379015,-6.070947,5.482722,0.9214252,0.680244,0.7474092
1639,A,184978129050113,10.766426,-2.5107694,2.6408045,0.7381998,1.3055543,1.6241219
1639,A,184978178930943,11.647492,-2.5514708,1.5634137,0.30357188,1.932995,1.9554191
1639,A,184978228811773,8.594885,-2.1109376,1.8914193,-0.7798021,1.9606919,2.297369
1639,A,184978278692603,7.1775174,-1.4285902,1.7956513,-1.1558404,1.695441,2.326131
1639,A,184978328573433,7.8574705,-1.7182887,-0.19393034,-0.25888774,1.510085,1.733844
1639,A,184978378454263,9.351453,-2.0247464,-1.0342951,-0.25356144,1.578262,1.0797718
1639,A,184978428335093,12.332233,-0.86355865,-1.7118542,-1.4850072,1.2714658,0.7292997
1639,A,184978478224693,11.343429,-0.820463,-2.0015526,-1.7033863,0.48103958,-0.08882335
1639,A,184978528114293,11.731289,-1.0119991,-2.1021092,-1.0397266,-0.0015251923,-1.3277259
1639,A,184978578003893,9.61242,-2.6999114,-1.1923125,-0.4698101,-1.112596,-1.9626235
1639,A,184978627893493,7.136816,-2.9010243,0.3878607,1.4018595,-1.720862,-1.944514
1639,A,184978677783093,8.772056,-3.6863225,2.0925324,2.769659,-1.6260535,-1.4022944
1639,A,184978727672693,6.260538,-3.054253,1.2976574,1.5339522,-1.4353712,-0.9793844
1639,A,184978777562293,6.698677,-0.36556467,1.1875241,-0.28338882,-1.2212529,-1.1136078
1639,A,184978827451893,10.160693,-1.2250831,2.6144683,-1.3880681,-0.725905,-1.4310565
1639,A,184978877341493,10.991481,-2.7932851,2.7365725,-1.5904683,-0.8675852,-1.7122866
1639,A,184978927231093,13.376105,-4.004751,3.0358477,0.44099098,-0.74507976,-1.6121517
1639,A,184978977120693,14.350546,-6.6527386,4.0342298,2.3414228,-0.11657375,-0.8654014
1639,A,184979027010293,16.385616,-6.4300776,5.686229,1.1909372,0.6706567,0.5109203
1639,A,184979076899893,11.719318,-1.7781436,2.3822308,0.15230432,1.4759966,1.61773
1639,A,184979126789493,11.209353,-2.0415058,1.3958195,-0.9555707,2.0309994,2.3037603
1639,A,184979176679093,7.778462,-2.3335984,1.7549498,-1.5095081,1.8190117,2.7831292
1639,A,184979226568693,6.6579757,-2.4772506,1.9009962,-0.755301,1.3652091,2.653167
1639,A,184979276458293,7.562984,-2.3024738,-0.15801731,0.8053114,1.1201982,1.7700628
1639,A,184979326347893,9.205406,-2.1588218,-1.2234371,1.2196993,0.7207241,0.9135902
1639,A,184979376237493,10.764031,-1.3974656,-2.6623523,1.2846804,0.17317818,0.33408636
1639,A,184979426127093,11.367371,-1.0407295,-0.6344634,0.76483136,-0.62577015,-0.51919043
1639,A,184979476016693,11.757626,-1.0311527,-0.2705448,0.3003761,-0.6300312,-1.4704716
1639,A,184979525913643,11.949162,-2.1660044,0.16759412,-1.4253523,-0.87078094,-1.6164128
1639,A,184979575810593,9.315539,-1.9098247,0.7398083,-1.1611667,-0.83243144,-0.9900373
1639,A,184979625707543,8.63798,-2.3431752,1.4556746,-0.66155773,-0.6747723,-0.525582
1639,A,184979675604493,5.094562,-2.8794765,0.7134721,-0.38885,-0.8931515,-0.46166617
1639,A,184979725501443,5.798457,-2.1420624,1.4867992,-0.4847238,-1.040158,-0.86966246
1639,A,184979775398393,8.063372,-2.2952912,1.7381904,-0.4485048,-0.9964822,-1.3863157
1639,A,184979825295343,9.042601,-2.9896097,2.1643584,0.08945372,-1.261733,-1.7431793
1639,A,184979875192293,12.583625,-3.8539166,3.7086184,1.1035855,-0.83562726,-1.5663453
1639,A,184979925089243,15.121479,-4.6870985,3.359065,1.1845455,-0.7014039,-1.149827
1639,A,184979974986193,19.511847,-4.904971,4.618415,0.16934855,0.8400337,0.2286252
1639,A,184980024883143,10.855011,-3.0207343,2.1164744,-0.4399827,1.0445645,1.7274523
1639,A,184980074780093,10.91726,-2.5586534,2.2697031,-0.646644,1.5079545,2.5381184
1639,A,184980124677043,9.432856,-2.790891,1.5897499,-0.88419795,1.7295295,2.9035041
1639,A,184980174573993,8.104074,-1.8308161,1.1204864,-0.70416826,1.5324556,2.8331966
1639,A,184980224470943,7.517494,-1.4836569,0.09816227,0.094780035,1.3066195,2.0193348
1639,A,184980274367893,8.738537,-1.9696798,-0.25617957,0.009558884,1.2831837,1.1916243
1639,A,184980324264843,8.779239,-0.88989484,-0.8571242,-0.6338608,1.0839792,0.50772446
1639,A,184980374161793,8.520664,-0.5690718,-1.496376,-0.9885939,0.7739873,-0.47444934
1639,A,184980424058743,8.927679,-1.6081554,-1.2234371,-0.8043031,0.11884969,-1.9647542
1639,A,184980473955693,13.218088,-1.105373,-1.8555063,-1.2304089,-0.19433805,-2.7317448
1639,A,184980523852643,9.763255,-3.0135517,-0.12449849,-0.5049638,-1.1967518,-2.5985866
1639,A,184980573749003,9.4974985,-3.6264675,1.8794483,1.9302306,-1.277712,-1.9093605
1639,A,184980623645363,8.606855,-5.2186117,3.1435869,1.8396832,-1.0944865,-1.0923027
1639,A,184980673541723,6.7034655,-1.1867758,1.3790601,-0.5422481,-0.80153877,-0.9218604
1639,A,184980723438083,9.092878,-1.1317092,2.1619642,-1.4477229,-0.3690414,-1.0678016
1639,A,184980773334443,9.681852,-3.3535285,3.083732,-1.2964553,-0.6108565,-1.3064208
1639,A,184980823230803,10.696994,-3.9401078,2.5091233,0.55071324,-0.7035344,-1.4406441
1639,A,184980873127163,13.9076185,-6.1212254,3.9312792,2.113456,-0.8249746,-1.2552881
1639,A,184980923023523,19.511847,-6.5857005,4.10845,0.8170293,0.87518746,0.3575222
1639,A,184980972919883,8.348282,-2.7334301,1.8195933,0.13952114,0.4714522,1.8808503
1639,A,184981022816243,9.65791,-3.01834,3.071761,0.75950503,0.88370955,2.427331
1639,A,184981072712603,9.214983,-3.894618,1.5227122,1.2388741,1.340708,2.3943079
1639,A,184981122608963,8.456021,-1.5459061,1.8842367,0.2130244,1.4365817,2.2483666
1639,A,184981172505323,6.9859815,-1.0886136,1.42455,-0.4879196,1.236312,1.726387
1639,A,184981222401683,7.488764,-1.4597149,0.02873042,-0.3718058,1.1212635,0.95726603
1639,A,184981272298043,9.849446,-1.7422307,-0.16280572,-1.0983161,1.0711961,0.53861713
1639,A,184981322194403,11.585243,-0.8013094,-1.2449849,-1.786477,0.79955363,0.18388408
1639,A,184981372090763,10.907683,-1.7278655,-0.94810385,-0.95450544,-0.093137935,-0.871793
1639,A,184981421987123,13.706506,-1.8020856,-1.5011644,-0.11720758,-0.41271725,-1.7548972
1639,A,184981471883483,9.365818,-2.9273605,0.29927522,0.5688227,-1.1743814,-1.8038993
1639,A,184981521779843,8.56376,-3.1069257,2.0590134,1.6383482,-1.1189876,-1.2904419
1639,A,184981571676203,7.302016,-3.6121023,2.3918076,0.9192947,-0.8398883,-0.69815487
1639,A,184981621582083,5.092168,-1.0503063,1.2521675,-0.3867195,-0.6470754,-0.5351694
1639,A,184981671487963,6.5861497,-1.6967409,1.6591818,-0.41654688,-0.6215091,-1.0209299
1639,A,184981721393843,10.069713,-3.0949545,2.3415294,-0.100163355,-0.5682459,-1.5706065
1639,A,184981771299723,11.736077,-3.1428387,2.6144683,0.49212366,-0.6598586,-1.7527666
1639,A,184981821205603,14.010569,-5.1515737,3.8043866,1.5382134,-0.85586727,-1.3500967
1639,A,184981871111483,19.511847,-5.6615386,3.4883518,1.9238391,0.6461556,0.012376509
1639,A,184981921017363,10.534188,-4.08376,2.3535004,0.6710881,0.91034114,1.355675
1639,A,184981970923243,11.448773,-2.1157262,1.958457,-0.10335915,1.5122156,2.105621
1639,A,184982020829123,8.930073,-2.1995232,1.8411411,-0.9374612,1.695441,2.540249
1639,A,184982070735003,6.3227873,-2.0343232,1.982399,-1.0929898,1.4355165,2.661689
1639,A,184982120640883,5.6931124,-2.0295348,0.7134721,-0.05648751,1.1308509,2.00016
1639,A,184982170546763,6.672341,-1.7565958,-0.5291186,0.7296776,1.0701308,0.7378216
1639,A,184982220452643,7.9747868,-1.7039235,0.04070143,-0.14277393,0.92845064,-0.17084898
1639,A,184982270358523,11.089643,-0.88271224,-0.4261679,-1.7683674,0.73031145,-0.41692504
1639,A,184982320264403,11.836634,-1.1748048,-1.3239936,-1.9654413,-0.08674635,-1.2403744
1639,A,184982370170283,16.830938,-1.816451,-2.4396915,-1.4477229,-0.39567304,-1.6611539
1639,A,184982420076163,6.7513494,-3.3559227,-0.02633622,0.79785454,-1.6430976,-1.8550321
1639,A,184982469982043,8.515876,-3.645621,1.8219875,3.3225312,-1.648424,-1.4065557
1639,A,184982519887923,7.804798,-5.0414405,2.645593,2.1262393,-1.2947562,-0.6001505
1639,A,184982569793803,5.9756284,0.40057987,1.3000516,-1.146253,-0.9783727,-0.34129128
1639,A,184982619699683,6.6076975,-0.5858312,1.5562311,-1.6692978,-0.82390934,-0.6470222
1639,A,184982669612763,9.751285,-3.504363,2.837129,-0.40909004,-0.74721026,-1.2052207
1639,A,184982719525843,10.550947,-3.7509658,2.9161377,0.8148988,-0.93895787,-1.48432
1639,A,184982769438923,14.716859,-4.502745,3.9743748,1.7107862,-0.9623937,-1.2531576
1639,A,184982819352003,17.048811,-4.8522987,3.7828386,2.1219783,0.5918271,-0.3018765
1639,A,184982869265083,14.714464,-4.998345,3.6583402,0.70517653,0.9572128,1.0765756
1639,A,184982919178163,11.53257,-1.8140568,1.7980455,0.11608533,1.5697398,2.0512927
1639,A,184982969091243,9.353847,-1.828422,1.8076223,-0.58272815,1.8222075,2.4965732
1639,A,184983019004323,7.1847,-2.4126072,2.1906946,-0.8405221,1.7103547,2.6126869
1639,A,184983068917403,6.2988453,-2.0271406,1.2808979,-0.2301256,1.4930408,2.1482317
1639,A,184983118830483,6.1336455,-1.5267525,-0.11492168,0.42501202,1.3470995,0.916786
1639,A,184983168743563,8.269274,-1.402254,-0.6392518,-0.5614228,1.4024934,-0.07390991
1639,A,184983218656643,9.995493,-1.0622773,-0.5243302,-2.1135132,1.1074151,-0.40094608
1639,A,184983268569723,12.167034,-1.0335469,-1.8650831,-2.4384189,0.36812156,-1.045431
1639,A,184983318482803,13.191752,-1.8236336,-2.3702598,-1.347588,-0.11124743,-1.8774025
1639,A,184983368395883,11.017817,-3.7318122,-0.59855044,0.22367704,-1.112596,-2.124544
1639,A,184983418308963,8.556578,-3.942502,0.5530606,2.4266438,-1.5994219,-1.7698109
1639,A,184983468222043,9.047389,-4.6631565,1.6807296,3.1467626,-1.4811774,-0.92079514
1639,A,184983518135123,5.9349265,-2.2833202,0.85473,0.85005254,-1.237232,-0.33703023
1639,A,184983568048203,5.985205,-0.4397849,1.4939818,-0.9278738,-1.1637287,-0.5522136
1639,A,184983617961283,9.387365,-1.5147815,1.9440918,-1.444527,-0.7109913,-1.1295869
1639,A,184983667874363,10.821492,-3.5354877,2.171541,-1.1153604,-0.9560021,-1.5865854
1639,A,184983717793283,13.854946,-3.777302,2.3295584,1.2484614,-1.0998129,-1.7410487
1639,A,184983767712203,16.854881,-6.5497875,4.074931,4.0969787,0.09860966,-1.0709974
1639,A,184983817631123,16.589125,-7.1962223,5.104438,2.0974772,0.716463,0.5609877
1639,A,184983867550043,10.021829,-0.25782558,1.6472107,0.7381998,1.6432431,1.7743238
1639,A,184983917468963,9.5693245,-0.8132804,1.5131354,-0.590185,2.3303387,2.1152084
1639,A,184983967387883,7.062596,-1.5363293,2.0566192,-1.286868,2.4091682,2.1311874
1639,A,184984017306803,6.543054,0.64957684,2.5019407,-2.7729118,2.0363257,2.0076168
1639,A,184984067225723,8.149563,-0.9449615,-0.11971009,-2.052793,1.9234077,1.2544749
1639,A,184984117144643,9.047389,-2.9225721,-1.5729905,-1.1654278,1.7945106,0.7165163
1639,A,184984167063563,10.333076,-1.1700164,-2.5115175,-1.7534537,1.2544216,0.33515164
1639,A,184984216982483,11.69777,-1.1700164,-2.4971523,-1.4551797,0.42884165,-0.38390186
1639,A,184984266901403,10.634745,-2.1444566,-1.6927006,-0.39311108,-0.35306245,-1.5823244
1639,A,184984316820323,12.930784,-2.7406127,-1.1994951,0.030864172,-1.2244488,-2.105369
1639,A,184984366739243,8.388984,-3.3774705,0.5626374,1.5616492,-1.688904,-1.814552
1639,A,184984416658163,8.420108,-3.9018006,2.528277,2.3936207,-1.5046133,-1.0603448
1639,A,184984466577083,4.7474027,-2.6903346,1.0845734,0.9342084,-1.3821079,-0.6491527
1639,A,184984516496003,6.2413845,-0.5211878,1.4101849,-0.25356144,-1.3107352,-1.0177342
1639,A,184984566414923,11.463139,-2.1588218,2.9879637,-0.54650915,-0.7280355,-1.2116123
1639,A,184984616333843,9.873388,-3.2146647,3.6535518,-0.012811669,-1.0678549,-1.1647407
1639,A,184984666252763,12.6817875,-3.7916672,3.4955344,2.1368918,-0.7397534,-1.170067
1639,A,184984716171683,14.221259,-5.450849,4.6806645,2.462863,-0.22842652,-0.97938466
1639,A,184984766095583,18.942625,-3.645621,4.8937483,0.5603006,0.98277915,-0.02810354
1639,A,184984816019483,10.787973,-2.2521956,2.8514943,-0.24077825,1.5494999,1.0808368
1639,A,184984865943383,12.049718,-2.6687868,1.2904748,-0.868219,2.1396563,1.9309177
1639,A,184984915867283,9.049783,-2.6735752,1.2306197,-1.7577147,1.9841278,2.6755376
1639,A,184984965791183,7.098509,-2.019958,1.4891934,-1.6234915,1.562283,2.935462
1639,A,184985015715083,7.074567,-2.410213,0.016759412,0.10543268,1.2448342,2.282455
1639,A,184985065638983,8.022671,-2.1755812,-0.89064306,1.0183643,1.1819836,1.2246474
1639,A,184985115562883,10.773608,-1.4118308,-0.6775591,-0.03944328,1.0243244,0.48961496
1639,A,184985165486783,11.027393,-0.061501056,-1.0486604,-1.327348,0.5556081,-0.25180906
1639,A,184985215410683,9.200618,-0.5140052,-0.90500826,-1.2826068,-0.19114226,-1.7037644
1639,A,184985265334583,12.885294,-1.960103,-1.472434,-1.3795459,-0.8494757,-2.4846034
1639,A,184985315258483,8.731355,-2.611326,-0.08619126,0.14804326,-1.616466,-2.6838078
1639,A,184985365182383,10.019435,-3.4229603,1.6041151,2.3360963,-1.4726554,-2.1138914
1639,A,184985415106283,6.5382657,-5.3598695,2.2840683,2.2199826,-1.5088744,-1.1849808
1639,A,184985465030183,5.4129906,-1.0096049,0.9672575,0.19917595,-1.3288447,-0.7514181
1639,A,184985514954083,8.8366995,-1.318457,2.006341,-0.7094946,-0.8217788,-0.78870237
1639,A,184985564877983,12.892477,-2.94412,3.3063924,-1.5862073,-0.78129876,-1.0124079
1639,A,184985614801883,13.158234,-3.0566473,3.0190883,-0.4218732,-0.6651849,-1.1306522
1639,A,184985664725783,14.300267,-5.618443,4.027047,1.7406136,-0.18475068,-0.9538183
1639,A,184985714649683,19.511847,-6.743718,5.6551046,0.7669619,0.7026146,0.44061282
1639,A,184985764573583,11.120768,-2.0846014,1.8555063,0.59545434,1.2991626,1.8126734
1639,A,184985814501853,10.708965,-2.2593782,1.5658079,0.005297826,1.8030328,2.5018995
1639,A,184985864430123,7.649175,-2.4604912,2.0039468,-0.5933808,1.747639,2.8619587
1639,A,184985914358393,6.3994017,-1.8858827,1.9057846,-0.31215099,1.4248639,2.6521018
1639,A,184985964286663,6.1839237,-1.5578771,0.22266077,0.6508481,1.2565521,1.5879025
1639,A,184986014214933,7.536648,-1.747019,-0.62967503,0.18106645,1.429125,0.5471392
1639,A,184986064143203,10.752061,-0.7270891,-0.91458505,-1.7428011,1.3673396,0.11570716
1639,A,184986114071473,12.246042,-0.48048636,-2.4133554,-2.5737073,0.9412338,-0.30400702
1639,A,184986163999743,9.806351,-1.663222,-1.6807296,-1.5190955,0.12630653,-1.38312
1639,A,184986213928013,13.474268,-2.743007,-1.4269443,-0.7574315,-0.76105875,-2.0233438
1639,A,184986263856283,7.9580274,-3.1619923,-0.110133275,1.0641707,-1.6803819,-2.140523
1639,A,184986313784553,9.60045,-3.3798647,1.9129672,2.8186612,-1.5855734,-1.6217391
1639,A,184986363712823,6.3874307,-4.11249,2.0446482,1.7107862,-1.5472239,-1.0507574
1639,A,184986413641093,5.3148284,-0.46133274,1.1803415,0.002102033,-1.4034132,-1.0709974
1639,A,184986463569363,8.214207,-1.5866076,2.0614076,-0.10229388,-1.0220485,-1.5887159
1639,A,184986513497633,11.139921,-3.6504095,3.2202013,0.045777876,-1.148815,-2.068085
1639,A,184986563425903,14.554053,-4.1867104,3.5290532,1.3081162,-0.6651849,-1.5588886
1639,A,184986613354173,15.698482,-7.0214453,4.96318,2.1219783,-0.2348181,-0.10480258
1639,A,184986663282443,17.123032,-4.881029,5.6670756,1.1749581,0.8698611,1.3226517
1639,A,184986713210713,12.380117,-2.0295348,2.7844565,0.40370673,1.6922452,1.9415704
1639,A,184986763138983,12.935573,-2.2186768,0.93852705,0.16402222,2.4294083,2.157819
1639,A,184986813067253,9.033024,-2.197129,2.0949266,-1.1441225,2.242987,2.4390488
1639,A,184986862999463,7.175123,-1.6799814,2.3343468,-1.6607758,1.7966411,2.644645
1639,A,184986912931673,6.782474,-1.5842134,-0.12449849,-0.44211322,1.4419081,2.1024253
1639,A,184986962863883,9.143157,-2.1300914,-1.5586253,0.36429194,1.5186071,1.2225169
1639,A,184987012796093,11.211747,-1.1269208,-1.3551182,-0.6551661,1.3183374,0.59827197
1639,A,184987062728303,12.047323,-0.46133274,-1.7836803,-1.5968599,0.6525472,-0.16232686
1639,A,184987112660513,9.033024,-1.1724106,-1.2976574,-1.2218868,-0.040939976,-1.4981685
1639,A,184987162592723,10.957962,-2.149245,-1.484405,-0.90230745,-1.0209832,-2.5474539
1639,A,184987212524933,8.697836,-2.5825953,-0.18674773,0.7744188,-1.8209969,-2.9575808
1639,A,184987262457143,10.457574,-3.6408327,1.8938135,2.6673937,-1.7261883,-2.395121
1639,A,184987312389353,6.40419,-4.5578117,2.552219,1.8950769,-1.725123,-1.6419791
1639,A,184987362321563,5.7074776,-0.820463,0.91937345,0.097975835,-1.5088744,-1.3820547
1639,A,184987412253773,9.610026,-1.6105496,2.1883004,-0.48898488,-0.9762421,-1.4449053
1639,A,184987462185983,13.893253,-3.1979053,3.2321723,-1.1473182,-0.8729115,-1.468341
1639,A,184987512118193,14.628273,-4.146009,4.220978,0.31635505,-0.653467,-0.9761889
1639,A,184987562050403,12.669816,-6.533028,5.058948,2.398947,-0.15066221,-0.28163648
1639,A,184987611982613,17.101484,-5.7525187,5.6766524,1.4998639,0.9359075,0.68988466
1639,A,184987661914823,12.978668,-1.9505262,2.4349031,0.6401954,1.8509697,1.5729889
1639,A,184987711847033,12.447155,-2.0247464,1.4700398,-0.7435831,2.4624314,2.3623497
1639,A,184987761779243,8.312369,-1.8667291,2.0111294,-2.2253659,2.1524396,3.1719508
1639,A,184987811711453,7.2254014,-1.9337668,1.8100165,-1.774759,1.5218029,3.2923257
1639,A,184987861643663,8.429685,-2.2881086,-0.7062895,0.15230432,1.3694701,2.4390488
1639,A,184987911579483,10.354623,-2.2402246,-1.1085154,0.3238119,1.3833185,1.5953594
1639,A,184987961515303,11.00824,-0.6935703,-1.2785037,-0.5795323,1.114872,0.900807
1639,A,184988011451123,10.232519,-0.36795887,-1.2066777,-1.0748804,0.50554067,-0.11758575
1639,A,184988061386943,8.317158,-1.129315,-0.7302315,-0.6732756,-0.06970212,-1.7463751
1639,A,184988111322763,10.6275625,-1.6177322,-0.9600749,-1.2517142,-0.8409536,-2.9011216
1639,A,184988161258583,9.095273,-2.2114942,0.019153614,-0.17153607,-1.4907649,-3.3378801
1639,A,184988211194403,10.7472725,-3.2864907,2.1499932,1.5467354,-1.2862341,-2.797791
1639,A,184988261130223,6.2509613,-4.711041,2.6001031,1.2047856,-1.4130006,-2.0851293
1639,A,184988311066043,5.7553616,-1.129315,0.80684596,0.021276793,-1.3299099,-1.9743416
1639,A,184988361001863,11.511023,-2.8794765,2.4181437,-0.13531707,-0.8047346,-2.0254743
1639,A,184988410937683,13.00261,-4.320786,2.8275523,-0.065009624,-0.8697157,-1.7250698
1639,A,184988460873503,16.668133,-6.5378165,5.3678,0.5112984,-0.520309,-0.4637967
1639,A,184988510809323,12.133515,-6.008698,3.9097314,1.7917463,0.2349635,0.7356911
1639,A,184988560745143,13.926772,-4.9193363,4.55856,1.3262258,0.91992855,1.5218562
1639,A,184988610680963,12.918813,-3.5115457,2.3630772,1.512647,1.7689443,1.9074819
1639,A,184988660616783,12.86614,-2.1564276,1.2880806,0.23859073,2.306903,2.3527625
1639,A,184988710552603,8.396166,-1.0886136,2.2697031,-1.666102,2.0075636,2.9322662
1639,A,184988760488423,7.620445,-1.4884453,1.7238252,-1.4615713,1.4930408,2.910961
1639,A,184988810424243,8.1280155,-2.149245,-0.641646,0.46549207,1.3598827,2.0960338
1639,A,184988860360063,8.807969,-2.197129,-1.1827357,0.71263343,1.4120806,1.1394262
1639,A,184988910295883,11.487081,-0.8276456,-1.2641385,-0.97154963,1.272531,0.59507614
1639,A,184988960229393,10.51264,-0.286556,-1.4580688,-1.6831462,0.51406276,-0.13143419
1639,A,184989010162903,8.242937,-1.4453497,-0.89303726,-0.92680854,-0.13681377,-1.500299
1639,A,184989060096413,11.618762,-2.0367174,-1.3239936,-0.8628927,-0.86865044,-2.5059085
1639,A,184989110029923,9.248502,-2.2881086,-0.36870706,0.096910566,-1.616466,-2.9021869
1639,A,184989159963433,9.4974985,-3.3080385,1.2761095,1.9131864,-1.7826474,-2.5091045
1639,A,184989209896943,6.080973,-4.598513,1.5442601,2.7462232,-2.0532246,-1.8656846
1639,A,184989259830453,6.662764,-2.185158,0.79966336,1.8290305,-1.9690686,-1.7303962
1639,A,184989309763963,11.350611,-2.0989666,2.7700913,0.2812013,-1.2968867,-1.6611539
1639,A,184989359697473,12.842198,-1.9744682,3.7924154,-1.786477,-1.0433538,-1.4395789
1639,A,184989409630983,15.080777,-3.3798647,4.7620673,-0.94491804,-0.520309,-0.80361605
1639,A,184989459564493,13.9555025,-5.934478,4.675876,1.3368784,0.3766437,0.03474706
1639,A,184989509498003,14.764743,-6.4085298,5.884948,1.0886718,1.0019538,1.1117294
1639,A,184989559431513,12.384906,-2.4748564,2.516306,0.8649662,1.8285991,1.7317133
1639,A,184989609365023,11.841422,-2.2737434,1.6950948,-0.20455927,2.3889282,2.189777
1639,A,184989659298533,8.393772,-1.7518075,2.3295584,-1.8855466,2.1769407,2.8054998
1639,A,184989709232043,7.0314713,-1.579425,1.7142484,-1.7779548,1.6634831,2.922679
1639,A,184989759165553,7.493552,-2.221071,-0.5291186,-0.016007463,1.3502954,2.0843158
1639,A,184989809099063,9.8686,-2.3431752,-1.3575124,0.2993108,1.5335208,1.2257127
1639,A,184989859032573,12.042535,-0.90186584,-1.472434,-1.1643625,1.3194027,0.79854167
1639,A,184989908966083,10.31871,-0.4086603,-1.673547,-1.7033863,0.3915574,-0.28802806
1639,A,184989958899593,12.418425,-0.75581956,-2.2385786,-1.5425314,-0.23268758,-1.6643497
1639,A,184990008838293,8.652346,-2.4365492,-1.4053963,-0.5049638,-1.4108701,-2.5453234
1639,A,184990058776993,8.999505,-2.920178,0.20829555,1.7107862,-1.9680033,-2.7104394
1639,A,184990108715693,9.124003,-4.708647,2.954445,3.018931,-1.8987612,-2.0318658
1639,A,184990158654393,5.523124,-2.7358243,1.5801731,0.9906674,-1.6771861,-1.5652801
1639,A,184990208593093,6.993164,-0.45654434,1.2497733,-0.52200806,-1.4257838,-1.6409138
1639,A,184990258531793,12.413636,-2.0486884,3.2154129,-0.85756636,-0.86865044,-1.7144171
1639,A,184990308470493,12.207735,-4.3495164,4.3502645,0.31848556,-0.94534945,-1.4491663
1639,A,184990358409193,14.194922,-5.4915504,5.1762643,2.1784372,-0.7599935,-0.7151991
1639,A,184990408347893,15.284285,-5.3886,4.781221,2.2711153,0.7654652,0.21264622
1639,A,184990458286593,13.297097,-3.4828153,3.655946,0.8596399,1.433386,1.0169208
1639,A,184990508225293,13.538911,-1.9170073,2.018312,-0.11827285,2.311164,1.6614058
1639,A,184990558163993,11.09922,-2.2186768,1.7860745,-1.7726285,2.537,2.4198742
1639,A,184990608102693,7.6539636,-1.5961844,1.5945383,-2.6898212,2.1236773,3.0579674
1639,A,184990658041393,7.280468,-1.9529204,0.22744916,-1.6362747,1.6368515,3.0100305
1639,A,184990707980093,7.9604216,-2.1755812,-1.5921441,-0.059683304,1.3353816,2.0843158
1639,A,184990757918793,8.901342,-1.6536452,-2.15957,-0.0010937602,1.1383077,0.98070186
1639,A,184990807857493,9.126397,-0.86116445,-1.4915876,-0.6743409,0.59076184,-0.049408827
1639,A,184990857796193,8.511087,-0.74384856,-1.1803415,-0.7904547,-0.30192977,-1.7857898
1639,A,184990907734893,12.31308,-0.6169559,-2.2361844,-1.0812719,-0.7940819,-3.1706336
1639,A,184990957673593,9.842264,-2.4916158,-0.5482722,-0.3078899,-1.7304491,-3.6808953
1639,A,184991007612293,11.240478,-4.098125,1.0462662,3.3725986,-1.7698638,-2.9969954
1639,A,184991057549603,10.960356,-8.206575,3.6343982,4.316423,-1.6143353,-1.2563534
1639,A,184991107486913,5.8176107,-1.3208512,0.33279404,0.09158424,-1.2244484,-0.2028069
1639,A,184991157424223,8.594885,0.8219594,1.4700398,-2.16145,-0.7482753,0.013441773
1639,A,184991207361533,12.0688715,-2.340781,3.3135753,-2.2796943,-0.49154657,-0.5383652
1639,A,184991257298843,10.835857,-4.450073,2.822764,-0.60509866,-0.5746372,-1.1306522
1639,A,184991307236153,13.12232,-5.036652,3.8187518,1.8492706,-0.7663848,-1.3383788
1639,A,184991357173463,16.074371,-6.1355906,4.8937483,2.7068083,0.6866359,-0.4936241
1639,A,184991407110773,12.789526,-4.644003,2.9472623,1.2207645,1.2043544,0.8326301
1639,A,184991457048083,12.468703,-1.7805378,1.4389153,0.35470456,1.9851933,1.7753892
1639,A,184991506985393,10.81431,-1.9984102,1.3479356,-1.1888636,2.326078,2.5114868
1639,A,184991556922703,7.428909,-2.1061492,2.2002714,-2.0932732,1.9468437,2.959963
1639,A,184991606860013,6.9261265,-2.221071,0.89782566,-1.0024424,1.5164769,2.7128217
1639,A,184991656797323,7.306804,-2.1875522,-1.0414777,0.55923533,1.3215334,1.6795154
1639,A,184991706734633,9.751285,-1.7733552,-1.4197617,0.077735804,1.3779925,0.80493325
1639,A,184991756671943,11.001058,-0.74384856,-1.4437037,-1.2836721,0.8837098,0.25738734
1639,A,184991806609253,9.562142,-0.6839935,-1.4389153,-1.1132299,0.015519305,-1.0283868
1639,A,184991856546563,12.583625,-1.4932337,-1.6998832,-0.997116,-0.3647801,-1.9935164
1639,A,184991906483873,8.661922,-2.4389434,-0.58418524,-0.43678692,-1.262798,-2.37062
1639,A,184991956421183,8.793604,-2.719065,0.035913024,1.3326173,-1.6164658,-2.3887296
1639,A,184992006358493,10.280403,-5.106084,2.6408045,2.382968,-1.4343055,-1.6057602
1639,A,184992056295803,6.114492,-2.4365492,1.553837,0.22367704,-1.3107349,-1.004951
1639,A,184992106240133,7.254132,-0.6049848,1.2258313,-0.888459,-1.1062042,-1.0038857
1639,A,184992156184463,10.488698,-2.766949,2.8491,-0.6349261,-0.9560019,-1.3575536
1639,A,184992206128793,10.969933,-3.6408327,2.5809495,0.5922585,-1.025244,-1.7186782
1639,A,184992256073123,13.869311,-5.3143797,4.429273,2.1486099,-1.0603977,-1.5024295
1639,A,184992306017453,16.493357,-5.6256256,4.122815,2.724918,0.5193894,-0.34129128
1639,A,184992355961783,13.749601,-4.658368,4.187459,0.5517785,1.0967627,1.0787061
1639,A,184992405906113,12.392089,-1.3112743,1.8243817,-0.203494,1.9127553,1.8808503
1639,A,184992455850443,10.752061,-2.4485202,1.7286136,-1.1558404,2.2568357,2.4092214
1639,A,184992505794773,7.199065,-2.5394998,2.1164744,-1.4690281,1.8978416,2.7809987
1639,A,184992555739103,6.2437787,-2.2833202,1.2497733,-0.24503931,1.4067546,2.4422448
1639,A,184992605683433,7.050625,-1.9385552,-1.2090719,1.3667058,1.3652093,1.0478135
1639,A,184992655627763,9.799169,-2.3479636,-0.81642276,0.54432166,1.3769273,0.07629237
1639,A,184992705572093,11.807903,-0.808492,-0.91219085,-1.8354791,1.2778577,0.014507038
1639,A,184992755516423,12.080843,-0.262614,-1.6256629,-2.6834295,0.5012799,-0.41479453
1639,A,184992805460753,12.878112,-1.6129438,-2.2122424,-1.754519,0.11032784,-1.1679364
1639,A,184992855405083,8.599673,-2.8435633,-1.3024458,-0.24184352,-0.97517663,-1.7836593
1639,A,184992905349413,8.214207,-2.994398,-0.10534488,1.3762932,-1.6185963,-1.963689
1639,A,184992955293743,8.214207,-3.9377136,1.9440918,2.2093298,-1.7208617,-1.5524969
1639,A,184993005238073,5.463269,-2.4269724,1.6759412,1.1334128,-1.7187312,-1.3181387
1639,A,184993055182403,6.6555815,-1.0981904,1.1731589,0.3802709,-1.6388364,-1.7240045
1639,A,184993105126733,11.178228,-2.1085434,2.9759927,0.015950471,-1.0721157,-2.032931
1639,A,184993155068883,11.587637,-3.030311,3.799598,-0.1736666,-1.020983,-1.9647542
1639,A,184993205011033,14.498986,-4.462044,4.912902,1.053518,-0.76105845,-1.3415745
1639,A,184993254953183,15.791855,-5.8363156,5.449203,1.3581836,0.6482864,0.024094418
1639,A,184993304895333,13.742418,-5.0055275,4.3287168,0.4761447,1.2704008,1.5729889
1639,A,184993354837483,13.201329,-2.517952,1.42455,-0.24503931,1.9990417,2.5775332
1639,A,184993404779633,10.582072,-2.3312042,1.6328455,-1.2442573,2.0725448,3.2656941
1639,A,184993454721783,7.1655464,-2.517952,2.3989902,-1.2485183,1.4813231,3.4840732
1639,A,184993504663933,7.402572,-2.3958478,0.9672575,0.1736096,1.0605437,2.9280052
1639,A,184993554606083,9.739313,-1.8188452,-0.94570965,0.666827,1.3598831,2.056619
1639,A,184993604548233,11.297938,-0.42781392,-1.0869676,-0.6764714,1.174527,1.2608664
1639,A,184993654490383,10.495881,0.35509005,-1.5801731,-1.4541144,0.67811376,0.3031937
1639,A,184993704432533,8.690653,-0.5163994,-1.3958195,-0.73825675,-0.06863658,-1.5951076
1639,A,184993754374683,12.933178,-2.1396682,-1.4820108,-1.1153604,-0.9293702,-2.6582415
1639,A,184993804316833,8.661922,-2.410213,0.45729253,0.4559047,-1.6793164,-2.7839427
1639,A,184993854258983,11.448773,-2.6376622,2.5905263,2.1059992,-1.3437581,-2.2076344
1639,A,184993904201133,6.969222,-4.1268554,2.0925324,0.79146296,-1.2393622,-1.6334571
1639,A,184993954143283,5.518336,-0.2793734,1.5107412,-1.0514445,-1.0156567,-1.4065557
1639,A,184994004085433,8.23336,-1.141286,1.7190368,-1.5052471,-0.67157626,-1.8497057
1639,A,184994054027583,13.51018,-3.6911108,2.681506,-1.347588,-0.5192434,-2.2811377
1639,A,184994103969733,13.538911,-4.8738465,3.2872388,0.4942542,-0.5884856,-1.9455795
1639,A,184994153911883,15.222035,-7.5242276,4.525041,1.8790979,-0.15918407,-0.6736538
1639,A,184994203861343,17.702429,-7.2441063,5.66947,0.81915987,0.58650106,1.0222472
1639,A,184994253810803,12.126332,-2.1779754,2.420538,0.26735288,1.5090201,2.0449011
1639,A,184994303760263,12.825439,-2.872294,0.82360536,-0.2333214,2.2088988,2.5999038
1639,A,184994353709723,8.726566,-2.7214592,1.8243817,-1.3188258,1.9351258,3.1378624
1639,A,184994403659183,7.5821376,-1.9050363,2.3870192,-1.5446619,1.3875799,3.233736
1639,A,184994453608643,7.929297,-2.0367174,-0.22744916,0.030864172,1.0626743,2.5615542
1639,A,184994503558103,9.6172085,-2.2234652,-1.4556746,0.66363126,1.1723964,1.7072122
1639,A,184994553507563,11.475109,-0.49724576,-1.340753,-0.33452153,1.0062152,0.92424285
1639,A,184994603457023,10.622774,0.20186113,-1.271321,-1.0610318,0.344686,-0.058996208
1639,A,184994653406483,8.104074,-0.8180688,-0.80445176,-0.42719954,-0.3796938,-1.5535622
1639,A,184994703355943,11.53257,-1.5602713,-0.9792285,-0.47833222,-1.08916,-2.486734
1639,A,184994753305403,9.504682,-2.304868,0.35673606,0.57521427,-1.6367059,-2.7519846
1639,A,184994803254863,11.115979,-2.9393315,2.3654714,1.5105164,-1.3906298,-2.2363968
1639,A,184994853204323,6.887819,-3.432537,2.1164744,0.7371345,-1.4289793,-1.7090908
1639,A,184994903153783,6.389825,-0.67202246,1.5993267,-0.50815964,-1.2734506,-1.8422489
1639,A,184994953103243,9.950003,-1.7158945,2.2888567,-0.87567586,-0.6939468,-2.386599
1639,A,184995003052703,12.528558,-3.8922238,3.502717,-0.96302754,-0.7035342,-2.5123003
1639,A,184995053002163,13.869311,-5.414936,4.501099,1.0503222,-0.525635,-1.6835245
1639,A,184995102951623,14.319421,-7.928848,4.84347,1.9312959,0.5545431,-0.051539358
1639,A,184995152901083,17.609055,-6.269666,4.297592,-2.8495824E-5,1.1159375,1.8946987
1639,A,184995202850543,12.198158,-2.2162826,1.448492,-0.69990724,1.7636182,2.983399
1639,A,184995252802453,11.810298,-3.1045315,0.94331545,-0.8298695,2.0512397,3.4936607
1639,A,184995302754363,8.867824,-3.6384385,1.376666,-0.5475744,1.5036937,3.5266838
1639,A,184995352706273,8.365042,-2.0822072,0.9840169,-0.056487244,1.0520216,3.067555
1639,A,184995402658183,7.9221144,-1.5842134,-0.90500826,0.79998535,0.9028846,2.0715327
1639,A,184995452610093,9.38976,-1.7972972,-1.3359646,0.52301663,0.9359078,1.2438222
1639,A,184995502562003,10.313922,-0.5762544,-1.3359646,-0.44317824,0.68770117,0.5364866
1639,A,184995552513913,9.782409,-0.64568627,-1.2162545,-0.7467786,-0.039874446,-0.4424914
1639,A,184995602465823,9.698612,-1.2753613,-1.1803415,-0.44743928,-0.49580762,-1.7495708
1639,A,184995652417733,10.96275,-2.0127754,-0.7541735,-0.4442435,-1.246819,-2.3919253
1639,A,184995702369643,10.043377,-3.0734067,0.6679823,0.851118,-1.6122048,-2.285399
1639,A,184995752321553,9.468768,-3.6240733,2.6647465,1.7416791,-1.464133,-1.7644845
1639,A,184995802273463,5.7816978,-2.719065,1.7238252,0.74139583,-1.3831729,-1.5514317
1639,A,184995852225373,7.5917144,-1.0790368,1.5658079,-0.20562427,-1.077442,-1.8582278
1639,A,184995902177283,11.063307,-2.4173956,2.822764,-0.6594269,-0.75892794,-2.092586
1639,A,184995952129193,11.034576,-3.4947863,2.930503,-0.24397378,-0.8505407,-1.9977775
1639,A,184996002081103,14.56363,-5.2904377,2.7269957,1.3560534,-0.7418837,-1.2457008
1639,A,184996052033013,16.129438,-6.1355906,-0.24660277,2.2476797,0.13695945,0.21477675
1639,A,184996101984923,13.335404,-4.0813656,2.1691468,0.21302466,0.073043585,1.730648
1639,A,184996151936833,10.471939,-1.5698482,0.91219085,-0.22160323,0.47464827,2.2196045
1639,A,184996201888743,8.927679,-2.0271406,1.5658079,-0.07033568,0.7974234,1.8936335
1639,A,184996251845333,5.532701,-1.6823756,1.0031705,-0.010680874,0.7899665,1.4270476
1639,A,184996301801923,4.0411134,-0.059106853,-0.019153614,0.01914653,0.51086724,0.91252494
1639,A,184996351758513,6.344335,0.6974609,-1.3359646,-0.35476127,0.3872966,0.26058313
1639,A,184996401715103,10.835857,0.4197335,-3.6487634,-1.4125688,0.6291116,-0.26139644
1639,A,184996451671693,11.472715,2.9839234,-4.8506527,-1.7768893,0.11352363,-0.97405833
1639,A,184996501628283,14.724041,0.36466685,-4.5537715,-0.4378519,-0.49154657,-1.7932467
1639,A,184996551584873,19.511847,-1.735048,-3.004723,1.5829548,-1.4247183,-1.6036296
1639,A,184996601541463,8.702624,-5.024681,1.9416976,4.519889,-1.661207,-0.43290403
1639,A,184996651498053,10.0338,-2.3264158,2.695871,1.1216952,-0.4212391,0.32343373
1639,A,184996701454643,4.3547535,3.3717842,1.2617443,-3.0221834,-0.037743915,0.1892104
1639,A,184996751411233,3.7633858,-0.1261445,3.3279405,-1.251714,0.18702687,-0.12397734
1639,A,184996801367823,6.140828,-3.5474586,2.5234885,0.6369999,0.46293035,-0.56712735
1639,A,184996851324413,12.68897,-2.8675056,2.3750482,-0.3036286,0.5577389,-0.2869628
1639,A,184996901281003,11.95395,-1.105373,1.9512744,-0.36434865,0.35746917,-0.055800416
1639,A,184996951237593,13.148657,-4.246566,3.1555579,0.88414127,0.087957285,-0.28802806
1639,A,184997001194183,18.715176,-4.1914988,1.2306197,1.1951984,1.2970324,0.18068802
1639,A,184997051150773,11.831845,-3.765331,0.9911995,0.39092383,1.4035589,1.1383607
1639,A,184997101107363,12.492645,-2.719065,0.82121116,-0.095902026,1.7252687,1.9863112
1639,A,184997151063953,9.598055,-2.7717373,0.49081135,-0.9353304,1.5143464,2.80763
1639,A,184997201020543,6.9979525,-1.8308161,0.50757074,-0.84371763,1.154287,3.1612978
1639,A,184997250977133,6.6196685,-2.161216,-0.02873042,0.41755542,0.8251203,2.6766026
1639,A,184997300936933,7.002741,-1.6177322,-0.85473,1.5435399,0.60461056,1.6326435
1639,A,184997350896733,8.731355,-0.9712977,-0.7422025,0.97362345,0.24455115,0.5524653
1639,A,184997400856533,9.428067,-0.1261445,-0.5722142,-0.31215072,-0.13361771,-0.46805802
1639,A,184997450816333,8.7888155,-0.032770637,-0.8355764,-0.93639565,-0.8931512,-2.2342665
1639,A,184997500776133,13.514969,-0.98326874,-1.1300632,-1.7438661,-1.0646589,-3.2079182
1639,A,184997550735933,10.067319,-1.9888334,0.51235914,-1.3422614,-1.4023477,-3.3314888
1639,A,184997600695733,12.0688715,-2.7454011,1.1540052,-0.3781971,-1.0763767,-2.7051134
1639,A,184997650655533,10.471939,-4.69907,1.4796166,-0.22053796,-1.0199177,-1.6952426
1639,A,184997700615333,6.2198367,-2.2761376,1.1133038,-1.2570403,-1.0081998,-1.1050861
1639,A,184997750575133,9.071331,-2.754978,1.8219875,-1.066358,-0.7663848,-1.2403747
1639,A,184997800534933,12.394483,-4.6631565,2.3415294,-0.7307996,-0.79727745,-1.4779286
1639,A,184997850494733,12.071265,-4.100519,2.6503813,0.5848019,-0.7280353,-1.4140128
1639,A,184997900454533,14.015357,-7.004686,5.2983685,1.9035993,-0.5916814,-0.746092
1639,A,184997950414333,17.23077,-6.8227267,5.485116,1.5169083,0.7377686,0.7250382
1639,A,184998000374133,13.170204,-3.9113774,3.181894,0.903316,1.6283296,2.0651407
1639,A,184998050333933,14.506168,-2.766949,0.94570965,0.36642274,2.4528444,2.8438492
1639,A,184998100293733,11.041759,-2.352752,1.292869,-1.0269431,2.322882,3.59273
1639,A,184998150253533,8.434473,-1.6560394,2.3558946,-1.4551795,1.7135508,3.8206966
1639,A,184998200213333,8.424896,-2.0965724,0.33039984,0.21622045,1.2938366,3.0174873
1639,A,184998250173133,9.432856,-2.0869956,-1.4652514,1.3123776,1.4664094,1.8915027
1639,A,184998300132933,11.168652,-1.2729671,-0.9816227,0.29611528,1.432321,1.1340997
1639,A,184998350091493,11.618762,0.103698865,-1.3934253,-1.3241519,1.0381732,0.39480618
1639,A,184998400050053,9.468768,0.1491887,-1.5634137,-1.5435964,0.24242063,-1.1476967
1639,A,184998450008613,11.604397,-1.2801497,-1.8363527,-1.5734237,-0.65133625,-2.4611678
1639,A,184998499967173,6.9644337,-1.7925088,-0.51954174,0.027668646,-1.6878386,-3.3922088
1639,A,184998549925733,10.038589,-2.9297547,0.545878,2.055932,-2.1160748,-3.4039268
1639,A,184998599884293,9.052177,-4.5673885,2.492364,3.07539,-2.1704032,-2.6337407
1639,A,184998649842853,6.662764,-2.3455694,1.6807296,1.2655059,-1.9733294,-2.1671548
1639,A,184998699801413,9.325116,-0.7175123,1.6352397,-0.4975067,-1.448154,-2.1128263
1639,A,184998749759973,14.326604,-1.9409494,3.13401,-2.2157784,-1.016722,-2.0521061
1639,A,184998799718533,14.716859,-4.119673,3.7373488,-1.0812716,-0.78555954,-1.559954
1639,A,184998849677093,14.271537,-8.256853,5.109226,2.3712504,-0.7237742,-0.57991076
1639,A,184998899635653,19.511847,-9.899276,7.48188,1.7587234,0.8730572,1.1404912
1639,A,184998949594213,13.376105,-1.9122189,2.6910827,0.43246913,1.9095595,2.525335
1639,A,184998999552773,13.052888,-1.1843816,1.2066777,-0.74251753,2.5923939,3.3157613
1639,A,184999049511333,9.514258,-2.4533086,2.0829554,-1.2719539,2.27388,3.782347
1639,A,184999099469893,8.063372,-2.4485202,2.4947581,-0.7169512,1.7071592,3.6811469
1639,A,184999149428453,8.197448,-1.747019,-0.11492168,0.67854524,1.4738663,2.7032342
1639,A,184999199387013,9.533412,-1.7278655,-1.1827357,0.65617466,1.5985023,1.6102729
1639,A,184999249345573,11.439197,-0.5786486,-1.2258313,-0.95450515,1.5633485,0.92850363
1639,A,184999299304133,11.537358,-0.08544307,-2.087744,-1.9558537,0.952952,0.14340377
1639,A,184999349262693,8.575731,-0.86834705,-1.8004397,-1.1228169,0.13802472,-1.410817
1639,A,184999399225063,11.769596,-1.9194015,-1.7142484,-1.0631621,-0.88995546,-2.6454585
1639,A,184999449187433,8.618827,-2.1827638,-0.35194764,0.18319725,-1.818866,-3.3027267
1639,A,184999499149803,10.443209,-2.5490766,0.47405192,1.979233,-2.0894432,-3.183417
1639,A,184999549112173,7.6874824,-4.438102,1.5777789,3.143567,-2.3834562,-2.6294796
1639,A,184999599074543,7.302016,-2.3814826,1.3263878,1.9930816,-2.2609508,-2.3397276
1639,A,184999649036913,11.223719,-1.318457,1.922544,0.0500392,-1.5940952,-2.1703506
1639,A,184999698999283,14.288297,-1.9026421,3.5242648,-1.9686369,-1.3139307,-1.8592933
1639,A,184999748961653,15.576377,-3.75336,4.4580035,-0.6903196,-0.783429,-1.1615452
1639,A,184999798924023,14.621091,-8.211364,5.93762,2.0026689,-0.15066195,-0.19535032
1639,A,184999848886393,18.885164,-7.478738,7.565677,1.0812151,1.1649396,1.1479481
1639,A,184999898848763,12.377724,-1.6201264,3.2944214,0.5112987,2.149244,2.094968
1639,A,184999948811133,12.964303,-1.8834885,1.3503298,-0.1534263,2.995064,2.4976382
1639,A,184999998773503,10.546159,-2.2186768,2.2577322,-1.6682323,2.8523185,2.991921
1639,A,185000048735873,8.7888155,-1.651251,2.4301147,-2.1923425,2.2088988,3.201778
1639,A,185000098698243,8.513482,-1.6919525,-0.34715924,-0.5166815,1.6815928,2.5040298
1639,A,185000148660613,10.232519,-2.4269724,-1.7597382,0.54751766,1.6911802,1.666732
1639,A,185000198622983,12.2675905,-1.2179005,-1.8674773,-0.38245815,1.4259294,1.2747146
1639,A,185000248585353,12.399271,-0.33683425,-2.1452048,-1.2474529,0.66426533,0.6355559
1639,A,185000298547723,10.366594,-0.48048636,-1.7549498,-1.2101686,0.036824595,-0.6992204
1639,A,185000348510093,9.686641,-1.2801497,-1.8962077,-1.2644972,-1.0646589,-2.058498
1639,A,185000398472463,6.5981207,-1.9098247,-0.641646,0.3344648,-2.0170052,-2.937341
1639,A,185000448437413,8.23336,-3.0590415,0.8499416,2.2668545,-2.4143488,-2.9394715
1639,A,185000498402363,6.504747,-3.8443398,1.8579005,3.1978955,-2.6668165,-2.5080395
1639,A,185000548367313,6.9764047,-2.161216,1.4676456,2.0324962,-2.4825258,-2.4398625
1639,A,185000598332263,11.137527,-0.9329905,2.0949266,-0.04370407,-1.6143353,-2.4142962
1639,A,185000648297213,14.941914,-1.4118308,3.347094,-2.2935426,-1.2894297,-2.0318663
1639,A,185000698262163,17.477373,-4.41416,4.656722,-0.9023072,-0.74294895,-0.8792501
1639,A,185000748227113,14.15901,-7.323115,5.5018754,1.2878765,0.12311101,0.33515137
1639,A,185000798192063,15.629049,-5.642385,5.9902925,0.60823774,0.83577293,1.3695232
1639,A,185000848157013,12.418425,-2.9776387,3.2345665,0.9661666,1.8040982,1.8393047
1639,A,185000898121963,12.198158,-2.7621605,1.9273324,0.36003116,2.572154,2.086446
1639,A,185000948086913,8.949226,-1.4716859,2.480393,-1.5041816,2.447518,2.621209
1639,A,185000998051863,7.400178,-1.3926772,2.2409728,-1.9121779,1.9361911,2.8331964
1639,A,185001048016813,7.58932,-2.0534768,-0.22984336,-0.17366633,1.577197,2.118404
1639,A,185001097981763,10.165482,-2.422184,-1.6496049,0.15336984,1.7167466,1.4291779
1639,A,185001147946713,12.02817,-0.77018476,-2.2002714,-1.4605057,1.5899801,1.1575356
1639,A,185001197911663,12.401666,-0.06628946,-2.801216,-2.2157784,0.53430307,0.20731963
1639,A,185001247876613,12.162246,-0.37992987,-2.5809495,-1.481811,-0.037743915,-1.3277264
1639,A,185001297841563,9.449615,-2.5251346,-1.9416976,-0.688189,-1.4769162,-2.4696898
1639,A,185001347806513,7.551013,-2.9584851,-0.21068975,2.2040038,-2.3397803,-2.8904693
1639,A,185001397771463,10.043377,-4.342334,3.1794999,4.145981,-2.2769299,-2.2598329
1639,A,185001447736413,6.1719527,-3.5330935,1.6208745,2.022909,-2.1267273,-1.7421143
1639,A,185001497703253,6.588544,0.1731307,1.3551182,0.29398474,-1.7506891,-1.7463753
1639,A,185001547670093,10.883741,-1.0263643,3.2154129,-0.83519554,-0.8207133,-1.9050997
1639,A,185001597636933,12.356175,-2.7717373,3.7373488,-1.8823504,-0.7983427,-1.8859249
1639,A,185001647603773,16.01691,-4.3136034,4.2066126,-0.3600876,-0.27529788,-1.1540883
1639,A,185001697570613,13.186964,-7.136367,4.865018,1.4295566,0.17317843,-0.029169071
1639,A,185001747537453,17.101484,-6.102072,6.184223,0.7030463,1.0285858,1.1767102
1639,A,185001797504293,13.251607,-2.94412,2.585738,0.41329437,1.9564312,1.9096122
1639,A,185001847471133,12.59799,-2.3359926,1.0319009,-0.36115286,2.5742846,2.4379833
1639,A,185001897437973,8.827123,-1.9505262,1.7669208,-1.5212258,2.2568357,2.88859
1639,A,185001947404813,7.4265146,-2.0822072,1.9440918,-1.3550446,1.7135508,2.9141564
1639,A,185001997371653,7.30441,-2.103755,-0.4165911,0.2087636,1.3588177,2.1269262
1639,A,185002047338493,9.217378,-2.0343232,-1.8602947,0.43459967,1.4259294,1.3482178
1639,A,185002097305333,11.372159,-0.77976155,-1.6663644,-1.1569054,1.2938366,0.9977458
1639,A,185002147272173,10.732907,0.94406366,-2.3630772,-1.9888769,0.4288419,-0.052604888
1639,A,185002197239013,9.621997,0.319177,-2.5450363,-1.2900635,-0.25505787,-1.8912513
1639,A,185002247205853,11.027393,-2.4078188,-1.6017209,-0.81069446,-1.6377711,-3.0715642
1639,A,185002297172693,9.705794,-3.157204,0.045489833,1.9408835,-2.4377847,-3.1727643
1639,A,185002347139533,11.137527,-4.263325,3.3327289,4.159829,-2.3088877,-2.195917
1639,A,185002397106373,5.8176107,-4.210653,1.3024458,2.1645892,-2.1235316,-1.4502318
1639,A,185002447073213,7.0602016,0.09412205,1.4867992,0.14165194,-1.7837123,-1.3469012
1639,A,185002497040053,11.29315,-0.7270891,3.028665,-1.1814065,-0.9432187,-1.5493014
1639,A,185002547008383,12.535741,-2.896236,3.8546648,-1.7161692,-0.7866248,-1.6494362
1639,A,185002596976713,14.506168,-4.734983,5.149928,0.70730734,-0.7930164,-1.3128127
1639,A,185002646945043,18.001703,-8.125173,6.8186865,2.0303657,0.94016886,0.024094151
1639,A,185002696913373,16.17014,-4.512322,3.2345665,0.44418705,1.5431085,1.6560793
1639,A,185002746881703,13.603555,-1.3735236,1.2785037,-0.5859237,2.3441873,2.6350572
1639,A,185002796850033,11.101614,-2.1779754,1.1899183,-1.3060424,2.551914,3.1144264
1639,A,185002846818363,7.950845,-2.8675056,1.8579005,-1.1196212,2.0373912,3.1176221
1639,A,185002896786693,6.8590884,-2.1181204,0.6943185,-0.047965128,1.5324558,2.5828593
1639,A,185002946755023,6.447286,-1.7087119,-1.0654198,1.1035857,1.4333862,1.3684579
1639,A,185002996723353,8.178294,-1.6129438,-1.7717092,0.15017405,1.5260643,0.4331557
1639,A,185003046691683,11.42962,-0.6193501,-2.1523874,-1.7694324,1.2533566,0.2414081
1639,A,185003096660013,11.477504,-0.74145436,-2.1883004,-2.1550581,0.31059754,-0.7556794
1639,A,185003146628343,15.308227,-0.6959645,-3.157952,-2.025096,-0.15385774,-1.8358575
1639,A,185003196596673,9.052177,-2.8315923,-1.5131354,-0.55822676,-1.6420321,-2.6316102
1639,A,185003246565003,9.145552,-3.5354877,0.7422025,2.8644679,-2.1597507,-2.7551808
1639,A,185003296533333,9.566931,-5.4101477,3.4979286,3.724136,-2.0617464,-1.865685
1639,A,185003346501663,5.618892,-2.019958,1.0726024,0.95338345,-1.7922344,-1.3202696
1639,A,185003396469993,7.4241204,0.06060323,1.1923125,0.07773607,-1.5717247,-1.4129475
1639,A,185003446438323,11.604397,-1.8332103,3.6296098,-1.251714,-1.1136609,-1.4459708
1639,A,185003496406653,11.034576,-3.1619923,2.6982653,-0.1715358,-1.2233832,-1.7186785
1639,A,185003546374983,14.791079,-4.318392,4.0438066,0.96510136,-0.64494467,-1.4353181
1639,A,185003596344563,13.586796,-4.9600377,4.247314,1.4615146,-0.053722885,-0.6715235
1639,A,185003646314143,19.511847,-5.2664957,6.895301,-0.07140095,1.2735966,0.8912194
1639,A,185003696283723,11.084854,-2.3335984,1.7980455,-0.068205155,1.8009025,2.1418397
1639,A,185003746253303,11.927613,-2.7118824,1.520318,0.021277059,2.3452525,2.7053647
1639,A,185003796222883,9.993098,-2.5107694,1.5777789,-0.42400348,2.2504442,2.984464
1639,A,185003846192463,8.1758995,-1.5746366,1.5969325,-0.7222775,1.8818626,3.000443
1639,A,185003896162043,7.637204,-1.4788685,-0.58897364,0.14484774,1.6933107,2.30376
1639,A,185003946131623,8.137592,-1.591396,-1.1204864,0.30037633,1.5878496,1.3396957
1639,A,185003996101203,10.91726,-0.65765727,-1.1563994,-1.224017,1.4451041,0.69521075
1639,A,185004046070783,11.187805,0.043843817,-1.9536686,-2.142275,0.8006192,-0.027038543
1639,A,185004096040363,9.243713,-0.8491934,-1.982399,-1.2186908,-0.057983942,-1.5727372
1639,A,185004146009943,13.024158,-1.996016,-1.733402,-1.183537,-0.94428396,-2.4558415
1639,A,185004195979523,8.384195,-2.3192332,-0.2681506,0.5176903,-1.8007566,-2.7615724
1639,A,185004245949103,10.534188,-3.097349,1.352724,2.349945,-1.7954302,-2.413231
1639,A,185004295918683,7.7473373,-4.131644,1.7717092,2.1368923,-1.7400365,-1.7921817
1639,A,185004345888263,6.923732,-0.74863696,1.7884687,-0.53585625,-1.3895645,-1.5695415
1639,A,185004395857843,9.420884,-1.0431237,2.516306,-1.7566493,-0.9698503,-1.7698112
1639,A,185004445827423,12.11915,-2.994398,2.396596,-1.6810155,-0.91658705,-1.9796683
1639,A,185004495797003,13.890859,-4.3399396,2.6264393,0.48040602,-0.7717111,-1.7964427
1639,A,185004545766583,15.799038,-7.895329,4.7405195,2.1550016,-0.6854247,-0.74928784
1639,A,185004595736163,18.344074,-6.6311903,5.793968,1.3230302,0.77505285,0.8741752
1639,A,185004645706803,11.355399,-2.5251346,3.406949,0.5347345,1.6325907,1.9170691
1639,A,185004695677443,13.117532,-2.6927288,1.6879122,0.46442705,2.4176905,2.3335874
1639,A,185004745648083,10.742484,-2.5873837,1.4173675,-0.82667345,2.4336696,2.8534365
1639,A,185004795618723,7.9125376,-1.402254,2.1140802,-1.7854114,1.9340606,3.2316053
1639,A,185004845589363,7.721001,-1.852364,0.37349546,-0.333456,1.5303253,2.7160172
1639,A,185004895560003,8.398561,-2.2043116,-1.5586253,1.22183,1.4493653,1.4867022
1639,A,185004945530643,10.385748,-1.5866076,-1.7860745,0.24072152,1.2863798,0.67390543
1639,A,185004995501283,12.277167,-0.56188923,-1.4030021,-1.7033861,0.9454951,0.45552623
1639,A,185005045471923,9.820716,-0.09262568,-1.745373,-1.7566493,-0.06544079,-0.84409636
1639,A,185005095442563,14.858116,-1.5554829,-2.5761611,-1.4626362,-0.75466686,-1.8358575
1639,A,185005145413203,6.0977325,-2.1420624,-0.5793968,0.5315387,-1.8944998,-2.518692
1639,A,185005195383843,9.399337,-2.8579288,0.80684596,2.680177,-2.1906433,-2.4238834
1639,A,185005245354483,8.44405,-4.644003,1.9632454,2.9326448,-2.173599,-1.6377183
1639,A,185005295325123,6.392219,-1.1819874,0.8403648,0.71050316,-2.0297885,-1.3873812
1639,A,185005345295763,9.368212,-0.5020342,1.5921441,-0.5507699,-1.4918299,-1.6451752
1639,A,185005395266403,12.258014,-2.1707928,3.3973722,-1.3912636,-1.1978168,-1.8401186
1639,A,185005445237043,12.499827,-2.4604912,2.791639,-0.6295995,-0.9815682,-1.8060302
1639,A,185005495207683,15.269919,-6.1475616,5.5401826,1.5105168,-0.85160595,-1.2233305
1639,A,185005545178323,15.159786,-5.7118173,5.729325,1.8343571,0.76546544,-0.044082772
1639,A,185005595148963,13.548489,-3.9281368,4.3742065,0.44738284,1.4706705,1.1735145
1639,A,185005645119603,12.607567,-1.9816508,2.7844565,-0.16514422,2.286663,1.9564838
1639,A,185005695091203,11.20217,-2.4413376,1.3694834,-1.0652927,2.648853,2.5029645
1639,A,185005745062803,8.47278,-2.2426188,2.2050598,-1.8024557,2.3037074,2.8864596
1639,A,185005795034403,7.6419926,-2.1085434,1.4030021,-1.0844674,1.8136857,2.6616888
1639,A,185005845006003,8.072948,-2.0367174,-0.90979666,0.4207512,1.5953064,1.675254
1639,A,185005894977603,9.619603,-2.0127754,-1.757344,0.096910834,1.4749316,0.8336951
1639,A,185005944949203,12.109573,-0.87313545,-1.9752164,-1.4072425,1.1372428,0.57803166
1639,A,185005994920803,11.525388,-0.79412675,-1.946486,-1.5169648,0.0336288,-0.31039888
1639,A,185006044892403,13.943531,-1.1221324,-2.348712,-0.98220205,-0.4819592,-1.2329179
1639,A,185006094864003,8.527847,-2.1779754,-0.92655605,0.009559151,-1.6420321,-1.7154827
1639,A,185006144835603,8.5661545,-2.8004677,0.33997664,1.8045297,-2.1160748,-1.7399838
1639,A,185006194807203,8.994717,-3.4995747,1.4891934,2.567259,-2.1032917,-1.3234653
1639,A,185006244778803,6.1815295,-1.7661726,1.0965444,1.1802847,-2.0660074,-1.2158736
1639,A,185006294750403,7.053019,-0.33204585,1.4891934,0.010624414,-1.8806514,-1.7399838
1639,A,185006344722003,10.414478,-1.6464626,3.1292217,-0.5699447,-1.3980865,-2.2875297
1639,A,185006394693603,11.733684,-2.3671174,3.2321723,-0.7414523,-1.2936907,-2.4952562
1639,A,185006444665203,16.620249,-4.392612,5.0661306,0.7669622,-0.59700775,-1.7655501
1639,A,185006494636803,14.941914,-6.920889,5.3462524,1.2932028,0.31166282,-0.2315693
1639,A,185006544608403,16.519693,-4.169951,6.2249246,-0.1449042,1.1191332,1.2502135
1639,A,185006594580003,11.7983265,-2.268955,3.3494883,-0.24503905,1.9223427,1.9841807
1639,A,185006644551603,12.030564,-3.0614357,1.4556746,-0.039443012,2.5828066,2.1439703
1639,A,185006694523203,9.349058,-2.6735752,2.054225,-1.0237473,2.475215,2.38472
1639,A,185006744495673,7.8431053,-1.6416742,2.2122424,-1.683146,2.0309997,2.4773982
1639,A,185006794468143,7.989152,-1.5602713,-0.20590134,-0.69777644,1.6890497,1.9713975
1639,A,185006844440613,9.643545,-2.3264158,-1.4030021,-0.020268254,1.577197,1.3482178
1639,A,185006894413083,11.903671,-1.2107179,-1.9895816,-1.0610316,1.3332514,1.0680532
1639,A,185006944385553,11.250054,-0.18599954,-2.018312,-1.5670322,0.5332378,0.39800197
1639,A,185006994358023,9.047389,-1.0311527,-1.6519991,-0.8053681,-0.2657105,-1.0156039
1639,A,185007044330493,11.839028,-2.0750246,-1.3263878,-0.74784386,-1.17012,-1.9945819
1639,A,185007094302963,7.840711,-2.3096564,-0.2681506,0.70517683,-2.0127442,-2.389795
1639,A,185007144275433,9.559748,-2.8483517,1.2186487,2.4841685,-2.0638769,-2.100043
1639,A,185007194247903,7.3115926,-3.9520788,1.7812861,2.4383621,-2.144837,-1.5727372
1639,A,185007244220373,6.3347583,-1.0072107,1.2425907,0.7722885,-2.0127442,-1.559954
1639,A,185007294192843,9.621997,-1.1484686,2.528277,-0.030920899,-1.4375014,-1.8614239
1639,A,185007344165313,12.971485,-2.4245782,3.9552212,-1.4125688,-1.0870293,-1.8933818
1639,A,185007394137783,14.503775,-2.5371056,4.1299977,-0.9587662,-0.6204436,-1.4022949
1639,A,185007444110253,14.2739315,-6.264878,5.765238,1.0183645,-0.2902116,-0.673654
1639,A,185007494082723,19.511847,-6.3079734,6.007052,0.35470483,1.1010238,0.59827167
1639,A,185007544055193,11.463139,-1.9696798,1.8890251,-0.25462642,1.674136,1.747692
1639,A,185007594027663,12.179005,-2.173187,1.1683705,-0.57633626,2.141787,2.3176084
1639,A,185007644000133,9.559748,-3.4492965,1.5777789,-0.83306503,1.9010373,2.6680806
1639,A,185007693972603,7.2134304,-2.2091,1.7046716,-0.5592921,1.4898453,2.730931
1639,A,185007743945073,6.531083,-2.0175638,-0.047884032,0.71050316,1.2384429,2.057684
1639,A,185007793916283,7.1679406,-1.9505262,-1.2545617,1.2985291,1.1841143,0.87737095
1639,A,185007843887493,9.574113,-1.177199,-1.4149733,-0.2823233,1.029651,0.13488165
1639,A,185007893858703,12.892477,-0.3895067,-1.6927006,-1.8961989,0.638699,-0.028103806
1639,A,185007943829913,10.447997,-0.18360534,-1.7238252,-1.312434,-0.3498664,-0.9729934
1639,A,185007993801123,16.043247,-0.6169559,-2.0709844,-0.8043029,-0.82177854,-1.6739373
1639,A,185008043772333,8.738537,-1.2274773,-0.8403648,0.47294918,-1.8646724,-1.9317313
1639,A,185008093743543,10.2061825,-2.079813,1.3311762,2.1262395,-2.0372453,-1.6526321
1639,A,185008143714753,8.135198,-3.193117,1.8650831,1.898273,-2.0383105,-1.2180042
1639,A,185008193685963,5.618892,-0.33922845,0.9840169,0.25563523,-1.8976957,-1.2819201
1639,A,185008243657173,7.991546,-1.165228,2.4372973,0.029799175,-1.5227225,-1.7889858
1639,A,185008293628383,12.2221,-2.6999114,4.24492,-0.8682187,-0.964524,-1.9317313
1639,A,185008343599593,11.877336,-1.9313726,3.3063924,-1.3933941,-0.6854247,-1.5844551
1639,A,185008393570803,14.508563,-4.8953943,5.12838,0.85644436,-0.53628767,-1.0496924
1639,A,185008443542013,15.911565,-6.628796,5.329493,2.483103,1.1596133,-0.0643228
1639,A,185008493513223,15.061624,-5.695058,4.584896,0.9501876,1.7764014,1.3801757
1639,A,185008543484433,14.235624,-1.9170073,1.8411411,0.09158451,2.6307435,2.4923117
1639,A,185008593455643,13.186964,-1.7805378,0.9864111,-1.260236,2.8736238,3.318957
1639,A,185008643426853,9.79438,-2.4126072,1.7764976,-1.5531838,2.3537748,3.6790164
1639,A,185008693398063,9.056966,-2.1923406,0.9840169,-0.10335888,1.8211426,3.2497149
1639,A,185008743369273,8.74572,-1.7757494,-1.0726024,1.402925,1.7348561,2.0587492
1639,A,185008793340483,9.267655,-0.9449615,-1.13964,0.6188904,1.6315254,1.0978807
1639,A,185008843313553,11.068095,0.8004116,-1.2593501,-1.336935,1.2224638,0.5322253
1639,A,185008893286623,9.820716,1.7820343,-1.9608512,-1.719365,0.17104791,-0.49682015
1639,A,185008943259693,9.387365,-0.07347207,-1.0247183,-0.704168,-0.48622024,-2.1181526
1639,A,185008993232763,12.018593,-0.9665093,-1.3479356,-0.96409255,-1.4790467,-3.1823518
1639,A,185009043205833,10.084078,-2.2761376,-0.11492168,0.18106672,-2.0308537,-3.4135141
1639,A,185009093178903,11.278785,-2.8172271,1.8076223,1.5286262,-1.9328493,-2.921362
1639,A,185009143151973,8.159141,-3.9472904,1.5729905,0.9320781,-1.9743947,-2.4004476
1639,A,185009193125043,8.558971,-0.8156746,1.1300632,-0.8873935,-1.737906,-2.3663592
1639,A,185009243098113,12.389694,-2.4533086,2.9975405,-1.4764848,-1.1733158,-2.356772
1639,A,185009293071183,13.220483,-4.2202296,3.0238767,-1.2826066,-1.1605326,-1.9892557
1639,A,185009343044253,15.863681,-6.497115,5.011064,0.44951335,-0.72590476,-0.9825807
1639,A,185009393017323,13.593978,-8.149115,5.4324436,2.0484753,-0.06437553,0.32343346
1639,A,185009442990393,16.445473,-6.7844195,6.265626,1.5786936,0.9561478,1.5538138
1639,A,185009492963463,14.408007,-3.91856,2.8491,1.8311614,2.1055682,2.2259958
1639,A,185009542936533,15.054441,-2.8579288,0.533907,0.77548426,2.935409,2.896047
1639,A,185009592909603,11.010634,-1.129315,1.9776106,-1.5947291,2.5838718,3.7152355
1639,A,185009642882673,9.775227,-1.4453497,2.1045034,-1.7129731,1.8211426,3.822827
1639,A,185009692855743,9.930849,-2.1061492,-0.5554548,0.882011,1.617677,2.8502407
1639,A,185009742828813,10.704177,-2.1109376,-2.0015526,1.566976,1.8605573,1.7040162
1639,A,185009792801883,11.582849,-0.25782558,-1.043872,-0.28764936,1.5846539,1.0478133
1639,A,185009842774953,11.376947,1.9137154,-1.721431,-1.8940681,0.81340235,0.27336603
1639,A,185009892749283,8.041824,0.51310736,-1.352724,-0.76382256,-0.320039,-1.555693
1639,A,185009942723613,13.201329,-1.1556512,-0.8379706,-0.74784356,-1.0635935,-2.7999218
1639,A,185009992697943,8.185476,-1.2466309,-0.19393034,-0.082053326,-1.7634723,-3.1866128
1639,A,185010042672273,9.356241,-1.9265841,0.8738836,1.1323482,-1.9328493,-3.154655
1639,A,185010092646603,8.863035,-3.358317,1.448492,1.4487317,-1.9818515,-3.0268233
1639,A,185010142620933,8.475175,-1.5698482,1.163582,0.07347528,-1.8859777,-3.2526593
1639,A,185010192595263,12.914024,-1.8188452,1.9871874,-1.035465,-1.3171265,-3.2824867
1639,A,185010242569593,14.451102,-4.20347,3.4404678,-1.7236258,-1.1413579,-2.5176268
1639,A,185010292543923,14.415189,-5.742942,3.052607,-0.50070226,-0.7876901,-0.99429864
1639,A,185010342518253,14.063242,-9.066093,4.5082817,1.6127824,-0.8047343,0.50559366
1639,A,185010392492583,19.478926,-8.316709,5.6527104,1.5520623,0.6632001,1.9713975
1639,A,185010442466913,11.8222685,-4.236989,2.4827871,1.5392791,1.3918409,2.9429188
1639,A,185010492441243,13.680169,-2.3743,0.3878607,1.1589798,2.1013072,3.4212224
1639,A,185010542415573,12.032958,-2.0654478,1.3335704,0.042582612,1.9223427,3.7493238
1639,A,185010592389903,9.701006,-1.627309,2.0709844,-0.4506348,1.3929062,3.6502542
1639,A,185010642364233,9.677064,-1.4357728,-0.8403648,0.9065121,1.2096807,2.8225439
1639,A,185010692338563,10.622774,-1.9984102,-1.2210429,1.4146432,1.5260643,1.8531532
1639,A,185010742312893,12.025776,-0.02558803,-1.2545617,-0.35049996,1.4546918,1.1372955
1639,A,185010792287223,10.701782,1.5402199,-1.721431,-1.7459964,0.95721334,0.29360604
1639,A,185010842261553,8.350677,0.39339727,-1.6280571,-0.9928544,0.025106952,-1.3266611
1639,A,185010892235883,11.518205,-0.65047467,-1.6017209,-0.7169509,-0.46917576,-2.9224272
1639,A,185010942204813,9.121609,-1.5052047,-1.3910311,-0.6359908,-1.3096694,-3.6180449
1639,A,185010992173743,9.717766,-2.6256912,-0.08619126,0.974689,-1.7538847,-3.5562596
1639,A,185011042142673,10.972327,-4.148403,1.8100165,2.815466,-1.7506888,-2.860642
1639,A,185011092111603,8.477569,-3.4301429,1.7956513,1.0950639,-1.5951602,-2.18846
1639,A,185011142080533,9.636363,-1.129315,1.9895816,-1.4115033,-1.1978166,-1.7261353
1639,A,185011192049463,12.07366,-1.9337668,3.064578,-2.2935424,-0.87397623,-1.5876509
1639,A,185011242018393,13.091196,-4.0789714,3.169923,-0.8160205,-0.6460096,-1.5876509
1639,A,185011291987323,13.960291,-6.8801875,4.345476,1.1067817,-0.6055296,-1.0635408
1639,A,185011341956253,16.002544,-7.078906,5.707777,1.4849507,0.5119328,0.45019993
1639,A,185011391925183,11.886912,-4.8355393,3.3518825,0.8788152,1.1468304,2.0363786
1639,A,185011441894113,13.359346,-3.2577603,1.4053963,0.22367756,1.9170166,3.0803378
1639,A,185011491863043,12.404059,-2.2162826,1.055843,-0.76169205,1.9819977,3.8260229
1639,A,185011541831973,9.305963,-1.9648914,1.3024458,-0.74997413,1.4653444,3.902722
1639,A,185011591800903,8.846276,-2.5802011,0.51954174,0.3728146,1.1095462,3.4095044
1639,A,185011641769833,9.284415,-1.3974656,-1.388637,0.7776151,1.0498914,2.5018992
1639,A,185011691738763,10.603621,-0.32246906,-1.5849615,-0.004289021,1.0946324,1.4749843
1639,A,185011741707693,11.192594,0.21622634,-1.4987702,-1.1355999,0.7377688,0.47363573
1639,A,185011791676623,9.806351,0.036661215,-1.400608,-0.77340996,-0.08248476,-0.9559491
1639,A,185011841645553,10.371383,-0.86355865,-0.90740246,-0.44956955,-0.55652744,-2.432406
1639,A,185011891614483,10.129568,-1.5483003,-0.49559975,-0.503898,-1.2052735,-3.1109793
1639,A,185011941583413,9.904513,-2.4293666,1.1348516,0.6252822,-1.517396,-3.2047226
1639,A,185011991550953,11.388918,-3.267337,2.9855695,1.2388746,-1.0529406,-2.6614377
1639,A,185012041518493,7.4720044,-2.6041431,1.9488802,-0.46767905,-0.9410879,-2.223614
1639,A,185012091486033,8.300398,-1.3591584,1.7357962,-1.1100335,-0.70566446,-2.2087004
1639,A,185012141453573,12.703335,-3.6623805,2.7269957,-1.4029812,-0.27103657,-2.1810036
1639,A,185012191421113,12.099997,-4.026299,1.7070658,-1.5798151,-0.40099883,-1.683525
1639,A,185012241388653,13.52694,-5.8578634,3.3542767,0.37920618,-0.56824535,-0.92186093
1639,A,185012291356193,15.980997,-8.797943,3.8594532,1.7757678,0.36386102,0.552465
1639,A,185012341323733,11.956344,-5.709423,2.566584,1.123826,0.78570575,2.0449004
1639,A,185012391291273,12.665028,-3.5354877,1.2306197,0.8511183,1.3534917,2.7085602
1639,A,185012441258813,11.206959,-3.2386067,0.8595184,0.36322722,1.379058,3.2305398
1639,A,185012491226353,7.8933835,-1.9265841,1.7788919,-0.055421714,1.0509566,3.4137652
1639,A,185012541193893,7.649175,-2.1468508,0.63206923,0.84046566,0.81553316,2.8097603
1639,A,185012591161433,9.531017,-2.0031986,-0.9888053,1.4583191,1.0520219,1.9106772
1639,A,185012641128973,11.484686,-1.0862194,-0.16759412,-0.16407868,1.334317,1.4217209
1639,A,185012691096513,12.131121,0.75492173,-1.1994951,-1.7992595,1.0956976,0.8677833
1639,A,185012741064053,10.493486,-0.15726912,-0.91458505,-1.4551792,0.29781464,-0.410534
1639,A,185012791031593,12.190976,-1.0622773,-0.92655605,-0.75423515,-0.14000903,-1.7218745
1639,A,185012840999133,7.898172,-1.4621091,-0.05746084,-0.24184299,-1.0710502,-2.4899302
1639,A,185012890966673,8.688259,-2.6161144,0.80924016,0.99386376,-1.4992864,-2.803118
1639,A,185012940934213,9.387365,-3.2864907,2.2409728,1.3869463,-1.3309747,-2.4228184
1639,A,185012990901753,6.3610945,-2.2521956,1.8842367,0.3035724,-1.2904946,-2.1170876
1639,A,185013040868343,7.376236,-1.5099931,1.6017209,-0.32067254,-1.026309,-2.2545068
1639,A,185013090834933,11.42962,-2.6759694,2.56419,-1.1313388,-0.66944546,-2.38873
1639,A,185013140801523,11.930008,-3.078195,2.1978772,-1.4019159,-0.6832939,-2.1724813
1639,A,185013190768113,14.781502,-5.910536,3.904943,0.7286129,-0.5352221,-1.2638108
1639,A,185013240734703,13.318645,-7.9863086,4.2640734,2.2455494,0.34149048,0.40758908
1639,A,185013290701293,13.9555025,-6.10686,4.4316673,0.7605708,1.0434997,2.0800543
1639,A,185013340667883,13.2133,-3.0374937,1.42455,0.24285233,1.6954416,2.9322658
1639,A,185013390634473,13.033734,-2.6999114,0.90979666,-0.18857977,1.951105,3.472355
1639,A,185013440601063,9.195829,-2.3503578,2.1691468,-0.70097196,1.4376476,3.5831423
1639,A,185013490567653,8.743325,-1.9002479,0.878672,0.08838899,1.0669355,3.2422578
1639,A,185013540534243,8.961198,-1.9265841,-1.0031705,1.1579145,1.060544,2.361284
1639,A,185013590500833,10.285192,-1.3878888,-0.79966336,0.4473831,1.1862452,1.6369042
1639,A,185013640467423,11.927613,0.053420626,-0.7134721,-1.25704,0.9422996,1.0360951
1639,A,185013690434013,10.151116,0.036661215,-0.7374141,-1.3561096,0.22750719,-0.071779914
1639,A,185013740400603,7.7377605,-0.8037036,-0.4165911,-0.20455873,-0.3360177,-1.7868557
1639,A,185013790367193,10.5006695,-1.6967409,-0.090979666,-0.39843684,-0.9709153,-2.815901
1639,A,185013840333783,9.358635,-1.9313726,0.842759,0.2705492,-1.4566759,-3.2366805
1639,A,185013890300373,11.063307,-2.9608793,2.8275523,0.9651016,-1.0721154,-2.8212273
1639,A,185013940266963,6.9404917,-3.276914,2.408567,-0.19071029,-0.9911553,-2.2630289
1639,A,185013990233553,7.1655464,-0.76779056,0.92895025,-1.3262821,-0.8505404,-2.2907257
1639,A,185014040206833,12.803891,-3.0734067,1.4796166,-1.2112336,-0.36371458,-2.4995174
1639,A,185014090180113,11.326669,-4.833145,2.1284454,-0.7425173,-0.67583704,-2.2651594
1639,A,185014140153393,14.408007,-6.130802,3.9432502,0.23859127,-0.5032642,-1.2840508
1639,A,185014190126673,12.902054,-7.761254,2.3463178,1.2314177,-0.040939443,0.122098215
1639,A,185014240099953,13.282732,-6.281637,3.9025488,1.1472619,0.3862316,1.2395606
1639,A,185014290073233,12.523769,-4.8642697,2.0231004,1.2388746,1.076523,1.8329129
1639,A,185014340046513,12.164639,-3.6384385,1.0462662,0.5368653,1.4909108,2.514682
1639,A,185014390019793,8.597279,-2.0774188,1.8387469,-0.74997413,1.2650747,3.1325355
1639,A,185014439993073,8.192659,-2.1707928,1.460463,-0.37713158,0.9699965,3.0877943
1639,A,185014489966353,8.963592,-2.7166708,-0.21308395,1.4093169,0.9220596,2.381524
1639,A,185014539939633,10.040982,-1.9002479,-0.7086837,1.164306,1.2054199,1.6464916
1639,A,185014589912913,11.800721,0.592116,-0.6464345,-1.1355999,1.1478957,0.9988108
1639,A,185014639886193,12.164639,0.8028058,-0.8882488,-2.3009992,0.4309727,-0.13143472
1639,A,185014689859473,15.226824,-0.10220248,-2.315193,-1.953723,0.36066523,-1.1061517
1639,A,185014739832753,8.496722,-1.9217957,-0.94570965,-0.35689154,-1.1530755,-1.8401189
1639,A,185014789806033,7.670723,-3.4947863,0.90740246,2.498017,-1.7730594,-2.0350623
1639,A,185014839779313,9.001899,-3.7485716,2.171541,3.1691337,-1.6015518,-1.6025649
1639,A,185014889752593,6.5119295,-1.5890018,1.1923125,0.5613664,-1.3288442,-1.5002995
1639,A,185014939725873,6.4736223,0.039055414,1.3144168,-0.95343965,-0.97517633,-1.792182
1639,A,185014989699153,8.992322,-1.6967409,2.6240451,-1.6213604,-0.45639256,-2.1170876
1639,A,185015039672433,10.79755,-2.9536967,2.5570073,-2.1891463,-0.47876313,-2.103239
1639,A,185015089642343,14.180557,-3.7605426,2.2936451,-1.5372045,-0.19540279,-1.5301269
1639,A,185015139612253,14.601937,-6.104466,1.733402,0.44525257,-0.046265766,-0.5564752
1639,A,185015189582163,17.2188,-8.390929,4.5394063,1.3368789,0.08476176,0.9764403
1639,A,185015239552073,10.400113,-3.9233484,1.8914193,1.8098563,0.5865013,2.0246606
1639,A,185015289521983,11.44159,-2.956091,1.2689269,1.0716281,1.2182031,2.4678104
1639,A,185015339491893,9.265262,-1.4740801,1.7932571,-0.3100199,1.3268601,2.6936464
1639,A,185015389461803,6.638822,-1.816451,1.6328455,-0.40695897,1.0147376,2.5604885
1639,A,185015439431713,6.428132,-1.8188452,0.61530983,0.40051147,0.838969,1.9511572
1639,A,185015489401623,7.488764,-1.2633903,-0.4189853,0.28333238,0.9604091,1.0819014
1639,A,185015539371533,10.965144,-0.3942951,-0.4237737,-1.0887282,1.0221945,0.37882695
1639,A,185015589341443,12.583625,-0.24585459,-1.067814,-1.8141733,0.78570575,-0.10906417
1639,A,185015639311353,10.196606,-1.0886136,-1.2210429,-1.0546397,-0.002589924,-1.3682067
1639,A,185015689281263,14.917972,-2.589778,-0.6823475,-0.6786014,-0.47450206,-1.7133524
1639,A,185015739251173,8.429685,-2.860323,0.24660277,0.7403308,-1.2500145,-1.6046954
1639,A,185015789221083,8.154352,-2.9297547,1.2090719,2.1017387,-1.1743808,-1.2765939
1639,A,185015839190993,5.8511295,-2.9704561,1.5107412,1.1419355,-1.1477492,-1.1274569
1639,A,185015889160903,6.198289,-0.36795887,1.043872,-0.31215045,-0.94428366,-1.5120174
1639,A,185015939130813,8.784027,-2.0055928,2.2385786,-0.9406564,-0.57037586,-1.8145525
1639,A,185015989100723,9.138369,-3.0255227,1.9153614,-0.74358255,-0.9613279,-2.0244095
1639,A,185016039070633,11.98268,-4.8738465,3.1292217,0.92994785,-0.72377396,-1.8145525
1639,A,185016089040543,14.92276,-7.5457754,4.486734,1.236744,-0.22629546,-0.43929616
1639,A,185016139014353,19.511847,-9.032575,4.134786,-0.10229335,0.99556285,1.9447657
1639,A,185016188988163,12.471097,-4.3519106,2.1140802,0.26202708,1.2544221,3.2390618
1639,A,185016238961973,13.4144125,-4.213047,1.3575124,0.38346723,1.3929064,3.602317
1639,A,185016288935783,10.613197,-2.601749,0.89782566,0.49851578,1.28638,3.7258878
1639,A,185016338909593,8.388984,-1.9050363,0.34476504,1.144066,1.250161,3.3988516
1639,A,185016388883403,7.955633,-1.5602713,-1.1755531,1.8354226,1.3630791,2.4411788
1639,A,185016438857213,7.3499,-0.9353847,-0.94810385,1.2836157,1.4056896,1.2278427
1639,A,185016488831023,9.430461,-0.7103297,-0.4381389,-0.47087485,1.1947672,0.46830916
1639,A,185016538804833,10.203789,-0.09501988,-0.9983821,-1.6948637,0.8261858,-0.16552319
1639,A,185016588778643,8.681076,-0.88750064,-0.82599956,-1.2623663,0.09647967,-1.2936382
1639,A,185016638752453,9.004293,-1.5626655,-0.7110779,-0.70097196,-0.32323453,-2.7328105
1639,A,185016688726263,10.629956,-1.3016975,-0.7565677,-1.1718189,-0.9911553,-3.6926136
1639,A,185016738700073,11.001058,-2.1229088,-0.1388637,-0.53585595,-1.4779812,-4.088892
1639,A,185016788673883,12.418425,-3.516334,1.6663644,1.164306,-1.3693242,-3.6478727
1639,A,185016838647693,9.078513,-5.0558057,1.7645266,1.5627149,-1.5845076,-2.9171011
1639,A,185016888621503,9.880571,-2.6975172,0.94810385,0.28759342,-1.3458884,-2.3525112
1639,A,185016938595313,13.99381,-3.3128269,2.7605145,-1.4637012,-1.0305701,-1.7612892
1639,A,185016988569123,12.490251,-3.8922238,3.1028855,-1.1973852,-0.7653192,-1.2648761
1639,A,185017038542933,13.960291,-7.4021235,4.7668557,0.7136992,-0.36371458,-0.49682042
1639,A,185017088516743,12.511799,-7.2919903,4.247314,1.732092,0.51086754,0.6398167
1639,A,185017138490553,12.370541,-6.2385416,5.571307,1.4998643,1.2182031,1.7785844
1639,A,185017188466243,13.6610155,-4.193893,2.0039468,1.711852,2.0565662,2.3996336
1639,A,185017238441933,14.343363,-2.8914475,0.51714754,0.6572402,2.5497837,3.0515754
1639,A,185017288417623,10.177452,-1.7326539,2.1404164,-1.1430568,2.1098294,3.6087086
1639,A,185017338393313,9.9116955,-2.0008044,1.2473791,-0.7584962,1.5388477,3.461702
1639,A,185017388369003,10.878953,-2.3264158,-1.2856863,1.1184996,1.5004982,2.6062949
1639,A,185017438344693,12.509404,-2.2378304,-1.5753847,0.6902634,1.632591,2.0331826
1639,A,185017488320383,13.574824,0.24974516,-2.0590134,-1.3252169,1.4035591,1.7306474
1639,A,185017538296073,10.436026,1.2600983,-1.7788919,-1.8685018,0.06878279,0.4161112
1639,A,185017588271763,12.645874,-0.09262568,-1.8148049,-1.0876629,-0.51178634,-1.224396
1639,A,185017638247453,6.7154365,-0.9760861,-0.8643068,-0.112945996,-1.6004865,-2.3919258
1639,A,185017688223143,8.156746,-1.9888334,0.39504328,1.3240957,-2.089443,-2.9298844
1639,A,185017738198833,8.657134,-2.8100445,2.7485435,1.5680413,-2.0468323,-2.7903347
1639,A,185017788174523,6.5334773,-1.4477439,2.3104045,0.19704595,-1.9317838,-2.8393369
1639,A,185017838150213,8.554183,-0.22670098,2.3678656,-1.422156,-1.5429623,-3.4529293
1639,A,185017888125903,14.575601,-1.7972972,3.3758245,-2.3840897,-0.6566623,-3.5338893
1639,A,185017938101593,15.116691,-4.3040266,2.6862943,-1.5105729,-0.4201736,-2.488865
1639,A,185017988077283,16.737564,-9.394099,4.9344497,0.4559052,-0.5032642,-0.47125408
1639,A,185018038052973,15.049653,-8.144326,4.074931,0.88946784,0.58330554,1.17671
1639,A,185018088028663,11.872547,-5.584924,3.6607344,1.0961292,0.9039501,1.8861761
1639,A,185018138004353,11.783961,-4.6847043,2.8179753,1.5999992,1.4397781,2.1716669
1639,A,185018187983763,11.556512,-3.1787517,1.5969325,0.7200908,1.7550964,2.5210738
1639,A,185018237963173,8.398561,-1.7565958,1.6807296,-0.5486391,1.5495003,2.8640888
1639,A,185018287942583,8.065766,-2.149245,0.47884035,0.15869644,1.3183379,2.6861897
1639,A,185018337921993,9.428067,-2.8315923,-0.4333505,1.0460618,1.3247296,2.0928373
1639,A,185018387901403,11.934796,-1.567454,-0.6560113,0.038321555,1.3119464,1.8073466
1639,A,185018437880813,11.367371,-0.07107786,-1.115698,-1.1750146,0.80594575,1.293889
1639,A,185018487860223,10.7472725,-0.33922845,-1.127669,-0.68499297,-0.027091006,0.36710903
1639,A,185018537839633,9.011476,-1.3064859,-0.25139117,0.30783346,-0.4372178,-1.0859116
1639,A,185018587819043,10.701782,-1.0550947,0.62728083,-0.298302,-0.92830473,-1.6366533
1639,A,185018637798453,7.6898766,-1.5722424,1.5227122,-0.3526305,-1.1605324,-1.9072305
1639,A,185018687777863,8.295609,-2.0391116,2.7964275,-0.094836496,-0.89741206,-2.0126917
1639,A,185018737757273,6.468834,-2.1803696,2.9400797,-0.69138455,-0.75040555,-2.1021738
1639,A,185018787736683,6.5478425,-1.9194015,2.6072857,-1.4913982,-0.61937803,-2.4899302
1639,A,185018837716093,10.1822405,-3.2625487,3.1052797,-2.0378788,-0.2752976,-2.6028483
1639,A,185018887695503,11.482292,-5.7620955,2.645593,-0.42613372,-0.17622803,-2.2023087
1639,A,185018937674913,14.422372,-9.1451025,3.2034419,1.1781545,-0.16983645,-1.1817855
1639,A,185018987654323,12.56926,-7.088483,2.0039468,1.128087,0.2392251,0.29467106
1639,A,185019037633733,13.419201,-7.7181582,3.667917,1.4540579,0.24029036,1.5857716
1639,A,185019087613143,11.709742,-5.695058,1.8986019,2.0229092,0.6365687,2.1130774
1639,A,185019137592553,11.5277815,-4.047847,1.7238252,1.2473967,0.9039501,2.6212087
1639,A,185019187571963,7.8119807,-2.1468508,1.2354081,0.5304737,0.8080763,2.920548
1639,A,185019237553383,7.6036854,-2.6185086,1.1228806,1.252723,0.86240476,2.711756
1639,A,185019287534803,8.958803,-2.2498014,0.14604631,1.36138,0.9817144,2.0235953
1639,A,185019337516223,10.400113,-0.016011223,-0.15083471,-0.33665153,1.0317818,1.3908281
1639,A,185019387497643,10.701782,1.2600983,-0.9672575,-1.6618404,0.6365687,0.5258334
1639,A,185019437479063,10.720936,0.65197104,-1.115698,-1.3997854,-0.24653548,-0.6203911
1639,A,185019487460483,9.8638115,-0.73906016,-1.5346833,-0.33239046,-0.413782,-1.8742074
1639,A,185019537441903,10.807127,-1.4453497,-0.5530606,-0.24184299,-1.1658586,-2.2044394
1639,A,185019587423323,9.799169,-2.0534768,0.25857377,-0.07140068,-1.4822422,-2.215092
1639,A,185019637404743,10.139145,-3.1524155,2.2385786,0.5773454,-1.3192568,-1.9125569
1639,A,185019687386163,6.911761,-2.5610476,1.8698715,-2.7963191E-5,-1.3235178,-1.8592936
1639,A,185019737367583,7.979575,-2.2114942,2.2290018,-0.21201558,-1.1381618,-2.2097657
1639,A,185019787349003,11.386524,-3.432537,3.2609026,-0.5443781,-0.72377396,-2.2268097
1639,A,185019837330423,11.159075,-3.621679,2.8993783,-0.33665153,-0.6832939,-2.002039
1639,A,185019887311843,14.494198,-6.5354223,5.0613422,1.288942,-0.23268704,-1.2947035
1639,A,185019937293263,12.6099615,-6.7844195,4.209007,1.4764285,0.5726529,0.19347093
1639,A,185019987274683,14.613908,-7.0118685,5.3366756,1.2282219,1.2597485,1.6273168
1639,A,185020037256103,13.016975,-4.6942816,3.016694,1.1536534,1.8531007,2.4102862
1639,A,185020087237523,14.091972,-3.3367689,1.4460979,0.2524397,2.1471138,2.9695501
1639,A,185020137218943,10.443209,-2.1444566,1.3503298,-0.8351953,1.8722755,3.3988516
1639,A,185020187200363,9.267655,-2.256984,0.6679823,-0.25143036,1.5324562,3.2678242
1639,A,185020237181783,10.596437,-2.577807,-0.59615624,1.0620407,1.5452393,2.6446443
1639,A,185020287164283,12.167034,-0.3990835,-1.2545617,0.011689945,1.4237992,2.0161383
1639,A,185020337146783,11.599608,1.6192285,-1.7788919,-1.3763496,0.9636049,1.2235817
1639,A,185020387129283,9.334693,2.0142717,-1.553837,-1.2527789,-0.16557539,-0.1623274
1639,A,185020437111783,10.385748,0.05581483,-1.388637,-0.36221787,-0.42763042,-1.7730072
1639,A,185020487094283,10.716147,-0.044741645,-1.1755531,-0.62427294,-1.2702546,-2.7903347
1639,A,185020537076783,10.316316,-1.9002479,-0.17956513,0.2588313,-1.8327142,-3.2334847
1639,A,185020587059283,10.503063,-3.147627,1.9129672,1.244201,-1.7847773,-2.9948654
1639,A,185020637041783,7.5581956,-2.7334301,1.7788919,0.58054113,-1.7411015,-2.8105748
1639,A,185020687024283,9.279627,-1.782932,1.8459295,-0.59977186,-1.4950254,-2.9852781
1639,A,185020737006783,13.423989,-2.7837083,2.8634653,-1.3422612,-0.93043524,-2.9906044
1639,A,185020786989283,14.4104,-4.258537,2.825158,-1.1047071,-0.7461445,-2.36849
1639,A,185020836971783,14.769531,-8.196999,5.0493712,1.0801501,-0.6800981,-0.8206608
1639,A,185020886954283,14.482226,-9.724499,4.757279,1.8524668,0.6248508,1.0872278
1639,A,185020936936783,12.952332,-4.952855,3.6463692,0.70730764,1.2277905,2.3751326
1639,A,185020986919283,13.143868,-3.657592,1.553837,0.83513933,1.8126206,3.053706
1639,A,185021036901783,12.487857,-3.7557542,1.1827357,0.38666302,1.7465743,3.5352054
1639,A,185021086884283,9.188647,-2.0606594,1.697489,-0.2951062,1.3396432,3.6364055
1639,A,185021136866783,9.607632,-2.1779754,-0.5793968,0.88307625,1.30662,3.0899248
1639,A,185021186849283,9.327511,-2.173187,-1.460463,1.5083865,1.4632139,2.1343827
1639,A,185021236831783,11.151893,-0.79173255,-1.0989386,-0.16194816,1.483454,1.4153292
1639,A,185021286814283,12.255619,1.2409446,-1.9728222,-2.131622,1.2416389,0.81878114
1639,A,185021336795683,9.823111,0.64957684,-1.541866,-2.0048556,0.21046296,-0.37538028
1639,A,185021386777083,13.313856,-0.6289269,-2.1164744,-1.0333345,-0.18048908,-1.7900515
1639,A,185021436758483,9.10485,-1.1724106,-1.3958195,0.028734175,-1.2894293,-2.7466588
1639,A,185021486739883,10.402507,-2.7765257,0.076614454,1.5456707,-1.819931,-3.1408067
1639,A,185021536721283,9.715371,-3.8515224,2.5091233,1.8151826,-1.8263227,-2.6720903
1639,A,185021586702683,6.3036337,-1.8595465,1.4317327,0.42501253,-1.7219267,-2.5154965
1639,A,185021636684083,8.549395,-1.6967409,1.8746599,-0.028790103,-1.37252,-2.843598
1639,A,185021686665483,13.148657,-3.1859343,2.9759927,-1.1739494,-0.91552156,-2.7487893
1639,A,185021736646883,13.64665,-3.5594296,2.2146366,-1.4200255,-0.75040555,-2.0169528
1639,A,185021786628283,14.776713,-7.6199956,5.4420204,0.8969247,-0.7312308,-0.5330394
1639,A,185021836609683,14.937125,-8.675838,5.6215854,2.7355711,0.5641307,1.0265077
1639,A,185021886591083,13.85734,-4.7996264,3.5865142,1.3390094,1.447235,2.04277
1639,A,185021936572483,13.529334,-2.7046998,1.3670892,0.79252875,2.1300695,2.56688
1639,A,185021986553883,12.332233,-2.2138884,1.115698,-0.029855367,2.1812022,2.9386573
1639,A,185022036535283,8.72896,-1.7781436,1.9488802,-0.7403867,1.7806628,3.0047038
1639,A,185022086516683,8.482357,-1.9936218,0.05267244,0.35683563,1.560153,2.5072253
1639,A,185022136498083,8.590096,-2.2498014,-1.1779473,1.3070515,1.5867846,1.5804452
1639,A,185022186479483,11.745654,-1.5937902,-1.0175357,-0.02346378,1.6357868,1.2661922
1639,A,185022236460883,12.4351845,-0.31289223,-1.4820108,-1.6916679,1.2640095,1.2981502
1639,A,185022286442283,10.601226,-0.89228904,-1.4508862,-2.5044646,-0.004720453,1.15647
1639,A,185022336423683,13.711294,-7.040599,-1.6519991,-1.1015114,-0.55226636,1.0946846
1639,A,185022386406343,8.920496,-5.910536,-1.910573,-0.68073195,-1.2169914,0.44167754
1639,A,185022436389003,5.736208,-3.6599863,1.6256629,-1.1025766,-1.3054084,-0.54156154
1639,A,185022486371663,4.534319,-3.3056443,2.3822308,-0.9204164,-1.2297746,-0.95807993
1639,A,185022536354323,2.1568766,-1.6368858,2.348712,-0.32067254,-1.0092648,-1.6622198
1639,A,185022586336983,2.674024,-2.5610476,2.3918076,-2.1891463,-0.04946156,-1.9690158
1639,A,185022636319643,6.732196,-1.6297032,6.4164605,1.9611238,0.17850503,-3.8598602
1639,A,185022686302303,8.108862,1.042226,2.9400797,-0.6370561,-0.69181603,-4.7429643
1639,A,185022736284963,14.47265,-2.994398,0.50757074,-0.041573275,-0.434022,-5.16907
1639,A,185022786267623,19.511847,-8.060529,2.765303,3.2980306,0.43523374,-3.423102
1639,A,185022836250283,19.407099,-14.230387,2.0949266,2.7089396,-0.18794593,-0.023843015
1639,A,185022886232943,10.950779,0.0055365916,1.9895816,1.856728,0.63230765,1.8105423
1639,A,185022936215603,10.270826,-2.8818707,1.9321208,0.16828382,1.3897107,1.8829803
1639,A,185022986198263,6.61488,-4.335151,2.9017725,-0.4122853,1.3556222,2.1567533
1639,A,185023036180923,5.5039706,-1.9744682,2.1691468,-0.7286688,1.1361778,2.2334523
1639,A,185023086163583,7.136816,-2.7956793,-0.21308395,0.38559777,1.0797187,1.8691319
1639,A,185023136146243,9.10485,-2.6999114,-1.0893618,0.10862901,1.1020893,1.6028157
1639,A,185023186128903,13.967473,-0.8396166,-1.6831238,-1.7545185,1.1297861,1.5463568
1639,A,185023236111563,12.495039,1.3367127,-3.1292217,-1.9249607,0.16785239,0.60998935
1639,A,185023286094223,10.208577,0.4364929,-1.7022774,-2.7963191E-5,-0.5554622,-0.99642944
1639,A,185023336076883,13.440749,-0.25782558,-0.81402856,0.63486964,-1.187164,-1.611087
1639,A,185023386059543,9.574113,-0.98087454,0.21787235,1.3709674,-1.5514843,-1.514148
1639,A,185023436042863,10.773608,-2.0343232,2.3319526,1.3539231,-1.0113953,-1.0965643
1639,A,185023486026183,6.1120977,0.1467945,0.81163436,-0.3760663,-0.9826332,-1.2020254
1639,A,185023536009503,6.3706713,-0.24346039,2.1667526,-0.6572961,-0.67796755,-1.6281313
1639,A,185023585992823,8.810363,-1.9768624,2.480393,-1.0770103,-0.38715038,-1.8997737
1639,A,185023635976143,10.637139,-2.6161144,1.8938135,-1.5095077,-0.39034617,-1.9104263
1639,A,185023685959463,13.210906,-4.3279686,2.5091233,-0.05755224,-0.2667755,-1.6771334
1639,A,185023735942783,13.476662,-7.0334163,3.2369606,1.587216,-0.28914607,-0.9495578
1639,A,185023785926103,18.183662,-8.141932,5.0014873,1.6830899,0.5928929,0.5364861
1639,A,185023835909423,12.279561,-4.236989,2.5498247,1.2495272,1.2597485,1.7934982
1639,A,185023885892743,13.25879,-3.7078702,1.1013328,0.79252875,1.8083596,2.4390483
1639,A,185023935876063,9.753678,-2.4964042,0.9528923,-0.2237335,1.677332,2.9152212
1639,A,185023985859383,7.596503,-1.6919525,1.6041151,-0.3696747,1.3684053,2.930135
1639,A,185024035842703,7.9125376,-2.2881086,0.04070143,1.0236912,1.3151422,2.252627
1639,A,185024085826023,8.781632,-1.9002479,-1.0845734,1.1579145,1.4323213,1.3567394
1639,A,185024135809343,11.53257,0.070180036,-1.0103531,-1.148383,1.4088855,0.8933494
1639,A,185024185792663,11.57806,1.4612112,-2.1667526,-2.5065951,0.81766367,0.45765623
1639,A,185024235775983,8.841488,0.4628291,-1.5825673,-1.1185557,-0.2039249,-0.84729266
1639,A,185024285759303,15.095142,-0.66483986,-2.3319526,-0.36860946,-0.8548015,-1.9466456
1639,A,185024335742623,10.538977,-0.98326874,-1.0390835,0.50277686,-1.7496235,-2.3418586
1639,A,185024385725943,10.6946,-2.5107694,1.7405846,2.0953472,-1.8774554,-2.1160226
1639,A,185024435709263,6.9380975,-3.6408327,2.432509,1.9099911,-1.908348,-1.7676811
1639,A,185024485692953,5.97084,-0.55949503,1.4221559,0.16082697,-1.489699,-1.7655506
1639,A,185024535676643,9.011476,-1.5195699,3.2680852,-1.1036419,-1.2180567,-2.2076354
1639,A,185024585660333,13.210906,-2.838775,3.4955344,-0.9300038,-0.9634584,-2.4292104
1639,A,185024635644023,13.921984,-5.4053593,4.7740383,1.470037,-0.5959422,-1.7442453
1639,A,185024685627713,14.017752,-8.041375,5.98311,2.485234,0.17530924,-0.24115722
1639,A,185024735611403,19.511847,-6.5258455,7.4363904,0.43459994,1.4909108,1.5634007
1639,A,185024785595093,12.851775,-2.8675056,3.028665,0.061757375,1.9170166,2.4880502
1639,A,185024835578783,14.532505,-3.8371572,1.685518,0.33233455,2.2632275,2.6893852
1639,A,185024885562473,10.270826,-2.3838768,1.1923125,-0.1544913,1.9969114,2.9237435
1639,A,185024935546163,8.025064,-1.8571523,0.39504328,0.057496317,1.7678796,2.8182821
1639,A,185024985529853,8.84867,-2.1348798,-0.5770026,1.0897375,1.6613531,2.145035
1639,A,185025035513543,11.278785,-1.1269208,-1.388637,0.2556355,1.797707,1.5506176
1639,A,185025085497233,11.520599,1.173907,-1.8602947,-1.369958,1.3119464,0.9423516
1639,A,185025135480923,10.864588,1.8251299,-2.0925324,-1.6565142,0.4842359,0.18601382
1639,A,185025185464613,7.9939404,0.36706105,-0.85473,-0.23332088,-0.2934071,-1.0784551
1639,A,185025235448303,11.051335,0.52986676,-1.388637,-0.3643484,-0.87610674,-2.258768
1639,A,185025285431993,10.258855,-0.09023148,-0.6440403,-0.68286246,-1.6494887,-3.0396068
1639,A,185025335415683,11.757626,-1.9888334,1.2808979,-0.16620922,-1.7698636,-3.2910092
1639,A,185025385399373,9.428067,-3.267337,2.1523874,0.68280655,-1.7783858,-3.0587816
1639,A,185025435383063,8.312369,-3.2745197,2.3008277,1.0290174,-1.6324445,-3.0502596
1639,A,185025485366753,11.228507,-4.4452844,3.478775,1.1951988,-1.3895642,-2.8372066
1639,A,185025535350643,13.751995,-5.414936,4.582502,0.41862094,-1.1807724,-1.883795
1639,A,185025585334533,13.505392,-6.1499557,6.167464,1.5019948,-0.6279001,-0.5213218
1639,A,185025635318423,13.392865,-8.022222,6.715736,1.4146432,-0.15811853,0.80812824
1639,A,185025685302313,16.457443,-5.994333,6.145916,1.4604496,1.1979631,1.8094769
1639,A,185025735286203,14.161404,-4.354305,2.896984,2.1528714,1.8839934,2.2430394
1639,A,185025785270093,16.874035,-3.2386067,1.0223241,1.5925424,2.8235567,2.631861
1639,A,185025835253983,13.246819,-1.4788685,1.2689269,-0.75423515,2.567893,3.4521146
1639,A,185025885237873,9.921272,-0.76539636,1.6950948,-1.8301523,1.9617577,3.9517236
1639,A,185025935221763,10.019435,-1.9026421,-0.45010993,0.2045028,1.5771972,3.3807418
1639,A,185025985205653,12.262802,-2.3551462,-2.2266076,1.3730979,1.829665,2.5317261
1639,A,185026035189543,11.518205,-0.25782558,-1.388637,-0.0916407,1.6198078,1.7839104
1639,A,185026085173433,12.217312,1.4755764,-1.6160861,-1.8951334,0.88264483,0.95406944
1639,A,185026135157323,7.416938,0.6974609,-1.0486604,-1.2069726,-0.06970158,-0.77059364
1639,A,185026185141213,10.565312,-0.25543138,-1.0845734,-1.1867325,-0.8963468,-2.407905
1639,A,185026235125103,7.3355346,-0.6049848,-0.6631939,-0.354761,-1.8018216,-3.6777003
1639,A,185026285108993,9.909302,-1.6895583,0.30406362,0.65297914,-2.3333886,-4.236964
1639,A,185026335092883,10.057742,-3.0231285,2.0614076,1.5786939,-2.455894,-4.064391
1639,A,185026385076773,9.552566,-1.8715175,1.5969325,1.3549883,-2.1554894,-4.0100627
1639,A,185026435060663,15.083172,-2.2426188,2.8323407,-0.9097638,-1.5600065,-3.5594559
1639,A,185026485044553,16.603489,-4.052635,4.675876,-2.0155082,-1.4662633,-2.2651596
1639,A,185026535028443,16.263514,-8.575282,7.81228,-0.27060512,-0.7088602,-0.4361006
1639,A,185026585012423,12.779949,-9.334244,6.658275,2.0772376,-0.02069942,0.4853531
1639,A,185026634996403,17.939453,-7.778013,7.9846625,0.7957246,1.4493655,1.3886974
1639,A,185026684980383,12.535741,-2.1276972,4.110844,-0.4506348,2.2280738,2.3282607
1639,A,185026734964363,13.850158,-2.9010243,2.3535004,-0.83306473,2.4336698,2.9876592
1639,A,185026784948343,12.0209875,-3.0949545,1.1779473,-0.8170858,2.0895894,3.558641
1639,A,185026834932323,10.713754,-2.0391116,0.6895301,-0.12679443,1.5931762,3.4915292
1639,A,185026884916303,11.087249,-2.2976854,-0.4333505,0.98427635,1.6016983,3.002573
1639,A,185026934900283,11.331457,-0.89947164,-1.1180922,0.5645622,1.6102204,2.5061598
1639,A,185026984884263,10.43842,1.4300866,-1.3718776,-0.4090895,1.0988935,1.7412999
1639,A,185027034868243,10.433632,1.1355999,-0.7589619,-0.81815106,0.5683918,0.7101239
1639,A,185027084852223,6.8854246,1.6790836,-0.7038953,-0.56781393,-0.27210182,-1.2925732
1639,A,185027134836203,12.765584,0.33354223,-1.0941502,-1.5521182,-0.8846289,-2.7509203
1639,A,185027184820183,8.927679,-0.274585,-0.35913026,-1.0652924,-1.6952951,-3.547738
1639,A,185027234804163,11.250054,-1.9696798,1.2785037,0.8053119,-1.7783858,-3.8087277
1639,A,185027284788143,11.127951,-3.8203976,2.873042,0.9342089,-1.4545454,-3.5093884
1639,A,185027334772123,9.655517,-1.4238018,3.9025488,-1.4306781,-1.0838333,-3.407123
1639,A,185027384756103,12.459126,-2.6185086,3.6942532,-2.6216438,-0.6864897,-3.3421419
1639,A,185027434740083,14.882058,-5.862652,3.7421372,-1.4711581,-0.40525988,-2.439863
1639,A,185027484724063,14.218864,-10.426001,5.2504845,0.24711338,-0.21138175,-0.5404965
1639,A,185027534708043,11.494263,-9.746047,5.0517654,1.7129172,-0.013242569,0.6749702
1639,A,185027584692023,17.355268,-10.050111,6.066907,1.5019948,0.875188,1.7072114
1639,A,185027634676073,13.036129,-5.0893245,2.9879637,1.0098428,1.4536265,2.7362568
1639,A,185027684660123,13.433566,-3.4157777,1.5945383,0.4292736,1.5463046,3.5160303
1639,A,185027734644173,11.223719,-2.7741315,0.48602295,0.5219516,1.2544221,3.9027214
1639,A,185027784628223,9.995493,-2.0941782,0.39743748,1.4817549,1.0232598,3.4872682
1639,A,185027834612273,11.151893,-2.0055928,-0.8595184,1.6362182,1.2650747,2.8598275
1639,A,185027884596323,11.242872,0.47958854,-1.0941502,-0.31428096,1.302359,2.4592881
1639,A,185027934580373,10.333076,2.0597618,-1.8555063,-1.4104381,0.86666584,1.6305124
1639,A,185027984564423,10.378565,1.6766894,-1.283292,-1.0535744,0.119915485,0.13488112
1639,A,185028034548473,8.558971,1.0589854,-0.81642276,-0.48046222,-0.4617189,-2.049976
1639,A,185028084532523,12.34181,-0.13332711,-0.94810385,-1.663971,-1.3117999,-3.1706345
1639,A,185028134516573,10.457574,-1.3735236,0.50278234,-0.7105593,-1.9115437,-3.6787655
1639,A,185028184500623,11.5613,-2.517952,1.9919758,1.2314177,-1.7815815,-3.6702435
1639,A,185028234484673,8.925284,-4.0310874,2.3822308,1.5456707,-1.8646722,-3.3772957
1639,A,185028284468723,9.859023,-1.9241899,1.7836803,0.36748827,-1.5205917,-3.161047
1639,A,185028334452773,14.87727,-2.9824271,3.347094,-1.3411958,-0.99541634,-2.4302757
1639,A,185028384436823,13.174993,-4.658368,3.6703112,-1.3965896,-0.8707804,-1.2840511
1639,A,185028434420873,14.0393,-7.5721116,5.5042696,1.2420703,-0.5543969,-0.18150242
1639,A,185028484404923,13.500604,-7.653515,5.197812,2.3989475,0.7153983,0.76338714
1639,A,185028534388973,14.221259,-5.2066407,4.4077253,1.4061211,1.4536265,1.733843
1639,A,185028584373023,13.505392,-2.5754128,2.1978772,0.7200908,2.1918547,2.4113512
1639,A,185028634357073,13.582007,-2.505981,1.1755531,-0.14383866,2.5178256,3.0569015
1639,A,185028684341153,9.291597,-1.9098247,2.2625206,-1.1973852,2.0107598,3.5298789
1639,A,185028734325233,9.037812,-1.7494133,0.7182605,-0.5166812,1.4461697,3.1857984
1639,A,185028784309313,10.656293,-2.2354362,-1.4939818,1.0577797,1.4536265,2.4379828
1639,A,185028834293393,12.990639,-1.4884453,-1.5753847,0.2801366,1.5473698,1.971397
1639,A,185028884277473,12.380117,1.042226,-2.5354595,-1.1100333,1.213942,1.2757794
1639,A,185028934261553,9.124003,1.482759,-1.8171991,-1.0802058,0.1731787,-0.28909412
1639,A,185028984245633,11.075277,0.3000234,-1.2856863,-1.0216163,-0.46811047,-2.0659552
1639,A,185029034229713,8.851065,-0.30810383,-1.2114661,-1.2613008,-1.4747853,-3.120567
1639,A,185029084213793,10.1343565,-2.446126,-0.1604115,0.4963855,-2.0223312,-3.4241674
1639,A,185029134197873,10.043377,-3.7030818,2.111686,2.585369,-2.122466,-2.854251
1639,A,185029184181953,6.66037,-3.657592,1.6496049,2.295617,-2.282256,-2.3823388
1639,A,185029234166033,8.676288,-1.0670657,1.316811,0.5251477,-2.0202007,-2.4696903
1639,A,185029284150113,14.618696,-1.6057612,2.9137435,-1.4583747,-1.3480189,-2.363164
1639,A,185029334134193,14.695311,-2.8483517,3.6104562,-2.2711716,-1.0337659,-1.7666159
1639,A,185029384118273,15.023316,-7.0621467,6.4164605,1.1003904,-0.728035,-0.5958903
1639,A,185029434102353,14.194922,-8.462755,7.4866686,1.9898863,0.86666584,0.77723557
1639,A,185029484086433,12.914024,-3.241001,4.3502645,0.59865093,1.745509,1.8052157
1639,A,185029534070513,13.016975,-1.8715175,2.4061728,0.10436822,2.5295436,2.3921764
1639,A,185029584054593,13.268367,-2.7477953,1.4628572,-0.77340966,2.8608408,2.9514403
1639,A,185029634038673,9.571719,-2.1995232,2.753332,-1.9835501,2.200377,3.4521146
1639,A,185029684022753,9.392154,-1.4190134,1.1755531,-1.2197554,1.564414,3.296586
1639,A,185029734006843,9.77762,-2.0582652,-1.6136919,0.73607004,1.451496,2.5668797
1639,A,185029783990933,11.324275,-1.7853262,-1.6400281,0.5890635,1.4983677,1.770062
1639,A,185029833975023,12.787132,0.44846392,-1.6519991,-1.0599658,1.2725316,1.1394255
1639,A,185029883959113,8.484752,0.76689273,-0.89543146,-1.2900629,0.16678712,-0.3913595
1639,A,185029933943203,14.034511,-0.29852703,-1.3670892,-1.3699578,-0.32749557,-1.8305317
1639,A,185029983927293,8.386589,-1.0167875,-0.7565677,-0.8596961,-1.3235176,-2.725354
1639,A,185030033911383,8.5182705,-2.352752,0.19632454,0.989603,-1.97759,-3.2121797
1639,A,185030083895473,8.11365,-3.657592,2.1045034,2.3329015,-2.1522932,-3.185548
1639,A,185030133879563,6.3227873,-2.0606594,1.103727,1.3528582,-2.2673419,-3.4518642
1639,A,185030183863653,10.3809595,-1.0431237,1.5873557,0.28546318,-1.7538844,-3.8918185
1639,A,185030233847743,16.383223,-3.8491282,3.8426938,-0.8959151,-1.17225,-3.1685038
1639,A,185030283831833,14.537293,-5.168333,3.1172507,-1.1451869,-0.77597165,-0.9857771
1639,A,185030333815923,15.181334,-8.675838,5.257667,0.6700236,-0.73016524,0.8241072
1639,A,185030383800013,16.835728,-6.1882634,5.777209,0.7840069,0.61739427,1.7412999
1639,A,185030433784103,12.674604,-5.187487,3.6583402,1.5243657,1.4440395,2.02466
1639,A,185030483768193,14.429554,-3.1165025,1.2761095,1.5328878,2.2547057,2.229191
1639,A,185030533752283,11.424831,-1.9409494,2.0566192,-0.3228028,2.1865287,2.8342612
1639,A,185030583736373,8.384195,-0.9736919,2.6599581,-1.3699578,1.7156819,3.300847
1639,A,185030633720463,8.690653,-1.8739117,0.34476504,0.23113468,1.3428394,2.9130907
1639,A,185030683704553,10.074501,-2.5347114,-1.2378023,1.4540583,1.5718712,2.1290562
1639,A,185030733688643,12.849381,-1.0407295,-0.5650316,-0.0959015,1.7945114,1.6667314
1639,A,185030783672743,12.456732,0.96800566,-1.3575124,-2.0985987,1.4440395,1.157535
1639,A,185030833656843,8.456021,0.7956231,-1.5658079,-2.0165732,0.6014153,-0.3103994
1639,A,185030883640943,11.482292,-0.6983587,-1.7669208,-1.382741,-0.16450985,-1.9956478
1639,A,185030933625043,7.8909893,-1.4214076,-0.5602432,-0.5177462,-1.2137953,-3.0790217
1639,A,185030983609143,9.193436,-1.972074,0.2681506,1.0780199,-1.7911687,-3.5498686
1639,A,185031033593243,9.619603,-3.8443398,2.8419175,2.0772378,-1.6931643,-3.172765
1639,A,185031083577343,6.612486,-1.9505262,1.8962077,0.3866633,-1.3906292,-2.9277542
1639,A,185031133561443,9.171887,-0.89228904,2.1284454,-1.7225603,-1.0827678,-3.124828
1639,A,185031183545543,14.520534,-2.9010243,2.9281087,-2.4394832,-0.7365568,-3.0747607
1639,A,185031233529643,15.901988,-5.891382,3.086126,-1.169688,-0.52776504,-2.101109
1639,A,185031283513743,14.819809,-10.524162,4.3502645,1.7842902,-0.89954233,-0.40627322
1639,A,185031333497843,17.240347,-9.640702,5.434838,2.0985432,0.34468654,1.2874973
1639,A,185031383481943,11.590032,-3.6982934,2.4133554,1.3880118,1.0818496,2.0630097
1639,A,185031433466043,13.665804,-3.3104327,0.91937345,1.2569844,1.8722757,2.5743368
1639,A,185031483450143,11.393706,-2.8675056,0.8690952,0.07560608,1.7870545,3.2624974
1639,A,185031533434243,8.709806,-1.4046482,1.910573,-0.7521044,1.2011591,3.659841
1639,A,185031583418343,8.8366995,-1.9744682,-0.16759412,0.5539098,0.94016933,3.187929
1639,A,185031633402443,10.622774,-1.1508628,-1.3503298,1.13874,1.4269952,2.2078857
1639,A,185031683386543,10.249278,2.8761845,-1.520318,-0.89271927,1.2640097,0.9242421
1639,A,185031733370643,10.567707,4.3007345,-2.1188686,-2.0985987,0.91140723,-0.23476563
1639,A,185031783354743,9.444826,3.216161,-2.2481554,-0.96196145,-0.44041333,-2.1309364
1639,A,185031833338833,18.49491,0.19228433,-4.0414124,-0.65196955,-0.69181573,-3.036411
1639,A,185031883322923,10.6993885,-1.7206829,-2.1428106,0.71156895,-1.8753245,-3.3794262
1639,A,185031933307013,12.916419,-1.9265841,0.18914193,2.1358275,-2.042571,-3.0513248
1639,A,185031983291103,10.706571,-5.034258,1.8076223,2.2679203,-2.0574846,-2.387665
1639,A,185032033275193,8.080132,-1.4333786,1.3000516,-0.24929957,-1.6963601,-1.9892561
1639,A,185032083259283,10.603621,-1.6871641,2.825158,-1.5393348,-1.1434878,-1.8688812
1639,A,185032133243373,12.930784,-3.7629368,3.8546648,-2.458658,-0.652401,-1.3575543
1639,A,185032183227463,10.54137,-4.5051394,3.514688,-1.0269426,-0.42443436,-0.5681934
1639,A,185032233211553,12.444761,-7.689428,4.9536033,0.7168953,-0.01750336,0.35006455
1639,A,185032283195643,12.214918,-5.5059156,3.466804,1.1035862,0.86453557,1.177775
1639,A,185032333179733,15.593137,-5.010316,4.7620673,0.64871836,1.5367174,2.0523572
1639,A,185032383163823,14.716859,-4.050241,0.9552865,1.4018602,1.986259,2.656362
1639,A,185032433147913,15.037682,-3.2721255,-0.093373865,1.2963991,2.2866635,3.0654235
1639,A,185032483132003,11.860576,-1.4908395,0.9816227,-0.15981737,1.9553664,3.3083038
1639,A,185032533116093,11.14471,-1.6344916,0.07182605,-0.2482343,1.5963722,3.199647
1639,A,185032583100183,10.397718,-1.864335,-1.3239936,0.8415312,1.554827,2.7149515
1639,A,185032633084273,11.084854,-1.6297032,-1.5729905,0.95018816,1.6016985,2.1535573
1639,A,185032683068363,12.404059,0.5657798,-1.7381904,-0.6114895,1.4600184,1.568727
1639,A,185032733052453,10.203789,1.9592052,-1.721431,-1.6043159,0.61739427,0.4107846
1639,A,185032783036543,9.29878,1.4061446,-1.328782,-1.5148337,0.16678739,-1.5045608
1639,A,185032833020633,9.976339,-0.19557635,-1.6711528,-1.8440005,-1.0444182,-3.0470638
1639,A,185032883004723,8.262091,-1.7901146,-0.8379706,0.020212328,-1.9307183,-4.099545
1639,A,185032932988813,11.604397,-2.5802011,0.7278373,2.0314317,-2.3312576,-4.265726
1639,A,185032982972903,10.486304,-4.1651626,2.8514943,2.573651,-2.4303272,-3.7746394
1639,A,185033032956993,10.256461,-1.1005846,1.6041151,0.05643132,-2.051093,-3.5871527
1639,A,185033082941083,14.630668,-1.5099931,2.3750482,-1.9388089,-1.1072688,-2.8531857
1639,A,185033132925173,15.334562,-4.035876,2.597709,-3.1329703,-0.9229781,-1.6068262
1639,A,185033182909263,14.680945,-8.194604,5.3007627,-0.36328286,-0.70566416,-0.31785625
1639,A,185033232893353,11.400889,-9.4395895,5.374983,2.363794,-0.3882154,0.476831
1639,A,185033282877443,15.732,-8.065317,5.614403,2.0069306,1.0349779,1.3173246
1639,A,185033332861533,13.359346,-3.5450644,3.5075054,1.3358139,1.8807979,2.252627
1639,A,185033382845623,15.289073,-2.316839,1.9297266,0.3983812,2.5487187,3.0355961
1639,A,185033432829713,13.749601,-2.221071,1.4077905,-0.71482015,2.328209,3.7929993
1639,A,185033482813803,11.410466,-1.9529204,1.7764976,-0.66688323,1.6997029,3.993269
1639,A,185033532797893,11.197382,-2.2881086,-0.088585466,1.1451316,1.4003636,3.3040428
1639,A,185033582781983,11.829452,-2.2091,-1.3455414,2.0601938,1.6166123,2.4816587
1639,A,185033632766073,12.104785,-0.76779056,-0.58418524,0.77228904,1.7092903,1.9447653
1639,A,185033682750163,12.348993,1.3654431,-0.82121116,-1.4860716,1.441909,1.3620658
1639,A,185033732734253,8.673894,2.241721,-1.30484,-1.6341434,0.44375613,-0.316791
1639,A,185033782718343,12.404059,0.35030162,-1.0702082,-1.6959287,-0.24227415,-1.9530371
1639,A,185033832702433,5.8750715,-0.13093291,-0.533907,-1.0589006,-1.2691891,-3.120567
1639,A,185033882686523,7.6635404,-1.6895583,-0.08619126,0.4644276,-2.0233963,-3.9674523
1639,A,185033932670613,9.485528,-3.0686183,1.1180922,1.735288,-2.2545586,-4.072913
1639,A,185033982654703,8.736143,-2.5802011,1.5155296,1.6010647,-2.4526978,-4.13896
