Subject-Id,Activity Label,Time stamp,Accel_x,Accel_y,Accel_z,Gyro_x,Gyro_y,Gyro_z
1641,A,1217641859008000,7.606582,-0.9508228,3.5661843,1.3933659,-0.78936094,0.049002163
1641,A,1217641879136000,9.453142,-0.91729254,3.1111305,1.3901701,-0.6018744,0.051132694
1641,A,1217641899296000,9.21364,-0.7759864,1.7579445,1.3060142,0.3834952,0.13315806
1641,A,1217641919488000,8.823253,-0.32572266,1.1232642,0.8181231,0.66152924,0.25885928
1641,A,1217641939604000,8.011341,0.13891114,-0.026345216,0.1107875,-0.17044231,0.21944448
1641,A,1217641959700000,6.262976,0.5221143,-1.0322535,0.3834952,-0.97258645,-0.10972224
1641,A,1217641979919000,5.479805,0.57719976,-1.5423926,1.1430287,0.058589544,-0.38562572
1641,A,1217642000075000,4.687053,0.7759864,-1.5495777,2.3595607,1.7267936,-1.0684602
1641,A,1217642020171000,4.287085,0.43110353,-1.6741188,3.2160335,-0.22796659,-1.7896442
1641,A,1217642040398000,4.88105,-0.3879932,-1.3148658,2.8463867,-0.97897804,-1.5243934
1641,A,1217642060494000,6.205496,-0.8143067,-1.5711329,0.8479505,0.8202536,-0.88203895
1641,A,1217642080626000,8.0017605,-0.8286768,-2.4261549,-1.6447684,0.7595336,-0.0063915867
1641,A,1217642100722000,9.726174,-0.5556446,-1.5687379,-0.6317018,-3.1595743,0.93636745
1641,A,1217642120909000,11.496095,-0.42870852,-0.91729254,0.15765914,-2.130529,0.74675035
1641,A,1217642141005000,13.079203,-0.24189699,-1.7986598,-0.3536678,-0.43249738,0.567786
1641,A,1217642161175000,14.04679,0.16765137,-3.6859353,-0.10439592,-0.6988135,0.37071204
1641,A,1217642181271000,13.721067,0.7041358,-4.734954,-0.72970617,1.1824435,0.8831042
1641,A,1217642201445000,13.352235,1.1064991,-4.663103,-0.96939063,3.1989892,1.5968314
1641,A,1217642221541000,14.00847,1.5112574,-4.6822634,-0.19387813,0.9491506,1.5744609
1641,A,1217642241730000,15.89814,1.3867164,-3.9469924,-1.1270498,0.9257148,0.43569317
1641,A,1217642261826000,15.962806,1.3483961,-2.6273365,-2.7984498,1.6564863,-0.7286409
1641,A,1217642282023000,14.02763,0.26345217,-3.5757644,-4.4315,-0.86179894,-1.3241237
1641,A,1217642302119000,11.5895,-1.6645386,-5.6282964,-4.2354913,-0.017044231,0.21198763
1641,A,1217642322310000,8.5502205,-2.066902,-6.3084817,-0.7616641,2.0271983,0.2876214
1641,A,1217642342406000,7.3311553,-2.663262,-6.67013,0.58269966,-1.707619,-0.0053263223
1641,A,1217642363402000,6.854546,-3.544629,-5.8989334,1.4349113,-3.9968722,-0.03089267
1641,A,1217642383498000,7.2257743,-5.010381,-5.3001785,2.4788704,-1.401888,-0.27696875
1641,A,1217642403708000,8.3179035,-6.1073003,-0.3784131,2.9699574,0.9086706,-0.1107875
1641,A,1217642423804000,10.459051,-3.6164796,1.0729688,2.9944584,0.7286409,-0.11717909
1641,A,1217642444012000,7.6496925,-1.839375,-3.3266823,2.4362597,0.50173956,-0.23755397
1641,A,1217642464108000,4.361331,-1.4082716,-3.9709425,1.3401027,-0.094808534,-0.26418558
1641,A,1217642484323000,2.4045997,-1.346001,-3.5206788,0.5773733,-0.27803403,-0.59761333
1641,A,1217642504419000,3.6452198,-2.2920337,-2.1291726,0.46552056,0.37284255,-0.9374327
1641,A,1217642524637000,5.3001785,-2.186653,0.3305127,0.24607609,0.87990844,-0.98110855
1641,A,1217642544733000,4.9505057,-2.088457,-1.7627344,-0.6061355,0.2428803,-0.78936094
1641,A,1217642564921000,4.26074,-2.579436,-3.7218604,-0.49534798,0.9672601,-1.1664646
1641,A,1217642585017000,4.0356083,-3.0249097,-3.2428565,0.57417756,1.5840483,-1.2538162
1641,A,1217642605178000,3.8056862,-3.2117214,-2.5219557,0.5049353,-1.3070794,-0.4889564
1641,A,1217642625274000,3.66438,-2.799778,-1.8154249,0.42077947,-2.9262815,0.31638354
1641,A,1217642645454000,6.444998,-1.3962965,-1.961521,0.2972088,-3.037069,1.0705907
1641,A,1217642665550000,15.126944,0.57959473,-5.5372853,-0.21624869,-1.3795174,0.71479243
1641,A,1217642685739000,17.663269,-1.1735597,-10.207574,-0.5219796,-0.37923414,0.36645097
1641,A,1217642705835000,14.726975,-2.6249416,-9.319021,-1.1590078,1.2389026,0.65513766
1641,A,1217642726084000,12.001443,-2.3926246,-5.0846267,-1.0130665,3.0903323,1.1696603
1641,A,1217642746180000,11.872112,-3.151846,-1.5783179,0.36325517,2.0197413,0.7350325
1641,A,1217642766289000,14.453943,-3.7458107,-0.9867481,-1.1888351,0.624245,0.21198763
1641,A,1217642786385000,16.130457,-3.896697,-2.1243825,-3.0637007,0.7840346,-0.014913702
1641,A,1217642806561000,13.867164,-3.0847852,-4.054768,-4.980111,-0.74675035,0.10013486
1641,A,1217642826657000,13.151052,-2.5171657,-1.7339942,-4.02883,0.59122175,0.6956177
1641,A,1217642846854000,14.212047,-3.2859669,-1.1711646,-1.8684739,-0.32597092,0.07137272
1641,A,1217642866950000,12.889996,-3.171006,1.4034815,-0.58056915,-2.582201,0.13954964
1641,A,1217642887144000,8.265213,-0.8981324,2.3375392,-0.36751625,2.6269422,-0.30253512
1641,A,1217642907240000,7.5946074,0.2706372,2.567461,1.4998924,4.8916945,-0.51771855
1641,A,1217642927427000,9.922566,-0.059875492,3.180586,2.5033715,1.0748519,-0.1736381
1641,A,1217642947523000,9.673484,-0.32332766,2.0166066,1.7768611,-0.1587244,0.7765778
1641,A,1217642967715000,7.9227247,0.07664063,-0.23950197,0.3334278,1.2804478,0.8277105
1641,A,1217642987811000,7.3622904,0.117355965,-3.5781593,-0.33449304,0.44315,0.39840892
1641,A,1217643008005000,6.2031007,0.64186525,-3.2093263,0.721184,-1.8780613,0.15978967
1641,A,1217643028101000,5.8103175,0.48139894,-1.1807446,3.2192292,-3.4812841,-0.026631612
1641,A,1217643048381000,6.2342362,-0.08861572,-1.101709,6.041115,0.10759171,-0.70200926
1641,A,1217643068477000,5.9061184,-0.31374758,-1.9136207,5.9026303,1.8311896,-1.2836437
1641,A,1217643088658000,5.8103175,-0.6945557,-2.1698878,4.0661144,0.9076053,-0.9768475
1641,A,1217643108754000,6.4138627,-0.97237796,-2.3638844,1.3635385,-1.8120148,-0.24607609
1641,A,1217643128883000,7.814949,-0.81909674,-3.3123121,-4.334561,-0.5432849,0.25566345
1641,A,1217643148979000,9.388477,-0.55324954,-2.9865894,-6.803844,-2.1198764,0.7669904
1641,A,1217643169179000,11.51765,-0.9987232,-3.4991236,-1.8706044,-4.3995423,2.0197413
1641,A,1217643189275000,13.42648,-1.0059083,-4.3541455,-1.3241237,-0.8863,1.3507553
1641,A,1217643209502000,13.730647,-0.4526587,-4.5888577,-1.6863136,1.6607473,0.8607337
1641,A,1217643229598000,13.330679,0.15567628,-4.9433208,-1.8375812,1.9781961,0.8277105
1641,A,1217643249950000,13.225299,0.5412744,-5.4822,-2.372344,1.6447684,0.72011876
1641,A,1217643270046000,14.252762,0.8047266,-6.246211,-2.8911278,0.63915867,0.0063915867
1641,A,1217643290249000,16.865728,0.69695073,-7.585027,-1.9558256,-1.4370418,-0.17470337
1641,A,1217643310345000,18.290766,0.31853762,-7.082073,0.26631612,-1.8961707,-0.06711166
1641,A,1217643330464000,13.974939,-0.41912845,-5.122947,1.5126755,-0.95660746,0.27057716
1641,A,1217643350560000,9.80521,-2.191443,-4.5385623,1.4093449,1.1259845,0.046871636
1641,A,1217643370841000,6.6821046,-3.04407,-2.440525,1.2857742,2.2455776,-0.6530071
1641,A,1217643390937000,5.4414845,-2.8404932,-1.3675562,2.6312032,1.5691346,-0.9044095
1641,A,1217643411206000,5.199588,-3.5925295,-0.7185059,3.3246903,-2.5896578,-0.7435546
1641,A,1217643431302000,6.1767554,-5.3313136,-0.21315674,2.8538435,-0.8341021,-1.1696603
1641,A,1217643451482000,7.0198026,-6.013894,-2.4956105,2.2391858,0.88843054,-0.8042747
1641,A,1217643471578000,7.2688847,-3.9733377,-2.4189699,1.1132014,1.8386464,-0.11504856
1641,A,1217643491725000,8.710687,-0.7209009,-1.5160475,-2.4501083,3.3491914,0.21624869
1641,A,1217643511821000,6.983877,-1.0705738,-4.152964,-5.691708,2.263687,-0.04261058
1641,A,1217643531965000,5.3384986,-1.8657203,-4.543352,-5.1846423,-0.79894835,0.06498113
1641,A,1217643552061000,4.5744877,-1.6022681,-3.1063404,0.56885123,-2.5960495,-0.15020229
1641,A,1217643572240000,4.655918,-1.7771046,-2.2393434,3.206446,-3.073288,-0.6924219
1641,A,1217643592336000,4.5840673,-1.9998415,-2.5411158,2.8751488,-1.1856394,-0.9044095
1641,A,1217643612528000,4.191284,-2.2896388,-3.2404616,2.602441,0.69774824,-0.7052051
1641,A,1217643632624000,4.481082,-2.8836036,-3.1422658,1.5286545,1.320928,-0.95128113
1641,A,1217643652787000,4.9337406,-3.271597,-2.8979738,-1.2175972,3.8168426,-0.46978164
1641,A,1217643672883000,5.6857767,-3.0296998,-3.4536183,-3.134008,2.9220204,-0.5496765
1641,A,1217643693111000,8.408914,-1.092129,-3.412903,0.30146983,-5.603291,0.25992453
1641,A,1217643713207000,15.797549,0.27542725,-6.3060865,2.0165455,-5.429653,0.37603834
1641,A,1217643733391000,16.951948,-0.2778223,-11.524835,0.7797736,-0.62531024,0.02130529
1641,A,1217643753487000,11.9056425,0.59156984,-8.727451,0.19281286,1.320928,0.0
1641,A,1217643773693000,9.843531,-0.3161426,-3.6404297,0.020240024,1.6064188,0.13635385
1641,A,1217643793789000,11.56076,-2.1435425,-2.6321266,0.080960095,1.1068097,0.10652645
1641,A,1217643813985000,14.05158,-3.8056862,-3.9733377,0.2972088,-0.71798825,-0.09374327
1641,A,1217643834081000,15.155684,-4.29427,-3.6691701,-0.8479505,0.757403,-0.0127831735
1641,A,1217643854399000,15.205979,-3.894302,-3.6308498,-2.1742048,1.4317155,-0.4250405
1641,A,1217643874495000,15.479012,-3.278782,-3.2260914,-3.057309,-0.6487461,-0.45912898
1641,A,1217643894693000,13.3689995,-2.2704787,-0.60833496,-2.231729,0.9672601,0.14807177
1641,A,1217643914789000,9.7621,-0.8813672,1.7268091,-1.2399678,0.18109496,0.1736381
1641,A,1217643934945000,8.004155,0.62989014,2.9410841,-0.5368933,-1.5520903,0.20133498
1641,A,1217643955041000,8.988508,0.37362307,1.7028589,-0.13209279,-0.77444726,0.2695119
1641,A,1217643975253000,9.8866415,0.8047266,-1.6501685,0.28442562,0.17789917,0.43356264
1641,A,1217643995349000,11.783497,5.7815776,-4.526587,0.644485,-0.13528858,0.57098174
1641,A,1217644015504000,8.198153,5.5732107,4.394861,0.4250405,0.07350325,0.5699165
1641,A,1217644035600000,8.226892,4.174519,7.5179667,0.4048005,0.05539375,0.4857606
1641,A,1217644055901000,6.4833183,3.6691701,5.015171,0.9214538,-0.567786,0.17470337
1641,A,1217644075997000,3.7362306,2.078877,2.3495142,1.6362462,-0.16192019,-0.15978967
1641,A,1217644096197000,3.2404616,0.68976563,0.9316626,2.5523736,1.1025487,-0.5454154
1641,A,1217644116293000,3.2500417,-1.954336,-0.3520679,3.3225598,1.6074841,-0.98856544
1641,A,1217644136475000,6.2989016,-5.3863993,-1.4897022,3.310842,-0.25246766,-1.3954965
1641,A,1217644156571000,8.353828,-7.8365045,-0.7759864,2.461826,-1.3720607,-1.0823087
1641,A,1217644176784000,8.080796,-8.571775,0.8430469,0.25353295,-0.11611383,-0.6711166
1641,A,1217644196880000,8.346643,-7.1084185,1.9974464,-3.7294908,2.1923141,-0.36112466
1641,A,1217644217099000,10.214759,-3.9637575,2.44292,-3.299124,-2.8836708,0.35473305
1641,A,1217644237195000,12.990586,-2.083667,2.7111623,0.16085494,-4.313256,0.9054748
1641,A,1217644257487000,16.159197,-0.98195803,3.5733693,0.38029942,-0.74035877,0.32810146
1641,A,1217644277583000,16.346008,-0.047900394,3.271597,0.098004326,0.6327671,0.3888215
1641,A,1217644297770000,14.317428,0.37601808,0.75203615,-0.551807,1.2804478,0.8021441
1641,A,1217644317866000,14.437179,1.8489552,-4.7086086,-1.4072144,1.7491642,0.8117315
1641,A,1217644337976000,18.671574,1.0106983,-7.1443434,-1.365669,2.7366643,0.4261058
1641,A,1217644358072000,18.89431,0.5939649,-6.3012967,-1.3166668,1.5638082,-0.19281286
1641,A,1217644378272000,14.4802885,1.3196558,-7.7359133,-1.9515644,-1.8759307,-0.37923414
1641,A,1217644398368000,10.612332,0.1939966,-6.368357,-1.8599517,-3.0903323,0.3920173
1641,A,1217644418582000,6.327642,-1.7315992,-3.9661524,-1.506284,-0.5305017,0.7850999
1641,A,1217644438678000,5.3025737,-4.3086405,-6.983877,-1.4274544,3.4578483,0.22264028
1641,A,1217644458700000,8.248447,-4.991221,-8.636441,0.23222765,2.9475868,0.20240025
1641,A,1217644478796000,7.702383,-3.7985013,-8.171807,2.2050974,-2.0421119,-0.080960095
1641,A,1217644498974000,6.574329,-5.858218,-12.978611,2.8549087,-2.3531692,-0.19600865
1641,A,1217644519070000,7.8915896,-4.7876444,4.2272096,3.0104373,-0.314253,-0.10546118
1641,A,1217644539169000,6.912027,-0.86939216,8.087981,2.0751352,1.5488945,0.3270362
1641,A,1217644559265000,4.87626,-1.8753004,1.1424243,0.19920446,1.8940402,0.5550028
1641,A,1217644579393000,4.1984696,-3.04886,-5.144502,-1.3763217,0.5603291,0.3536678
1641,A,1217644599553000,5.213958,-4.258345,-5.2882032,-0.8767126,-1.7896442,0.008522116
1641,A,1217644619681000,6.1599903,-4.3158255,-3.0776002,1.5957662,-2.198706,-0.5784386
1641,A,1217644639888000,6.4090724,-4.409231,-2.0022364,4.480502,-0.34194988,-1.2101405
1641,A,1217644660016000,5.958809,-4.5601172,-1.7124391,4.379302,-0.6178534,-1.0375676
1641,A,1217644680112000,5.6761966,-4.2152348,-0.69216067,3.1712923,0.9960223,-0.8309063
1641,A,1217644700305000,5.5324955,-3.8224514,-0.45026368,0.7819041,2.1667478,-0.8447547
1641,A,1217644720401000,6.212681,-3.6811452,-1.3579761,-2.5726137,-0.31638354,-0.8522116
1641,A,1217644740578000,8.854387,-4.140989,-2.327959,-2.7366643,-3.3619747,0.026631612
1641,A,1217644760674000,12.705579,-4.629573,-1.3699512,0.21198763,-1.1270498,0.93423694
1641,A,1217644780864000,14.317428,-3.6931202,0.9532178,-0.7275756,0.27483824,0.54648066
1641,A,1217644800960000,14.497054,-1.5711329,0.48379397,-1.4615428,0.6018744,0.30040458
1641,A,1217644821090000,14.635965,-0.10777588,-0.3424878,-1.8983012,0.6892261,0.7030745
1641,A,1217644841186000,14.710211,0.21315674,0.29698244,-2.3371902,1.0247844,1.0428939
1641,A,1217644861374000,15.019168,1.5974782,-1.214275,-2.7079022,0.95447695,0.26631612
1641,A,1217644881470000,18.300344,2.4045997,-5.0846267,-2.0506341,-1.5446335,-0.5336975
1641,A,1217644901674000,18.659597,2.6608667,-6.6988697,-0.35899413,-3.0083067,0.07137272
1641,A,1217644921770000,14.070741,2.3926246,-4.1625443,0.7861652,-0.3920173,0.7978831
1641,A,1217644941935000,11.0051155,3.7434156,-3.896697,1.1206582,1.7981664,0.45806372
1641,A,1217644962031000,8.55501,3.5661843,-1.6932789,1.7555559,2.4841967,-0.2066613
1641,A,1217644982222000,6.449788,0.25866213,-3.796106,3.077549,0.21411815,-0.19707392
1641,A,1217645002318000,9.817185,-1.6310084,-1.8082398,3.7571878,-2.6525085,-0.19813919
1641,A,1217645022473000,10.585987,0.35925296,3.776946,3.6464002,-0.6593987,-0.47404268
1641,A,1217645042569000,9.115445,0.9484278,2.6057813,3.391802,0.77125144,-0.14061491
1641,A,1217645062832000,9.666299,-0.6945557,-3.1542408,2.6567695,0.90973586,0.00958738
1641,A,1217645082928000,8.353828,-0.55803955,-4.782854,0.44208476,0.50387007,0.12037488
1641,A,1217645103139000,6.7898808,-0.12693603,-2.8955786,-1.171791,-0.58909124,-0.26418558
1641,A,1217645123235000,5.7312818,-0.366438,-1.8753004,-1.603223,-0.46339005,-0.6466155
1641,A,1217645143407000,4.631968,-0.613125,-2.1579127,-1.3965617,-0.1736381,-0.7914915
1641,A,1217645163503000,3.8104763,-0.76880133,-3.1350808,-0.7957525,-0.39521313,-0.9715212
1641,A,1217645183711000,3.6188745,-0.9053174,-4.663103,-1.0141318,0.16298546,-0.6849651
1641,A,1217645203807000,4.277505,-1.9902613,-6.5288234,-1.5020229,1.4157364,-0.6263755
1641,A,1217645223971000,5.767207,-3.7050953,-3.542234,0.6359629,0.69348717,-0.2695119
1641,A,1217645244067000,7.7502837,-4.703819,-0.70174074,1.7662084,-1.2016183,0.0479369
1641,A,1217645264275000,9.951306,-4.7133985,1.7292042,1.6362462,-2.2658174,0.7126619
1641,A,1217645284371000,12.360697,-4.26553,2.7422974,1.2442288,-1.4945661,0.32170987
1641,A,1217645304592000,12.897181,-3.0105398,3.8128712,0.77125144,-1.0759171,-0.05539375
1641,A,1217645324688000,13.848003,1.4705421,10.195599,-0.7499462,1.0578076,0.29294774
1641,A,1217645344849000,14.252762,2.5985963,1.1424243,-2.466087,2.7206855,0.6263755
1641,A,1217645364945000,13.230088,-0.08861572,-3.537444,-3.2256207,3.290602,0.86606
1641,A,1217645385099000,16.355589,0.38320315,-2.7015822,-3.5089812,1.7587516,-0.004261058
1641,A,1217645405195000,18.944605,0.3903882,-4.9145803,-3.2884715,-2.9379995,-0.9108011
1641,A,1217645425345000,16.91363,0.8286768,-5.49178,-2.1156151,-3.5952675,-0.1470065
1641,A,1217645445441000,12.81575,0.4526587,-4.8379397,-1.2655342,-0.6135923,0.7669904
1641,A,1217645465620000,9.4507475,-0.26105714,-3.6068995,-0.8831042,0.588026,0.31318775
1641,A,1217645485716000,6.823411,-0.27303225,-2.3854396,0.47830373,3.7071204,-0.32490566
1641,A,1217645505898000,4.9648757,-0.61073,-2.4189699,3.9116511,0.38242993,-0.39521313
1641,A,1217645525994000,2.7830129,-1.8705103,-7.6592727,5.2815814,-2.7089674,-0.47297743
1641,A,1217645546243000,6.476133,-5.637876,-7.553892,5.3146043,-0.099069595,-0.7307714
1641,A,1217645566339000,8.691526,-3.896697,4.267925,3.4866107,2.0154803,-0.10652645
1641,A,1217645586569000,9.280701,-2.787803,7.192244,-1.9632823,2.6929886,0.44847634
1641,A,1217645606665000,10.96919,0.3161426,10.47821,-6.0134177,1.6927053,-0.07989483
1641,A,1217645626840000,8.480764,-1.4585669,0.4167334,-5.8813252,-0.92464954,-0.4612595
1641,A,1217645646936000,4.4499464,-1.9112257,-4.0595584,-3.3694315,-3.7284255,-0.6860303
1641,A,1217645667119000,4.2751102,-2.0932472,-5.4055595,-0.8586032,-3.5079157,-1.1888351
1641,A,1217645687215000,4.8499146,-2.7399025,-4.5792775,-0.14594123,-1.8141453,-0.43356264
1641,A,1217645707398000,4.0978785,-3.0368848,-2.9099488,0.10439592,0.76592517,-0.04474111
1641,A,1217645727494000,4.751719,-3.2189064,-1.705254,3.230947,-1.0482203,-0.59761333
1641,A,1217645747754000,6.231841,-2.3447242,-1.3124708,6.501309,3.1403997,-0.29827404
1641,A,1217645767850000,6.239026,-2.1722827,-3.8559816,5.361476,4.9598713,0.19707392
1641,A,1217645788038000,7.3646855,-2.5530908,-4.0667434,-2.8996499,-1.0386329,-1.1653993
1641,A,1217645808134000,10.47821,-1.1711646,-2.2345533,-4.567854,-0.083090626,-0.87138635
1641,A,1217645828315000,14.425203,1.2741505,-3.7937112,-1.6490294,1.196292,0.51984906
1641,A,1217645848411000,13.824054,2.1052222,-8.56938,-2.3627565,0.28655612,0.15659387
1641,A,1217645868574000,11.699671,2.7830129,-7.1563187,-1.9781961,-1.7225326,-0.7669904
1641,A,1217645888670000,10.154883,3.300337,-7.2257743,-0.19600865,-1.6788567,-0.080960095
1641,A,1217645908859000,10.660233,2.6153615,-7.8915896,0.57417756,-0.74035877,-0.21198763
1641,A,1217645928955000,12.16191,-0.14370118,-2.2896388,1.1057445,-0.69348717,-0.40373522
1641,A,1217645949231000,14.475498,-1.7771046,-0.1939966,1.73212,-0.6540724,-0.37071204
1641,A,1217645969327000,15.301781,-2.0142114,-0.5676197,1.6010925,1.3347764,-0.2609898
1641,A,1217645989521000,14.952107,-2.0621119,-2.3686745,1.0578076,1.8130801,-0.113983296
1641,A,1217646009617000,13.709092,-2.5171657,-3.4344583,0.6711166,1.2996227,0.24714136
1641,A,1217646029841000,10.312955,-1.8896705,0.033530276,0.567786,1.0450244,0.5273059
1641,A,1217646049937000,8.059241,-1.0849439,2.215393,1.2474247,0.6040049,0.47191215
1641,A,1217646070147000,8.258028,-1.0609937,2.2585034,1.9451729,-0.33768883,0.8809737
1641,A,1217646090243000,9.290281,-1.6645386,1.1184741,1.7534252,-0.65194184,1.1728562
1641,A,1217646110436000,9.108259,-1.7627344,-0.1939966,1.4658039,-0.7797736,1.2442288
1641,A,1217646130532000,8.404124,-1.5232325,-0.89573735,1.5488945,-1.4199976,1.1952267
1641,A,1217646150721000,7.9730206,-0.94603276,-0.7185059,1.7672738,-2.1816616,0.9534117
1641,A,1217646170817000,7.7598634,-0.3879932,-0.06945557,1.5659387,-1.1728562,0.13635385
1641,A,1217646191010000,7.846084,0.244292,0.5029541,1.1707256,-0.20559604,0.002130529
1641,A,1217646211106000,6.943162,0.20118165,0.43589357,0.680704,-1.0748519,-0.39734364
1641,A,1217646231324000,6.1240654,-0.49097902,-0.5340894,0.037284255,-1.1345067,-1.3986923
1641,A,1217646251420000,5.6905665,-0.89573735,-1.4226416,-0.28868666,-0.36005938,-1.490305
1641,A,1217646271600000,6.231841,-0.23471193,-0.9987232,-0.7861652,-0.17896444,-1.0503508
1641,A,1217646291696000,7.688013,0.25147706,0.011975098,-1.743838,-0.18748654,-1.0407634
1641,A,1217646311875000,9.522598,0.18681154,-0.06945557,-2.2775354,-0.12250541,-0.8149273
1641,A,1217646331971000,10.698553,0.3305127,-0.72569096,-2.2061627,-0.07563378,-0.5091964
1641,A,1217646352134000,11.452984,0.67539555,-1.3771362,-2.2977755,-0.29614353,-0.041545313
1641,A,1217646372230000,12.537928,0.91010743,-2.1746778,-2.6397252,-0.2034655,0.34408042
1641,A,1217646392424000,12.954661,1.3388159,-2.7351124,-2.6738138,0.1949434,0.59228706
1641,A,1217646412520000,12.89239,1.7603394,-3.293152,-2.5374599,-0.42397526,0.8863
1641,A,1217646432711000,13.292359,2.076482,-3.420088,-2.2945797,-1.1707256,1.0578076
1641,A,1217646452807000,14.449154,2.5147705,-4.033213,-2.0005667,-1.6916399,1.3784522
1641,A,1217646473000000,15.632293,2.8476784,-3.6021094,-1.3784522,-2.4096282,1.1835088
1641,A,1217646493096000,15.706539,2.680027,-2.926714,-0.94808537,-1.7235979,0.53263223
1641,A,1217646513315000,14.159356,1.5160475,-3.530259,-0.5230448,-0.7595336,0.035153728
1641,A,1217646533411000,12.1379595,-0.16765137,-3.779341,0.080960095,-0.12144015,-0.043675844
1641,A,1217646553605000,10.063872,-1.1855347,-3.7577858,0.74781567,-0.294013,0.3323625
1641,A,1217646573701000,7.805369,-1.587898,-5.249883,1.320928,-0.099069595,0.5954828
1641,A,1217646593895000,7.3383403,-2.572251,-7.460486,1.8684739,0.20985709,0.5965481
1641,A,1217646613991000,7.932305,-4.785249,-7.3886356,2.3371902,0.23435818,0.37390783
1641,A,1217646634183000,8.923843,-6.476133,-2.2249732,2.7643614,-0.20772657,0.0479369
1641,A,1217646654279000,10.518927,-2.6321266,8.303533,3.0274816,-0.053263225,-0.42717105
1641,A,1217646674473000,9.072334,0.4406836,4.8163843,3.0423954,0.8021441,-0.958738
1641,A,1217646694569000,6.236631,-1.8274,-3.439248,2.9209552,1.0791129,-1.4647386
1641,A,1217646714762000,5.087022,-2.543511,-4.402046,2.8059065,1.3369069,-1.5776566
1641,A,1217646734858000,4.524192,-2.3375392,-2.3782544,3.6549222,3.560114,-2.1049626
1641,A,1217646755053000,3.908672,-2.1363575,-0.5412744,4.8916945,-0.753142,-2.3031018
1641,A,1217646775149000,3.3769777,-2.2297633,-1.5184424,2.59818,-3.439739,-2.3062975
1641,A,1217646795343000,3.4416432,-2.3758595,-2.0070264,-0.97258645,-3.7838194,-2.0996363
1641,A,1217646815439000,4.6678934,-2.907554,-1.4729371,-3.428021,0.7914915,-0.18642128
1641,A,1217646835599000,5.774392,-3.2189064,-1.5519727,-3.9755669,3.755057,0.86606
1641,A,1217646855695000,6.452183,-3.1039455,-2.196233,-2.8027108,-2.7643614,0.44421527
1641,A,1217646875888000,7.8508744,-3.2668068,-2.802173,-2.5928538,0.6679208,1.3954965
1641,A,1217646895984000,10.87818,-1.8441651,-3.2811768,-2.9465215,2.8091023,2.3137543
1641,A,1217646916097000,15.574813,-0.30895755,-4.9385304,-3.0764837,-0.6785734,0.86606
1641,A,1217646936193000,16.070581,0.122146,-2.44771,-2.7398603,-2.0793962,0.89588743
1641,A,1217646956399000,15.062279,0.5724097,-0.75203615,-1.5584819,-2.8751488,0.50387007
1641,A,1217646976495000,13.907879,0.2921924,1.9998415,0.18535602,-2.3425164,0.12144015
1641,A,1217646996717000,14.753321,0.4167334,2.430945,0.8990832,-0.049002163,0.07243799
1641,A,1217647016813000,17.213007,-0.39278322,-1.0633887,0.95234644,5.739645,-0.35579833
1641,A,1217647037011000,18.175804,-0.38080812,-4.2296047,2.9422605,5.8035607,-0.6306366
1641,A,1217647057107000,14.176121,0.86220706,-4.2056546,3.697533,-0.8831042,-0.43675843
1641,A,1217647077301000,9.24717,0.40715334,-2.5219557,2.7856665,-0.68816084,-0.05539375
1641,A,1217647097397000,9.584868,2.926714,-5.879773,1.0652645,1.1792477,-0.56885123
1641,A,1217647117591000,9.606423,4.5768824,-2.799778,0.27377295,0.4708469,-0.66365975
1641,A,1217647137687000,8.940608,-1.9663111,9.268726,-0.5486112,-0.165116,-0.28336033
1641,A,1217647157880000,10.6817875,-1.2813355,7.690408,-1.6287893,-0.85327685,0.32170987
1641,A,1217647177976000,9.486672,1.5495777,4.152964,-1.4530207,-1.5180018,0.5635249
1641,A,1217647198153000,7.216194,-0.09340577,2.088457,-0.28868666,-1.3997575,0.28229508
1641,A,1217647218249000,6.696475,-1.2286451,0.7496411,0.8479505,-1.2740563,-0.11824436
1641,A,1217647238429000,6.3947024,-1.3771362,-0.21315674,2.7622306,-1.8759307,-0.2695119
1641,A,1217647258525000,5.120552,-1.3962965,-1.5471827,4.048005,0.17150758,-0.49215218
1641,A,1217647278716000,4.643943,-1.2358302,-2.5866213,3.1489217,6.315953,-0.2545982
1641,A,1217647298812000,4.6654983,-1.1400293,-2.3782544,-0.386691,5.9910474,-0.5305017
1641,A,1217647319005000,5.142107,-1.5783179,-2.1291726,-2.0900488,-7.5026574,-1.3795174
1641,A,1217647339101000,6.167176,-2.339934,-1.83219,0.05539375,-4.696751,-0.30679616
1641,A,1217647359293000,7.549102,-2.9817994,-1.6357985,0.69668293,-0.9491506,0.3930826
1641,A,1217647379389000,8.701106,-2.8740237,0.22513184,-0.5006743,-1.1249193,0.52624065
1641,A,1217647399582000,10.662627,-2.548301,2.0501368,-1.196292,1.3507553,0.18855181
1641,A,1217647419678000,13.036092,-2.090852,2.1148024,-2.0367856,1.768339,-0.23116238
1641,A,1217647439869000,14.920972,-1.1400293,2.2800586,-2.4628913,-1.1227888,0.8692558
1641,A,1217647459965000,16.089743,-0.3065625,1.2286451,-1.6916399,-2.2178805,0.7307714
1641,A,1217647480190000,16.827408,1.7986598,-0.4023633,-0.08735169,-1.3528858,0.25353295
1641,A,1217647500286000,17.988993,1.7268091,-1.9591261,1.0503508,0.5763081,0.22690132
1641,A,1217647520480000,18.115929,0.8310718,-2.9219239,1.1121361,1.9249328,0.04474111
1641,A,1217647540576000,15.095809,0.21076173,-3.8631666,2.6674223,0.92464954,-0.8085357
1641,A,1217647560864000,12.183465,-1.0729688,-4.2272096,4.321778,-0.8245147,-1.1483551
1641,A,1217647580960000,9.965676,-1.7771046,-4.258345,3.7923415,-0.3568636,-0.902279
1641,A,1217647601154000,7.688013,-2.0573218,-4.873865,2.2935145,0.9044095,-0.5070659
1641,A,1217647621250000,5.9947343,-2.193838,-3.887117,0.7765778,1.1909657,-0.39840892
1641,A,1217647641441000,6.2270513,-3.2284865,-3.5877395,-0.7595336,0.9853696,-0.21518342
1641,A,1217647661537000,9.402847,-5.5516553,-4.016448,-2.843191,0.8341021,0.09054748
1641,A,1217647681713000,12.770245,-4.9696655,-3.9326222,-4.467719,-0.14487597,0.29614353
1641,A,1217647701809000,9.908196,-1.0011182,-0.5891748,-4.1055293,-1.0386329,0.6711166
1641,A,1217647721973000,5.942044,-0.56522465,0.89573735,-0.3472762,0.76912093,0.15765914
1641,A,1217647742069000,3.3673975,-1.8058448,-1.5256275,2.6567695,-1.0407634,-0.9736517
1641,A,1217647762267000,2.680027,-3.2668068,-4.174519,2.7803402,-2.385127,-1.139833
1641,A,1217647782363000,4.6032276,-4.126619,-2.1363575,2.018676,0.7233146,-0.3834952
1641,A,1217647802523000,5.2762284,-3.9733377,-0.2682422,0.44528055,2.0399814,-0.13741912
1641,A,1217647822651000,4.5002418,-3.9326222,-1.0729688,-1.5978967,1.5414376,-0.23009712
1641,A,1217647842811000,4.361331,-3.784131,-0.27542725,-3.919108,0.8586032,0.17044231
1641,A,1217647862988000,4.373306,-3.6452198,-0.2706372,-1.3784522,-3.02109,0.7190535
1641,A,1217647883118000,4.524192,-3.3147073,-0.7568262,1.5030881,-2.2871227,0.18961707
1641,A,1217647903214000,5.484595,-3.3626075,-1.3675562,0.49428272,-0.24501082,0.2066613
1641,A,1217647923408000,8.111932,-3.8775368,-1.7723145,-1.0961571,0.2790993,0.6775082
1641,A,1217647943504000,13.924644,-4.87147,-1.8561403,-2.0325246,-0.027696876,0.78936094
1641,A,1217647963696000,17.675245,-4.033213,0.28740236,-2.3052323,-1.2090752,0.8383631
1641,A,1217647983792000,15.730489,-1.6405884,2.4932153,-1.5520903,-1.3017532,0.8245147
1641,A,1217648003984000,15.376026,-0.8143067,2.1315675,-1.2783173,1.3635385,0.5422196
1641,A,1217648024080000,14.468313,0.49097902,0.09580079,0.13848437,3.9776974,0.6146576
1641,A,1217648044274000,17.14355,1.0514137,-3.283572,2.602441,2.3414512,-0.11611383
1641,A,1217648064370000,18.642834,2.2369483,-6.3084817,4.043744,1.0482203,-0.2727077
1641,A,1217648084562000,16.120876,1.8154249,-5.264253,5.0397663,-2.6312032,0.13848437
1641,A,1217648104658000,11.067386,1.2046949,-2.7470875,4.761732,-2.4319987,-0.46339005
1641,A,1217648124852000,7.6377177,0.58677983,-1.4226416,3.4163032,0.86179894,-0.33768883
1641,A,1217648144948000,7.34313,-0.70174074,-3.4296682,1.969674,1.4029533,-0.09054748
1641,A,1217648165119000,9.364527,-1.839375,-4.382886,0.11611383,0.3174488,-0.19068234
1641,A,1217648185215000,10.935659,-0.86220706,4.905,-1.804558,-0.40266997,-0.32597092
1641,A,1217648205410000,9.529783,-0.2921924,5.1636624,-2.8069718,-0.5006743,-0.39095205
1641,A,1217648225506000,9.235196,-1.0178833,-0.6730005,-3.149987,-0.45060685,-0.36325517
1641,A,1217648245703000,8.485555,-0.847837,-2.2201831,-2.8453214,-0.71585774,-0.34514567
1641,A,1217648265799000,6.4330225,-0.68737066,-2.2752686,-1.9963056,-1.3379722,-0.5230448
1641,A,1217648285994000,4.4331813,-0.2706372,-2.076482,-1.2325109,0.41758367,0.015978966
1641,A,1217648306090000,4.2176294,-0.038320314,-1.2789404,-1.3869743,2.6226811,-0.26312032
1641,A,1217648326299000,4.8499146,-0.4047583,-0.9196875,-1.3305153,2.030394,-0.78296936
1641,A,1217648346395000,5.3408937,-0.5292993,-1.5232325,-0.74461985,0.44847634,0.082025364
1641,A,1217648366613000,6.318062,-0.51732427,-2.8213332,0.033023197,-0.7701862,0.18322548
1641,A,1217648386709000,8.4304695,-0.55324954,-3.0752053,0.7350325,-0.829841,-0.6764429
1641,A,1217648406902000,10.799144,-1.0035132,-1.1256592,0.9576728,-0.35260254,-0.45806372
1641,A,1217648426998000,12.015814,-1.1639795,-0.18920656,-0.03195793,0.44208476,0.013848438
1641,A,1217648447191000,13.512701,-1.2046949,-1.3986914,-1.4966966,0.69668293,0.67963874
1641,A,1217648467287000,14.621594,-1.1256592,-2.3016138,-2.5726137,-0.3291667,1.6692694
1641,A,1217648487504000,13.46959,-0.7376661,-1.5543678,-2.5566347,-4.0820932,1.3677995
1641,A,1217648507600000,13.539046,-0.50774413,-0.5891748,-0.26631612,-5.445632,-0.34940675
1641,A,1217648527815000,14.889837,-0.15567628,-0.5939649,-0.75101143,1.216532,0.66152924
1641,A,1217648547911000,15.80234,0.098195806,-1.1711646,-0.9779128,2.1582258,0.95234644
1641,A,1217648568106000,16.302898,-0.081430666,-2.5985963,3.6730318,2.501241,-0.55287224
1641,A,1217648588202000,14.743741,-0.49337405,-2.9722195,6.5886607,-0.034088463,-0.17789917
1641,A,1217648608383000,12.09485,-1.4274317,-2.8500733,6.466155,-2.5577,-0.7637946
1641,A,1217648628479000,8.954978,-1.947151,-2.4022048,5.5809207,-0.16085494,-1.0865698
1641,A,1217648648656000,7.165899,-2.7806177,-1.0130934,4.3430834,1.6405072,-0.57098174
1641,A,1217648668752000,6.758745,-5.977969,5.3935843,1.804558,2.0069582,-0.3355583
1641,A,1217648688938000,8.303533,-6.5791187,-1.4801221,-3.2096417,1.6873789,-0.08841695
1641,A,1217648709034000,8.557405,-3.8176613,-2.2608986,-6.8421936,1.0237192,0.1257012
1641,A,1217648729228000,7.2545147,-1.8250049,0.5412744,-5.5734634,-1.6362462,0.068176925
1641,A,1217648749324000,6.9144216,-2.3758595,-1.223855,1.6990968,-1.8130801,-0.829841
1641,A,1217648769522000,6.576724,-3.276387,-3.6907253,2.179531,-1.9025623,-0.78296936
1641,A,1217648789618000,4.87626,-2.2177882,-2.1411476,1.2836437,-0.44528055,-0.3387541
1641,A,1217648809829000,4.392466,-1.4370118,-1.5328126,-0.014913702,0.3834952,0.06391586
1641,A,1217648829925000,4.5385623,-0.8813672,-3.032095,-1.4008228,1.1057445,-0.6135923
1641,A,1217648850113000,4.7133985,-1.1352394,-5.46304,-2.9784794,3.9361522,-0.8926916
1641,A,1217648870209000,3.9493873,-2.4022048,-5.149292,-4.97585,1.4913702,-0.7946873
1641,A,1217648890402000,4.0523734,-3.7266505,-3.4608033,-4.346279,-2.3382554,0.08735169
1641,A,1217648910498000,4.790039,-4.133804,-2.4740553,-1.865278,-2.9060414,0.29507825
1641,A,1217648930689000,5.5444703,-4.4427614,-2.6464968,-0.314253,-0.75101143,-0.24820662
1641,A,1217648950785000,7.1275783,-3.784131,-3.2524366,0.06178534,-0.38562572,0.15233281
1641,A,1217648970980000,11.1104965,-3.293152,-4.878655,0.7946873,-1.3081448,0.4111921
1641,A,1217648991076000,14.382092,-5.0894165,-1.1232642,1.6937705,-2.5065672,0.26738137
1641,A,1217649011269000,14.159356,-4.4355764,3.5134938,2.404302,-2.4309335,-0.12783173
1641,A,1217649031365000,13.428875,-2.5147705,4.416416,2.948652,-0.23648871,-0.09161274
1641,A,1217649051559000,14.770086,-2.5315359,4.3062453,3.2629051,2.3691483,-0.04580637
1641,A,1217649071655000,15.208375,-1.9830762,-0.7209009,2.5960495,5.261341,-0.12783173
1641,A,1217649091836000,16.367563,-1.7315992,-5.1612673,-0.27483824,6.0730724,0.15446335
1641,A,1217649111932000,17.862057,-1.0226734,-4.4403663,0.59228706,-3.9627838,-0.12996227
1641,A,1217649132106000,15.998732,-0.028740235,-1.6310084,1.7406421,-2.05383,-0.23329292
1641,A,1217649152202000,12.3415365,1.5064673,-0.61073,1.9643476,0.33662358,-0.043675844
1641,A,1217649172392000,13.179793,5.815108,-4.5744877,2.2285333,0.32597092,0.0063915867
1641,A,1217649192488000,11.019485,6.5168486,5.4462748,1.8056233,0.6114618,-0.2790993
1641,A,1217649212683000,11.242222,4.9169755,9.960887,-0.096939065,0.32597092,-0.4708469
1641,A,1217649232779000,10.552457,2.2680836,6.7371902,-2.1656826,0.0010652645,-0.6263755
1641,A,1217649252989000,7.558682,1.1496094,3.65959,-2.8165593,0.008522116,-0.813862
1641,A,1217649273085000,5.7001467,-1.8226099,2.2058132,-2.5853968,-0.78936094,-0.84368944
1641,A,1217649293294000,6.9000516,-2.7231374,-0.5245093,-1.901497,-0.9864349,-1.0929613
1641,A,1217649313390000,6.4186525,-2.076482,-3.166216,-1.1888351,0.16618125,-0.7797736
1641,A,1217649333589000,5.3289185,-1.8202149,-3.8799317,-0.5763081,1.3624732,-0.37390783
1641,A,1217649353685000,4.744534,-2.323169,-4.2104445,-0.8511463,2.1038973,-0.44528055
1641,A,1217649373861000,4.1553593,-2.7782228,-6.2581863,-1.1611383,1.804558,-0.5496765
1641,A,1217649393957000,4.8307548,-4.2080493,-9.496253,-1.6426378,1.2314457,-0.26418558
1641,A,1217649414148000,6.0186844,-6.320457,-6.351592,-2.828277,1.8397117,-0.6466155
1641,A,1217649434244000,6.8042507,-6.0617948,-1.0418335,-3.158509,1.2389026,-1.8130801
1641,A,1217649454439000,10.4494705,-6.943162,-0.613125,-2.7739487,0.49428272,-1.8429075
1641,A,1217649474535000,13.263618,-6.5240335,0.050295413,-2.7579696,0.5070659,-1.2197278
1641,A,1217649494727000,13.673167,-3.779341,2.430945,-3.4759579,0.14594123,0.02876214
1641,A,1217649514823000,15.055094,-1.575923,2.191443,-5.7098174,0.60293967,0.6785734
1641,A,1217649535017000,15.732884,-0.12693603,0.33530274,-8.007593,0.85966843,-1.3869743
1641,A,1217649555113000,15.038328,1.2813355,-1.0466236,-5.9601545,-0.31318775,-2.5363946
1641,A,1217649575295000,15.464642,2.318379,-2.7399025,-1.8098843,-1.8919097,-1.8759307
1641,A,1217649595391000,15.82629,3.0752053,-3.781736,1.0705907,-3.1563785,-1.9792614
1641,A,1217649615584000,14.020445,1.8968556,-4.756509,12.259064,0.55074173,-1.2793826
1641,A,1217649635680000,9.342972,1.1424243,-3.3482375,17.211477,0.922519,1.2783173
1641,A,1217649655870000,7.3311553,-0.3161426,-3.5566041,10.206299,-0.3834952,2.8527782
1641,A,1217649675966000,3.8344264,-11.587105,15.8167095,6.0570936,0.6562029,1.6383767
1641,A,1217649696161000,-0.047900394,-29.30067,20.57322,-0.6402239,0.9310411,-1.5329156
1641,A,1217649716257000,9.869876,-10.166859,-14.990428,-4.6743803,2.8591697,-0.9406285
1641,A,1217649736460000,11.249407,-4.112249,-7.2688847,-4.133226,-0.2247708,1.1994878
1641,A,1217649756556000,13.184583,-3.4823585,5.640271,0.07669904,-3.5920718,1.1270498
1641,A,1217649776769000,13.342654,-2.189048,2.3614893,4.817126,-2.2647521,-1.0333065
1641,A,1217649796865000,22.328768,11.910433,-53.229313,7.681622,1.716141,-0.9619338
1641,A,1217649817057000,4.7469287,12.466077,-27.470875,6.58653,-0.2972088,0.10439592
1641,A,1217649837153000,-1.456172,1.8848804,6.248606,4.748949,0.5613944,0.54435015
1641,A,1217649857344000,-0.6825806,-0.977168,4.634363,2.179531,0.6498113,0.05219796
1641,A,1217649877440000,-0.6706055,-1.4274317,0.8095166,0.0777643,-0.17257284,-0.33768883
1641,A,1217649897634000,0.8143067,-2.5291407,-0.1341211,-4.511395,0.19920446,-0.36218992
1641,A,1217649917730000,8.727451,-3.283572,0.81909674,-5.336975,-3.7497308,0.24074976
1641,A,1217649937921000,16.362774,-2.9602442,0.5460645,-3.2394693,-4.5145907,1.0801781
1641,A,1217649958017000,16.278948,-1.1496094,0.05748047,-3.7518613,1.2175972,0.4165184
1641,A,1217649978208000,10.720108,0.33769777,0.57959473,-5.4030213,5.1984906,-0.64341974
1641,A,1217649998304000,11.6948805,-1.1999048,0.16286133,-6.563094,3.3214946,-1.7086842
1641,A,1217650018498000,10.641072,-1.089734,-0.55803955,-6.221144,-1.0748519,-0.91612744
1641,A,1217650038594000,9.627979,-0.26345217,-1.6741188,-4.108725,-5.515939,-0.9672601
1641,A,1217650058784000,12.650494,0.059875492,-0.7783814,-0.6870956,-7.291735,-1.7907095
1641,A,1217650078880000,13.6995125,0.6514453,0.7424561,-0.9012137,-2.1699438,-0.29188246
1641,A,1217650099074000,14.082715,0.8430469,0.43110353,-11.057446,5.8546934,-0.23329292
1641,A,1217650119170000,15.114969,0.6586304,-1.6645386,-8.271778,-1.051416,1.2186625
1641,A,1217650139362000,16.204702,-0.086220704,-3.5973196,7.246994,3.5057852,2.505502
1641,A,1217650159458000,14.870677,-0.75203615,-4.3206153,13.953899,3.016829,1.3081448
1641,A,1217650179650000,11.989469,-1.0657837,-2.6129665,10.624948,4.2429485,1.2804478
1641,A,1217650199746000,9.956097,-1.4394068,-1.705254,7.5548553,3.6165729,1.0567423
1641,A,1217650219953000,8.62207,-1.9327809,-1.4010864,3.2650356,2.3829966,1.284709
1641,A,1217650240049000,8.253238,-2.5985963,-1.3986914,0.9044095,0.41864893,1.9856529
1641,A,1217650260242000,8.380174,-3.5182838,-1.2525953,0.5571333,-0.40906155,2.5566347
1641,A,1217650280338000,8.413704,-4.734954,-1.3052857,0.51771855,-1.8034927,2.23599
1641,A,1217650300531000,7.9730206,-5.5420756,-1.6597486,1.526524,-6.3457804,0.700944
1641,A,1217650320627000,5.975574,-4.0499783,0.46702883,4.726578,-3.750796,-1.0844392
1641,A,1217650340819000,4.4738965,-1.7315992,0.58677983,5.0525494,5.7939734,-0.025566347
1641,A,1217650360915000,5.031936,-0.76401126,-0.43349856,2.5321336,0.61678815,0.06924219
1641,A,1217650381110000,5.855823,-0.34727785,-0.71371585,-0.7222493,-2.924151,0.013848438
1641,A,1217650401206000,6.3923073,-0.1820215,-1.0130934,-3.5483959,-2.4831314,-0.08522116
1641,A,1217650421373000,6.9383717,-0.59156984,-1.3723463,-4.685033,-3.286341,0.70840085
1641,A,1217650441469000,7.7502837,-1.092129,-1.0585986,-3.7731667,-2.8250813,1.3528858
1641,A,1217650461660000,9.1130495,-1.6932789,-0.9412427,-3.3545177,0.58483016,0.46658584
1641,A,1217650481756000,10.9644,-1.6429834,-0.68976563,-2.9348035,2.9699574,-0.14061491
1641,A,1217650501931000,13.062437,-1.3124708,-1.0442286,-2.915629,3.7614489,-0.5784386
1641,A,1217650522027000,15.524517,-1.9998415,-2.198628,-3.5494611,2.469283,-0.13741912
1641,A,1217650542205000,16.904049,-2.7590625,-4.0787187,-3.6048548,-0.8000136,0.49215218
1641,A,1217650562301000,14.964083,-2.4453151,-5.968389,-2.5726137,-4.567854,0.41225734
1641,A,1217650582489000,14.00847,-1.8968556,-5.6642213,0.6317018,-5.4445667,-0.9502159
1641,A,1217650602585000,14.214441,-2.0070264,-5.137317,1.9228023,-2.727077,-0.10759171
1641,A,1217650622779000,14.384488,-2.4022048,-4.4571314,1.9558256,-0.479369,0.7435546
1641,A,1217650642875000,12.638518,-2.4069948,-3.2452517,2.3531692,-0.19920446,0.40906155
1641,A,1217650663081000,10.559642,-2.2297633,-3.3338673,3.1851406,-0.6498113,0.16192019
1641,A,1217650683177000,9.019644,-1.9782863,-3.784131,3.685815,-0.7595336,0.039414786
1641,A,1217650703377000,8.471185,-1.9375709,-3.7625759,3.774232,0.39414784,-0.11504856
1641,A,1217650723473000,9.304651,-2.2800586,-4.167334,3.4844801,0.9917612,-0.17150758
1641,A,1217650743667000,9.417217,-2.339934,-4.1888895,2.4554346,1.0141318,-0.2759035
1641,A,1217650763763000,8.686736,-2.1076174,-4.157754,0.71159667,0.7041398,-0.81918836
1641,A,1217650783960000,8.044871,-2.1243825,-4.854705,-1.2655342,0.42397526,-1.2697952
1641,A,1217650804056000,7.194639,-2.1100123,-4.5792775,-2.5321336,0.7030745,-1.2591426
1641,A,1217650824249000,6.11209,-1.9136207,-4.399651,-3.0999196,0.80747044,-0.93849796
1641,A,1217650844345000,5.245093,-1.7603394,-4.1888895,-1.4029533,2.3180156,-0.9821738
1641,A,1217650864538000,4.9217653,-1.8896705,-3.6380348,3.9159122,0.8628642,-1.3912354
1641,A,1217650884634000,4.7469287,-1.947151,-3.5039136,3.206446,-1.015197,-1.1941614
1641,A,1217650904826000,4.8020144,-1.8465601,-3.776946,1.0780476,2.0250678,-1.2591426
1641,A,1217650924922000,5.484595,-1.9806812,-4.064348,-0.8032094,0.51771855,-0.72011876
1641,A,1217650945102000,6.5336137,-2.2800586,-4.478687,-1.7310548,-2.1252027,0.39734364
1641,A,1217650965198000,7.070098,-2.5243506,-5.1397123,-2.3062975,-2.223207,1.0396981
1641,A,1217650985411000,7.4269557,-2.7303224,-5.149292,-3.4578483,-0.0010652645,0.12357068
1641,A,1217651005507000,7.719148,-2.8764186,-4.734954,-4.957741,2.808037,-0.5613944
1641,A,1217651025667000,7.9706254,-2.6464968,-4.402046,-6.6323366,3.5750275,-1.1121361
1641,A,1217651045795000,8.981323,-2.5075855,-4.5792775,-7.2885394,1.5893745,-0.57311225
1641,A,1217651065955000,10.87818,-2.5914114,-4.1050634,-5.817409,-0.6498113,-0.6125271
1641,A,1217651086135000,12.169095,-2.3614893,-4.4762917,-2.8048413,-4.9833074,-1.6245283
1641,A,1217651106251000,11.699671,-1.9184108,-5.8127127,0.5997439,-7.5175714,-1.9803267
1641,A,1217651126347000,11.196717,-2.4045997,-4.3278003,2.0090888,-4.28982,-0.58056915
1641,A,1217651146528000,12.152329,-3.302732,-2.7590625,6.9061093,8.582836,1.381648
1641,A,1217651166624000,13.548626,-4.047583,-3.173401,11.062772,-0.9960223,2.6035063
1641,A,1217651186820000,13.574971,-4.0020776,-3.803291,8.115185,-2.6716833,-0.06498113
1641,A,1217651206916000,11.955938,-3.288362,-3.4440382,6.7282104,1.9973708,-1.5787219
1641,A,1217651227111000,9.891431,-2.4644752,-2.5315359,5.0173955,0.5028048,-1.2815131
1641,A,1217651247207000,8.025711,-1.5639478,-2.2225783,3.1031153,1.180313,-1.6863136
1641,A,1217651267394000,6.974297,-1.1496094,-2.926714,0.87564737,2.5353293,-1.7172064
1641,A,1217651287490000,6.219866,-0.96758795,-2.543511,-2.6514432,1.8919097,-1.4349113
1641,A,1217651307686000,5.613926,-0.7185059,-1.3699512,-5.192099,2.0953753,-0.070307456
1641,A,1217651327782000,5.295388,-0.5005591,-1.0777588,1.6000272,-3.834952,-0.00958738
1641,A,1217651347974000,5.5636306,-0.58198977,-1.6453785,1.5723304,-2.1337247,-0.1949434
1641,A,1217651368070000,5.616321,-0.58677983,-1.9399658,0.4612595,-0.2972088,0.30679616
1641,A,1217651388260000,6.10251,-0.6777906,-2.1818628,-0.18642128,-0.48149952,0.7520767
1641,A,1217651408356000,6.967112,-0.87178713,-2.579436,-1.8631475,-1.1899004,0.87777793
1641,A,1217651428525000,7.563472,-0.9316626,-2.9865894,-2.9763489,-0.77125144,0.3089267
1641,A,1217651448621000,8.006551,-0.9508228,-2.9841945,-4.1907506,1.200553,-0.40266997
1641,A,1217651468793000,8.878338,-1.1663746,-2.4572902,-5.7375145,0.13422333,-0.3334278
1641,A,1217651488889000,9.7621,-1.4705421,-2.6441016,-6.3053,-0.69135666,-0.094808534
1641,A,1217651509083000,10.916499,-1.7986598,-3.4009278,-6.208361,-0.72970617,-0.14913702
1641,A,1217651529179000,12.015814,-1.9447559,-4.1314087,-4.9598713,-0.033023197,-0.16298546
1641,A,1217651549375000,12.832515,-1.9399658,-4.9552956,-2.7931235,0.4165184,-0.2908172
1641,A,1217651569471000,13.297149,-1.8585353,-5.3384986,-0.8628642,-1.7981664,-0.3888215
1641,A,1217651589673000,14.106666,-1.9591261,-5.0750465,0.25992453,-3.4898064,-0.5028048
1641,A,1217651609769000,15.170054,-1.9591261,-5.1804276,0.95447695,-2.3009713,-0.036218993
1641,A,1217651629985000,16.453785,-1.5735279,-5.858218,0.93423694,-0.28975195,0.78296936
1641,A,1217651650081000,18.623672,-1.1999048,-6.638994,2.3276029,4.777711,0.79255676
1641,A,1217651670267000,17.977016,-1.1951149,-6.9096317,4.8000817,2.5758095,1.0343717
1641,A,1217651690363000,13.158237,-2.7830129,-8.270002,5.9271317,-1.6309199,0.5581986
1641,A,1217651710577000,5.992339,-7.9155397,-10.775193,6.0879865,0.18855181,-0.6562029
1641,A,1217651730673000,2.2393434,-14.240787,-7.5059915,4.8608017,1.5936357,-0.6743124
1641,A,1217651750902000,5.391189,-9.520203,-5.958809,2.0836573,2.1273332,-0.59867865
1641,A,1217651770998000,5.367239,-3.9685476,-4.5768824,0.10439592,1.7832527,-0.75420725
1641,A,1217651791225000,6.725215,-2.3638844,-6.1695704,-0.9619338,0.8117315,-0.5539375
1641,A,1217651811321000,12.506792,-2.2345533,-8.464,-1.5456988,0.25672874,-0.21837921
1641,A,1217651831513000,6.1456203,0.86220706,-6.552774,-1.103614,-0.5784386,-0.05539375
1641,A,1217651851609000,2.6704469,0.14849122,-8.638836,0.3930826,-1.9771309,-0.16618125
1641,A,1217651871801000,2.5818312,-3.0368848,-7.678433,1.3422332,-2.6525085,0.049002163
1641,A,1217651891897000,0.86939216,-3.0871804,2.2201831,1.5020229,-2.231729,0.34621096
1641,A,1217651912093000,3.1231055,-1.590293,4.7325587,1.2772521,-1.3518206,0.45167214
1641,A,1217651932189000,5.886958,-0.29937744,0.51971924,1.0066749,-0.42717105,1.0471549
1641,A,1217651952383000,2.0285816,-0.9436377,-5.623506,-0.7680557,2.3947146,0.5273059
1641,A,1217651972479000,0.5388794,-2.0357666,-6.085745,-2.7398603,1.9217371,-0.11717909
1641,A,1217651992670000,2.2728736,-4.1793094,-5.278623,-3.4312167,0.07137272,0.15020229
1641,A,1217652012766000,7.92512,-6.9096317,-4.253555,-3.5185685,-0.2790993,0.59122175
1641,A,1217652032960000,18.012943,-9.019644,-2.2225783,-3.1553133,0.773382,0.8404937
1641,A,1217652053056000,21.363575,-8.104747,-3.5613942,-1.5819178,0.34194988,0.6380934
1641,A,1217652073271000,12.140354,-2.907554,-2.076482,1.1110709,-0.551807,0.18961707
1641,A,1217652093367000,6.9024467,-0.728086,-0.62749517,3.174488,-0.5592638,0.017044231
1641,A,1217652113575000,10.32014,-1.8848804,-0.7232959,3.0700922,2.2466428,0.080960095
1641,A,1217652133671000,14.300662,-2.6369166,-0.7783814,1.2942963,2.6908581,-0.21198763
1641,A,1217652153865000,16.386724,-2.7303224,-1.1424243,0.15339808,-1.361408,-0.5006743
1641,A,1217652173961000,18.30274,-2.8572583,-4.5601172,0.0053263223,-2.4394555,-0.8788432
1641,A,1217652194147000,19.53857,-2.189048,-6.813831,0.43782368,-0.0479369,-1.0823087
1641,A,1217652214243000,15.732884,-0.38320315,-4.8044095,-0.37923414,2.0133498,-1.0290455
1641,A,1217652234431000,12.370276,1.2382251,-3.527864,-1.9760655,1.2420983,-0.9470201
1641,A,1217652254527000,14.865887,7.8652444,-4.9169755,-2.9390647,-0.515588,-0.31318775
1641,A,1217652274717000,11.309282,10.636282,6.332432,-1.1909657,-2.590723,-0.3121225
1641,A,1217652294813000,9.932146,7.695198,7.2760696,5.0621367,-7.742342,-1.3262542
1641,A,1217652314995000,9.970467,4.543352,6.4042826,4.6669235,-3.459979,-1.1632688
1641,A,1217652335091000,8.8951025,1.8537452,4.009263,2.824016,1.5595472,-0.2759035
1641,A,1217652355284000,5.3480787,-0.87418216,0.22992188,1.7108147,2.1965754,0.068176925
1641,A,1217652375380000,5.767207,-4.0667434,-1.6238233,0.5795039,0.45060685,0.17044231
1641,A,1217652395574000,7.688013,-6.574329,-3.4775686,-0.74781567,-0.30360037,-0.06498113
1641,A,1217652415670000,6.330037,-4.639153,-1.7723145,-1.7193369,0.32384038,-0.18109496
1641,A,1217652435862000,4.761299,-2.1483326,0.13172609,-2.1315942,0.45699844,0.37390783
1641,A,1217652455958000,4.4116263,-2.1411476,-1.1376343,-2.0847225,2.7441213,0.6711166
1641,A,1217652476148000,4.670288,-1.6836988,-1.6046631,-2.9987195,4.023504,0.49854377
1641,A,1217652496244000,5.137317,-1.7004639,-2.2273684,0.26631612,-0.99495703,0.5006743
1641,A,1217652516437000,6.2965064,-2.440525,-3.3147073,4.4442835,-3.5920718,-0.36751625
1641,A,1217652536533000,7.7718387,-2.8261232,-2.6656568,3.0871365,-2.7398603,-1.5190672
1641,A,1217652556724000,9.388477,-3.5805542,-1.585503,1.200553,-2.31695,-1.663943
1641,A,1217652576820000,12.09485,-4.3206153,-0.8646021,-0.66365975,0.56672066,0.30999196
1641,A,1217652597008000,14.870677,-3.9134622,-0.65384036,-4.0341563,4.4208474,1.6895094
1641,A,1217652617104000,15.062279,-2.430945,-1.223855,-6.2658854,2.775014,0.7073356
1641,A,1217652637295000,14.659915,-1.1783496,-2.308799,-5.703426,-0.5486112,0.6508766
1641,A,1217652657391000,16.872913,-0.4023633,-2.2058132,-3.8818238,-2.0080235,0.79042625
1641,A,1217652677599000,17.818947,0.7783814,-0.56522465,-1.897236,-3.310842,-0.16831179
1641,A,1217652697695000,18.618883,0.8669971,-1.331631,-0.5763081,-3.0967238,0.026631612
1641,A,1217652717890000,16.010706,-0.011975098,-3.1278956,-0.05539375,-0.9267801,0.5113269
1641,A,1217652737986000,9.623189,-0.14849122,-2.9770093,0.2695119,-0.05752428,0.21092236
1641,A,1217652758177000,6.339617,-0.91250247,-3.4991236,3.033873,1.7662084,-0.9576728
1641,A,1217652778273000,4.27032,-3.7314405,-3.3626075,5.675729,0.7637946,-0.76485986
1641,A,1217652798451000,4.416416,-7.4269557,-5.295388,5.2347097,-0.49747851,-0.6625945
1641,A,1217652818547000,7.223379,-8.250843,-0.0071850587,3.7614489,-0.31638354,-0.90973586
1641,A,1217652838741000,15.1413145,-0.9867481,9.045989,2.63866,0.16085494,-0.7350325
1641,A,1217652858837000,14.899417,5.7001467,0.60833496,1.8503643,0.21518342,-0.4314321
1641,A,1217652879018000,9.575289,5.388794,-1.3843213,0.8064052,-0.10865697,-0.27483824
1641,A,1217652899114000,1.961521,3.5039136,-3.7577858,-0.16192019,0.314253,-0.25353295
1641,A,1217652919306000,1.7842896,1.1352394,-5.9707837,-0.43356264,0.95447695,-0.18216023
1641,A,1217652939402000,2.1363575,-0.07424561,-4.0882983,-0.5997439,0.8681905,-0.21518342
1641,A,1217652959606000,1.4274317,-0.7711963,-3.5901344,-1.252751,0.54648066,-0.2876214
1641,A,1217652979702000,1.3196558,-0.7879615,-2.9722195,-0.34834146,1.0908308,-0.6924219
1641,A,1217652999894000,1.4705421,-0.7448511,-2.802173,0.922519,-0.5475459,-1.1195929
1641,A,1217653019990000,3.4751735,-1.1615845,-3.9278321,-0.07563378,-0.20453078,-0.86179894
1641,A,1217653040182000,7.8604546,-2.4261549,-5.1852174,-1.582983,0.0,-0.42717105
1641,A,1217653060278000,15.907721,-4.536167,-3.4248781,-1.8940402,-1.2836437,0.22583607
1641,A,1217653080471000,19.006876,-4.150569,1.3531861,-1.5126755,-1.5659387,0.26205507
1641,A,1217653100567000,16.096928,-3.7625759,-1.3867164,-1.8194717,-0.12463594,0.531567
1641,A,1217653120760000,10.267449,-1.829795,-0.8310718,-3.4013894,1.5488945,1.1004182
1641,A,1217653140856000,10.121353,-0.4622388,0.6227051,-4.836301,1.4104102,0.91612744
1641,A,1217653161050000,12.540323,0.122146,-0.852627,-4.4293694,-0.22796659,0.572047
1641,A,1217653181146000,13.246854,0.43110353,-2.3782544,-2.7419908,-2.275405,0.51771855
1641,A,1217653201338000,14.279107,0.6610254,-3.1255007,-0.31851408,-2.957174,-0.13102753
1641,A,1217653221434000,15.795155,1.1088941,-3.6763551,1.7267936,-3.5015242,-0.49641323
1641,A,1217653241616000,17.708775,1.6932789,-6.207891,2.2264028,-1.1515509,0.13422333
1641,A,1217653261712000,16.45618,2.5387208,-2.9626393,2.3584955,-0.3057309,0.6103965
1641,A,1217653281888000,11.635005,2.3495142,2.3471193,3.218164,-0.79894835,0.165116
1641,A,1217653301984000,8.5430355,0.76880133,-0.366438,3.7603836,-0.8213189,-0.8362326
1641,A,1217653322180000,8.586145,-0.8143067,0.7664063,3.7348173,-0.5571333,-1.2325109
1641,A,1217653342276000,8.56459,-1.0394385,2.0022364,3.3747578,-0.12144015,-1.176052
1641,A,1217653362464000,8.076006,-0.8286768,-2.1531227,3.2288165,0.17257284,-1.5691346
1641,A,1217653382560000,9.189691,-0.8765772,-3.6548,2.6716833,0.8564726,-1.6170714
1641,A,1217653402760000,9.148975,-1.0585986,-3.187771,1.1899004,1.8098843,-1.1994878
1641,A,1217653422856000,7.429351,-1.1136842,-3.5087037,-1.1249193,1.5382419,-1.0748519
1641,A,1217653443065000,5.712122,-1.0370435,-3.0728102,-2.7963192,0.3898868,-0.6828345
1641,A,1217653463161000,4.277505,-0.7232959,-1.83219,-3.4983284,0.40053943,-0.32384038
1641,A,1217653483355000,3.3458424,-0.5987549,-1.6166383,-3.2096417,0.19600865,-0.38136467
1641,A,1217653503451000,3.6931202,-0.9268726,-2.1555176,-2.098571,-0.479369,-0.8692558
1641,A,1217653523664000,4.382886,-1.2573853,-2.6776319,-0.78083885,-0.38136467,-0.9651296
1641,A,1217653543760000,5.4103494,-1.8441651,-3.1063404,-0.9832391,0.19920446,-0.71479243
1641,A,1217653563954000,7.3455253,-2.794988,-2.6345215,-1.3145363,0.8841695,-0.47297743
1641,A,1217653584050000,9.448353,-3.4871485,-1.9950514,-1.0375676,0.20133498,-0.26738137
1641,A,1217653604243000,10.859019,-3.4823585,-1.9950514,-1.0737866,-1.1792477,-0.28549087
1641,A,1217653624339000,12.636124,-3.163821,-1.5639478,-1.6181368,-2.107093,0.0628506
1641,A,1217653644531000,15.081439,-2.680027,-1.0035132,-1.743838,-2.5427864,0.46871635
1641,A,1217653664627000,14.691051,0.047900394,-0.9987232,-1.3901701,-3.0722227,0.75420725
1641,A,1217653684819000,14.501843,5.233118,0.37122804,-0.5049353,-4.0352216,0.773382
1641,A,1217653704915000,16.4466,1.6046631,1.2789404,1.2516857,-3.935087,1.3443637
1641,A,1217653725093000,15.320941,-0.44547364,0.05748047,3.0626354,-0.62744075,2.5076325
1641,A,1217653745189000,14.834752,-0.73048097,-3.3745828,3.5750275,2.2775354,2.892193
1641,A,1217653765368000,13.4671955,-1.096919,-6.11688,3.657053,2.3712788,2.1337247
1641,A,1217653785464000,10.8997345,-1.3244458,-5.750442,4.0629187,2.8996499,0.3334278
1641,A,1217653805657000,8.938213,-1.4753321,-4.4499464,2.2988408,7.484548,-0.8266452
1641,A,1217653825753000,7.7862086,-1.8657203,-3.537444,-5.082377,12.079034,-0.4111921
1641,A,1217653845944000,7.2257743,-2.5818312,-3.3434474,-1.4413028,-4.2631884,-0.96299905
1641,A,1217653866040000,6.983877,-3.2189064,-2.3423293,4.470915,-6.3862605,-0.09054748
1641,A,1217653886248000,5.726492,-4.653523,-4.6032276,4.5263085,-2.347843,-0.26525086
1641,A,1217653906344000,6.1312504,-6.2653713,-4.6271777,4.3473444,0.2759035,-0.2695119
1641,A,1217653926553000,6.1216702,-3.06323,3.8080812,4.191816,-0.06498113,-0.17470337
1641,A,1217653946649000,6.957532,1.0011182,6.502478,4.2951465,-1.587244,-0.29188246
1641,A,1217653966840000,7.685618,2.320774,0.9268726,4.156662,-2.4756746,-0.624245
1641,A,1217653986936000,6.11209,-1.1352394,-4.981641,2.8165593,-2.191249,-0.9491506
1641,A,1217654007135000,4.27032,-1.1855347,-2.6584718,0.902279,-1.8844528,-1.1696603
1641,A,1217654027231000,4.387676,-1.7914747,-1.7986598,-0.4889564,-1.0897655,-1.5403724
1641,A,1217654047423000,5.7719975,-2.7159522,-2.9410841,-2.1209416,0.28016454,-2.2509038
1641,A,1217654067519000,6.74198,-3.1087356,-2.8141482,-3.722034,1.4732608,-3.118029
1641,A,1217654087711000,7.661668,-3.1087356,-2.2513185,-4.491155,2.1315942,-3.3619747
1641,A,1217654107807000,8.983719,-2.9650342,-2.339934,-2.3659523,-0.8362326,-2.0570257
1641,A,1217654127998000,11.098521,-2.8859987,-2.0309765,2.4458473,-3.4163032,-1.0684602
1641,A,1217654148094000,13.515096,-2.5914114,-1.8992506,1.8524948,0.17044231,-1.526524
1641,A,1217654168287000,14.70063,-1.719624,-1.7292042,0.9853696,-0.28549087,-0.40906155
1641,A,1217654188383000,14.966477,-1.0801538,-2.311194,-0.054328486,-1.3550164,0.165116
1641,A,1217654208588000,14.640755,0.035925295,-2.7446926,-1.6511599,-0.10759171,0.42290998
1641,A,1217654228684000,14.549745,6.454578,-6.543194,-2.7537086,0.070307456,1.1387677
1641,A,1217654248844000,15.110179,10.226734,-3.7458107,-2.7718182,-0.3536678,1.9132149
1641,A,1217654268972000,18.942211,2.3614893,-0.7759864,-2.9774141,0.7914915,2.4479778
1641,A,1217654289132000,18.8991,-2.3734643,-2.5411158,-3.512177,0.29614353,2.790993
1641,A,1217654309311000,10.890154,-1.22146,3.7601807,-3.7113814,-0.5997439,2.57794
1641,A,1217654329411000,6.7946706,-0.48618898,3.4512234,-3.468501,-1.4029533,1.9867182
1641,A,1217654349507000,5.47262,-3.3434474,-5.108577,-3.235208,-1.7757958,1.2665994
1641,A,1217654369682000,8.190968,-4.766089,1.3531861,-2.694054,-1.7108147,0.54648066
1641,A,1217654389778000,10.6817875,-1.0633887,8.243657,-2.0857878,-0.87032104,0.30040458
1641,A,1217654409985000,9.857901,-1.4753321,0.6562354,-1.8066885,-0.25353295,0.45167214
1641,A,1217654430081000,8.907078,-1.6693287,-3.4536183,-1.4935007,-0.3898868,0.46019423
1641,A,1217654450275000,7.204219,-0.6322852,-4.1146436,-1.1163971,-0.027696876,0.36432046
1641,A,1217654470371000,6.1552005,-0.17723145,-3.3410523,-0.8745821,0.5006743,0.12144015
1641,A,1217654490569000,5.261858,-0.47181886,-2.3375392,-0.13209279,0.2247708,-0.79681784
1641,A,1217654510665000,4.981641,-0.5460645,-1.2502003,1.0950918,0.5752428,-1.2857742
1641,A,1217654530859000,4.5816727,-0.31853762,-1.1400293,2.1241374,1.4391723,-1.0503508
1641,A,1217654550955000,5.2594633,-0.5005591,-1.9854712,2.9976542,1.3379722,-0.88843054
1641,A,1217654571149000,6.840176,-0.5484595,-1.7220191,3.6581182,2.263687,-1.220793
1641,A,1217654591245000,8.387359,-0.68976563,-1.6669337,3.706055,3.278884,-1.4860439
1641,A,1217654611438000,10.621912,-1.1951149,-1.6813037,3.629356,2.6589,-1.6767262
1641,A,1217654631534000,11.967913,-1.2525953,-1.7579445,3.9808934,0.84368944,-2.082592
1641,A,1217654651693000,12.868441,-1.1999048,-2.2896388,3.5281558,-0.1768339,-2.026133
1641,A,1217654671789000,14.238392,-1.2022998,-2.2824538,1.8738002,-0.23009712,-1.2357068
1641,A,1217654691970000,14.782062,-0.6011499,-1.9136207,0.15659387,-0.19387813,-0.42077947
1641,A,1217654712066000,14.57609,0.021555176,-2.0525317,-0.9395633,-0.55287224,0.22264028
1641,A,1217654732260000,16.020287,0.26584718,-2.2776637,-1.6053536,-0.94595486,0.958738
1641,A,1217654752356000,17.2154,0.9244776,-1.5088624,-1.1696603,-2.271144,1.6160061
1641,A,1217654772549000,17.12918,1.1208692,-2.7446926,0.004261058,-2.5118935,2.2242723
1641,A,1217654792645000,13.790523,-0.4766089,-5.5540504,0.08841695,1.1728562,3.6069853
1641,A,1217654812835000,8.691526,-1.2478052,-4.0978785,-0.49854377,1.6927053,3.6389434
1641,A,1217654832931000,6.823411,-1.8513502,-2.7734327,0.5752428,-1.3411679,2.5640914
1641,A,1217654853123000,6.7755103,-2.193838,-2.1674929,2.1038973,-0.95447695,1.7566211
1641,A,1217654873219000,7.0365677,-1.9447559,-0.85023195,2.8527782,-0.12250541,0.8032094
1641,A,1217654893410000,7.2521195,-2.459685,-0.9268726,3.4898064,-1.5030881,-0.05006743
1641,A,1217654913506000,7.3096,-3.175796,-0.7568262,3.5558527,-1.3358417,-0.2695119
1641,A,1217654933723000,9.529783,-3.1901662,-0.4981641,3.4716969,-0.5273059,-0.38242993
1641,A,1217654953819000,11.093731,-2.6536818,-1.7435743,3.6314864,-0.6668556,-0.6306366
1641,A,1217654974034000,8.260423,-1.6789087,-1.7507594,4.214186,-1.1025487,-0.8788432
1641,A,1217654994130000,5.9635987,-1.223855,-1.2310401,4.4879594,-1.0045444,-0.8479505
1641,A,1217655014350000,5.1564775,-0.8214917,-0.7879615,1.9707392,-0.84368944,-0.89801794
1641,A,1217655034446000,4.5577226,-1.6094532,-1.0346485,-2.9134984,0.09161274,-1.4476944
1641,A,1217655054641000,4.6032276,-3.4057178,-1.7220191,-4.334561,1.4082797,-2.1049626
1641,A,1217655074737000,3.911067,-4.0906935,-2.5698562,-3.9617186,0.7073356,-2.4437168
1641,A,1217655094928000,3.3434474,-3.8056862,-2.2776637,-3.2778187,0.83942837,-2.4479778
1641,A,1217655115024000,3.2524366,-2.8548634,-1.8082398,-2.9017804,1.7715348,-2.312689
1641,A,1217655135204000,3.6308498,-2.6656568,-1.8968556,-1.8141453,0.958738,-1.9920446
1641,A,1217655155300000,5.1708474,-3.2524366,-1.4944923,-0.07456851,-0.624245,-1.8056233
1641,A,1217655175483000,8.657996,-4.054768,-0.25147706,-1.3113406,0.11611383,-1.591505
1641,A,1217655195579000,15.122154,-5.0534916,2.7279274,-4.563593,1.5297197,-1.3944311
1641,A,1217655215755000,22.283262,-5.949229,6.1240654,-5.0365705,0.23222765,-2.167813
1641,A,1217655235851000,23.406527,-4.9648757,3.9350173,-4.1577272,-0.9736517,-2.3009713
1641,A,1217655256043000,15.828685,-0.083825685,-4.655918,-3.7827542,-0.813862,-1.7917749
1641,A,1217655276139000,21.138443,8.538245,-15.88856,-4.9204564,0.27803403,-1.171791
1641,A,1217655296363000,22.007835,13.524676,-5.489385,-10.262757,4.0448093,-1.3262542
1641,A,1217655316459000,15.435902,1.5735279,7.302415,-14.044447,3.9702406,-5.905826
1641,A,1217655336665000,10.023157,1.0154883,2.8812087,-8.452873,-7.105314,-6.9178276
1641,A,1217655356761000,9.309442,0.61552006,1.9734962,-2.49698,-8.6808405,-4.9779806
1641,A,1217655376948000,8.760982,1.0753639,3.9541774,-2.3936493,-1.6884441,-3.9904807
1641,A,1217655397044000,11.357183,-0.5748047,5.1780324,-4.4442835,-0.11824436,-4.072506
1641,A,1217655417238000,11.268567,-2.6225464,3.04407,-1.743838,-1.7598169,-2.347843
1641,A,1217655437334000,9.903406,-3.5637891,-0.15328126,-0.56245965,-2.0271983,-1.3805827
1641,A,1217655457527000,7.9897857,-3.2021413,-2.6967921,-0.5070659,-1.1984226,-1.4263891
1641,A,1217655477623000,5.094207,-2.44292,-3.887117,-1.2942963,-0.28016454,-0.7392935
1641,A,1217655497810000,4.390071,-2.6967921,-3.307522,-1.2037488,-1.0865698,-0.17470337
1641,A,1217655517906000,4.5313773,-2.6153615,-1.9208057,0.0127831735,-1.5574167,0.50813115
1641,A,1217655538100000,3.4344583,-1.8944606,-1.7818946,1.2144015,-0.42290998,1.051416
1641,A,1217655558196000,2.792593,-1.5591577,-3.5877395,0.8330368,1.7214674,1.2772521
1641,A,1217655578389000,2.8309133,-1.6429834,-5.5612354,-0.86392945,2.5108283,1.2389026
1641,A,1217655598485000,3.9613624,-2.6704469,-5.101392,-0.6018744,2.2040322,2.3979104
1641,A,1217655618678000,5.740862,-4.045188,-4.040398,2.541721,3.005111,1.2996227
1641,A,1217655638774000,9.711804,-5.872588,-4.150569,1.2676647,1.196292,0.2514024
1641,A,1217655658967000,16.700472,-7.8891945,-2.6105714,-0.89588743,1.1504856,1.0013486
1641,A,1217655679063000,20.944447,-7.5035963,1.7651294,-1.417867,0.75420725,1.2144015
1641,A,1217655699257000,18.269209,-2.4453151,8.875943,-1.5744609,0.94488955,1.1270498
1641,A,1217655719353000,12.9115505,4.7708793,1.5735279,-2.4682178,0.45593318,0.8042747
1641,A,1217655739546000,13.198954,-0.7113208,-6.6988697,-3.4780884,-0.29827404,0.32277513
1641,A,1217655759642000,13.651612,-1.5352076,-2.2656887,-3.6229644,-0.69029135,-0.4910869
1641,A,1217655779847000,13.141473,-1.0562036,-2.4620802,-2.9870014,-1.4721955,-1.325189
1641,A,1217655799943000,14.509029,-1.4944923,-5.609136,-3.3268209,-2.3180156,-1.2335763
1641,A,1217655820144000,13.783338,-1.9160157,-4.7086086,-4.507134,-2.1699438,-0.12463594
1641,A,1217655840240000,11.302097,-2.5914114,-2.9770093,-3.80619,-2.706837,1.365669
1641,A,1217655860452000,8.487949,-2.6153615,-2.7470875,-1.1419635,0.03195793,0.97897804
1641,A,1217655880548000,7.101233,-2.574646,-3.2117214,2.328668,0.17044231,-1.2090752
1641,A,1217655900748000,5.743257,-3.8440065,-3.4416432,1.7459685,0.8809737,-1.7853832
1641,A,1217655920844000,3.9350173,-7.359895,-3.7434156,1.5776566,1.8418423,-1.9153455
1641,A,1217655941037000,6.1743608,-9.493857,-3.915857,2.3574302,1.5009576,-3.0402648
1641,A,1217655961133000,5.949229,-6.095325,0.11496094,2.7601001,0.82877576,-3.0807447
1641,A,1217655981326000,5.319339,-2.7566676,1.9423609,2.8836708,1.0769824,-2.0240026
1641,A,1217656001422000,5.367239,-1.4897022,1.5040723,3.1190944,1.5414376,-1.1899004
1641,A,1217656021618000,5.589976,-0.2682422,1.954336,3.2533176,1.2293152,-0.6348976
1641,A,1217656041714000,7.0006423,1.4465919,1.9854712,3.6378782,0.44315,-0.013848438
1641,A,1217656061892000,7.664063,1.5591577,-1.8274,2.5630262,0.628506,0.6689861
1641,A,1217656081988000,7.110813,-2.2225783,-1.7747096,-1.2996227,2.6589,0.53476274
1641,A,1217656102159000,6.1695704,-3.3530276,0.34009278,-1.8279938,1.7960359,-0.18748654
1641,A,1217656122255000,6.583909,-2.687212,0.21315674,-1.6138756,-1.6298546,0.5422196
1641,A,1217656142449000,7.776629,-2.335144,0.69216067,-2.2455776,-0.56245965,1.4476944
1641,A,1217656162545000,9.613608,-2.7159522,1.4753321,-2.0005667,-1.1270498,1.4136059
1641,A,1217656182736000,10.571617,-2.8572583,1.1424243,-1.6074841,-1.4359765,1.1313108
1641,A,1217656202832000,12.164305,-2.9458742,0.65384036,-2.0698087,-0.3920173,0.7052051
1641,A,1217656223030000,14.403648,-3.0799952,-0.06466553,-2.722816,-0.70200926,0.9683254
1641,A,1217656243126000,14.5928545,-2.1555176,-1.0346485,-3.3214946,-0.17896444,0.5858955
1641,A,1217656263319000,14.238392,-0.5125342,-2.2273684,-3.4173684,0.5134575,-0.22903186
1641,A,1217656283415000,14.6000395,0.6346802,-3.3937428,-2.6738138,-0.15339808,-0.9821738
1641,A,1217656303611000,16.266973,1.6022681,-5.5253105,-1.5755261,-2.118811,-1.2346416
1641,A,1217656323707000,18.31711,2.7590625,-5.2355127,-1.361408,-1.4562165,-0.85753787
1641,A,1217656343901000,16.39391,0.9987232,-2.3782544,-1.5403724,0.13102753,-0.17150758
1641,A,1217656363997000,12.343931,-0.10777588,-4.4834766,-0.29933932,-1.3038837,0.33129725
1641,A,1217656384189000,0.2945874,-1.6741188,-30.404774,-0.15446335,-1.6937705,-0.27696875
1641,A,1217656404285000,10.724898,-4.351751,-6.4114676,0.33449304,1.3880396,-1.3464943
1641,A,1217656424479000,12.437337,-6.3779373,12.727135,0.81705785,2.743056,-1.4935007
1641,A,1217656444575000,10.27224,-1.4106666,5.2762284,1.6660736,2.4937842,-1.3401027
1641,A,1217656464771000,6.782696,-0.25147706,-2.912344,2.896454,1.6330504,-2.4000409
1641,A,1217656484867000,7.8484793,0.083825685,-0.6682105,3.468501,1.1845741,-2.4149544
1641,A,1217656505057000,7.671248,0.21315674,-0.25387207,3.278884,1.1558119,-1.8439728
1641,A,1217656525153000,6.023474,0.46463382,0.059875492,2.731338,0.8341021,-1.2112057
1641,A,1217656545345000,5.6618266,0.52690434,0.76401126,2.1816616,0.165116,-0.53795856
1641,A,1217656565441000,5.151687,0.23950197,0.5556446,1.6000272,0.14807177,0.013848438
1641,A,1217656585622000,4.191284,-0.14370118,-0.19878663,1.6969663,0.32170987,0.25353295
1641,A,1217656605718000,3.896697,-0.22992188,-0.8813672,3.8072553,0.084155895,-0.10226539
1641,A,1217656625910000,5.4271145,-0.60594,-1.3172607,6.142315,0.2066613,-0.41864893
1641,A,1217656646006000,8.626861,-1.3843213,-0.852627,7.18947,3.7966025,-0.83516735
1641,A,1217656666197000,10.777588,-1.5136524,-0.9148975,6.4150224,6.903979,-0.6263755
1641,A,1217656686293000,12.032578,-1.5807129,-0.85741705,3.0477216,3.556918,0.30040458
1641,A,1217656706505000,14.099481,-1.9184108,-0.8214917,-2.1763353,0.20133498,0.9470201
1641,A,1217656726601000,13.821658,-1.2741505,-0.3879932,-4.61153,-2.6141589,1.1568772
1641,A,1217656746819000,12.248131,-0.71371585,0.37122804,-5.2347097,-3.6314864,1.4455639
1641,A,1217656766915000,12.121195,-0.50534916,0.6993457,-5.4030213,-3.456783,0.7307714
1641,A,1217656787108000,13.055252,-0.07664063,0.56522465,-5.369998,-1.6980315,-1.180313
1641,A,1217656807204000,14.607224,0.3305127,-0.38559815,-4.708469,0.18429075,-0.3472762
1641,A,1217656827399000,16.734003,0.38320315,-1.954336,-3.7689056,-0.080960095,0.37390783
1641,A,1217656847495000,16.324453,-0.08861572,-1.6310084,-3.174488,-1.0578076,0.43782368
1641,A,1217656867690000,13.840818,-0.8310718,-1.0418335,-2.9497173,-0.9193232,0.8032094
1641,A,1217656887786000,11.464959,-1.829795,-1.8920655,-2.7132285,0.43782368,1.7789917
1641,A,1217656907979000,9.045989,-2.8979738,-2.2106032,-1.8120148,-0.6317018,2.5150893
1641,A,1217656928075000,7.053333,-2.929109,-2.907554,1.2761868,-2.428803,2.126268
1641,A,1217656948268000,7.9969707,-3.3338673,-3.180586,4.0831585,0.02130529,0.63383234
1641,A,1217656968364000,9.68067,-5.1708474,-2.2129982,6.8975873,2.3798008,-2.0026972
1641,A,1217656988541000,9.266331,-6.0498195,-2.4165747,7.5782914,1.7619474,-2.8218856
1641,A,1217657008637000,8.732242,-3.891907,-3.3578174,7.163903,0.49534798,-1.9781961
1641,A,1217657028816000,8.954978,-0.6849756,-4.1793094,7.7796264,-0.55606806,-1.4892397
1641,A,1217657048912000,8.854387,-0.16046631,-3.4895437,7.9607215,-0.67005134,-1.1877699
1641,A,1217657069105000,8.210127,-0.19160157,-1.3555812,7.914915,-0.221575,-0.5603291
1641,A,1217657089201000,6.449788,-0.1939966,0.51732427,8.356999,0.66579026,-0.6263755
1641,A,1217657109393000,4.82357,-0.8095166,1.0825489,8.299476,1.0045444,-0.94595486
1641,A,1217657129489000,4.416416,-2.1459377,-0.32332766,6.815562,2.231729,-0.98856544
1641,A,1217657149684000,4.2343946,-3.3673975,-0.60354495,5.349758,2.7569044,-1.3965617
1641,A,1217657169780000,3.6045046,-3.4895437,0.07664063,4.3388224,2.202967,-1.8855181
1641,A,1217657189972000,3.5015187,-2.411785,-0.6825806,3.08181,1.9419771,-2.6194854
1641,A,1217657210068000,4.600833,-1.8130299,-1.0777588,1.9089539,1.5030881,-2.4458473
1641,A,1217657230273000,6.356382,-1.9926564,-0.70174074,4.0149817,-1.4306501,-0.38136467
1641,A,1217657250369000,9.3309965,-1.7866846,-2.1674929,4.5337653,-1.1068097,0.33981937
1641,A,1217657270562000,15.694564,-2.076482,-2.699187,1.9132149,-1.6905746,-0.40373522
1641,A,1217657290658000,23.430477,-5.484595,9.398057,0.45699844,-1.7555559,-0.34621096
1641,A,1217657310857000,22.989794,-9.6615095,16.96632,-1.2857742,-0.23009712,0.08948222
1641,A,1217657330953000,13.783338,-8.5119,7.9969707,-1.627724,1.1025487,0.86392945
1641,A,1217657351146000,8.595725,-5.870193,4.6774735,-0.3355583,0.6135923,1.9355855
1641,A,1217657371242000,12.377461,-5.8677983,13.404925,-0.60933125,0.31638354,1.6000272
1641,A,1217657391436000,13.3618145,-5.017566,11.982284,-3.154248,2.751578,0.5006743
1641,A,1217657411532000,10.061478,-2.931504,3.896697,-5.8387146,2.8889973,-1.1568772
1641,A,1217657431728000,10.427916,-2.4213648,2.6345215,-7.6038575,1.3763217,-1.7033578
1641,A,1217657451824000,6.0402393,-5.743257,25.818312,-6.823019,-2.602441,-0.47830373
1641,A,1217657471984000,9.295072,-20.594774,30.761633,-3.7721014,-3.3843453,-0.6743124
1641,A,1217657492112000,7.1132083,-22.312002,0.21555176,5.970807,4.85441,-1.4359765
1641,A,1217657512272000,4.4523416,-11.1176815,-9.342972,6.502374,-1.091896,2.183792
1641,A,1217657532451000,7.3790555,-8.279583,-2.2561085,0.78296936,1.0183928,2.1230721
1641,A,1217657552556000,6.7300053,-13.98452,-0.21076173,-3.1127028,1.9675435,-0.014913702
1641,A,1217657572652000,10.873389,-18.448835,-1.2502003,-3.5739622,0.23648871,-0.3110572
1641,A,1217657592844000,13.974939,-14.377303,-4.1721244,-2.7121632,-3.4408042,0.628506
1641,A,1217657612940000,7.2521195,-8.962164,-9.369317,0.68389976,-2.98061,-0.025566347
1641,A,1217657633148000,0.06706055,-5.750442,-7.0269876,5.1793156,0.25672874,-0.5550028
1641,A,1217657653244000,0.17723145,-5.829478,-3.8775368,4.9492188,0.5070659,-0.34301516
1641,A,1217657673450000,1.6884888,-8.202942,-2.179468,4.680772,0.41545314,-0.79894835
1641,A,1217657693546000,1.7866846,-5.5492606,3.412903,3.738013,-0.05539375,-1.4008228
1641,A,1217657713730000,5.372029,-2.802173,6.325247,2.433064,0.813862,-1.7054884
1641,A,1217657733826000,11.215877,-2.411785,4.528982,0.8117315,1.2026836,-1.216532
1641,A,1217657754020000,15.318545,-1.8800904,4.7157936,-1.3507553,0.6103965,-0.77231675
1641,A,1217657774116000,18.065634,-0.9029224,3.642825,-1.6820526,-0.8341021,-0.37603834
1641,A,1217657794309000,18.410517,10.054293,-0.90771246,0.15446335,-1.6074841,-0.69987875
1641,A,1217657814405000,22.707182,1.8705103,-5.7696023,-1.4487597,0.76059884,-0.36218992
1641,A,1217657834596000,17.323177,-1.4130616,-1.2502003,-4.1982074,1.2857742,-0.07882957
1641,A,1217657854692000,18.156643,-2.1435425,0.26105714,-4.7596016,-1.3177321,0.2428803
1641,A,1217657874886000,16.477736,-3.415298,-2.3734643,-3.2053807,-2.6844664,0.37710363
1641,A,1217657894982000,13.232484,-2.7470875,-4.2248144,-1.9941751,-1.6831179,-0.013848438
1641,A,1217657915171000,10.212363,-1.7579445,-3.9493873,-0.80747044,-1.2538162,-0.020240024
1641,A,1217657935267000,6.6773148,-1.4394068,-2.1507277,-0.12463594,-1.2996227,0.21092236
1641,A,1217657955461000,4.4499464,-1.101709,-0.5364844,0.0031957934,-0.62744075,0.28229508
1641,A,1217657975557000,4.112249,-1.0418335,-1.4992822,-0.5432849,5.9750686,-0.20240025
1641,A,1217657995731000,5.8510327,-2.2561085,-5.158872,0.47191215,-0.18642128,0.11824436
1641,A,1217658015827000,6.4162574,-4.8044095,-9.493857,1.1664646,-1.9270633,0.054328486
1641,A,1217658036016000,9.319021,-2.7686427,-1.585503,-0.38136467,2.1891184,1.1472899
1641,A,1217658056112000,11.122471,3.63564,3.3673975,-0.011717909,3.4951327,1.623463
1641,A,1217658076317000,10.700948,4.91937,-0.09580079,2.0240026,1.4072144,2.0378509
1641,A,1217658096413000,6.4354177,1.7244141,-7.3646855,5.9207397,-4.4613276,1.9110844
1641,A,1217658116609000,5.2882032,-0.92208254,-9.793235,8.831042,-6.436328,-1.4029533
1641,A,1217658136705000,5.357659,-3.4344583,-10.588382,6.023005,3.4631748,-1.361408
1641,A,1217658156920000,5.4319043,-5.6450615,-10.928474,-0.49641323,4.173706,-0.3174488
1641,A,1217658177016000,5.609136,-7.446116,-9.524993,-1.8034927,-4.9172606,-0.6764429
1641,A,1217658197230000,7.0581226,-9.407638,-6.08814,-3.158509,-3.4024546,-0.58696073
1641,A,1217658217326000,12.001443,-10.612332,-1.4370118,-5.212339,0.8085357,-0.6327671
1641,A,1217658237513000,10.140513,-6.7707205,1.0609937,-6.081595,3.8381479,-0.42290998
1641,A,1217658257609000,8.765772,-4.9217653,2.2848487,-4.7766457,1.8876486,-0.011717909
1641,A,1217658277803000,10.938055,-4.679868,3.8511915,-2.5715485,0.5454154,-0.84155893
1641,A,1217658297899000,12.832515,-4.0571632,6.5120583,-2.908172,1.7630126,-1.8216022
1641,A,1217658318095000,15.771204,-4.28948,10.037527,-3.290602,0.9576728,-1.6767262
1641,A,1217658338191000,15.241905,-3.9637575,6.962322,-3.319364,-0.39095205,-1.0290455
1641,A,1217658358368000,12.81575,-2.3135889,-1.3388159,-3.706055,-1.4807175,-0.03089267
1641,A,1217658378464000,14.104271,-0.9867481,-5.1468973,-3.4940674,-3.1531827,0.5209143
1641,A,1217658398644000,16.760347,1.2334352,-12.446917,-1.216532,-6.3553677,-0.46978164
1641,A,1217658418740000,13.0241165,2.318379,-23.14068,-2.666357,-0.22796659,-1.5531555
1641,A,1217658438925000,9.630374,-4.4475513,52.599422,-10.599381,-1.107875,-1.4998924
1641,A,1217658459021000,5.158872,0.85741705,44.018066,-9.500029,-4.0618534,1.1984226
1641,A,1217658479215000,11.199112,3.3578174,15.680194,-1.103614,3.1052458,2.2828617
1641,A,1217658499311000,11.6876955,-4.1864944,12.353511,8.709602,2.2700787,1.3156016
1641,A,1217658519502000,11.848162,-8.818462,17.60579,13.03351,4.5827675,1.0823087
1641,A,1217658539598000,11.872112,-12.770245,3.9469924,10.920026,4.785168,2.815494
1641,A,1217658559792000,14.870677,-8.636441,-7.311995,10.15197,0.60720074,2.9539783
1641,A,1217658579888000,12.18586,-8.931028,-0.5340894,7.4131756,0.18961707,3.1084416
1641,A,1217658600080000,9.105865,-15.675404,1.8824854,3.9159122,1.2548815,3.170227
1641,A,1217658620176000,7.33355,-18.721869,-1.3052857,3.0700922,-0.6412892,3.4503915
1641,A,1217658640392000,4.1314087,-14.113851,-5.8127127,6.2371235,-5.768407,0.38242993
1641,A,1217658660488000,3.288362,-7.1227884,-4.9337406,3.7721014,1.5733956,-1.5211977
1641,A,1217658680681000,3.182981,-3.5542092,-3.0656252,-1.4583471,-0.28016454,-0.0628506
1641,A,1217658700777000,2.802173,-1.8681153,-2.7782228,-2.7387948,-4.7414923,0.018109497
1641,A,1217658720969000,3.1374757,-1.5328126,-2.0142114,-4.305799,-3.3140378,-0.5091964
1641,A,1217658741065000,4.8427296,-2.42376,-1.5399976,-5.374259,0.58909124,-0.039414786
1641,A,1217658761255000,6.3060865,-2.5914114,-1.6046631,-5.825931,3.5920718,-0.05006743
1641,A,1217658781351000,7.767049,-2.44771,-1.7004639,-5.0099387,1.7140105,-0.721184
1641,A,1217658801544000,12.525952,-3.5877395,-0.57719976,-4.893825,1.4594123,-1.3773869
1641,A,1217658821640000,21.057013,-4.663103,3.0752053,-4.624313,1.9643476,-1.6532904
1641,A,1217658841824000,32.404617,-7.3000197,9.398057,-4.363323,1.5904398,-1.5180018
1641,A,1217658861920000,25.327333,-2.804568,-1.5735279,-5.4882426,1.1259845,-1.2911005
1641,A,1217658882082000,15.843055,4.390071,-18.939816,-6.971091,-0.7137272,-1.5020229
1641,A,1217658902178000,13.972545,3.9182522,-10.221944,-5.5702677,-1.9057581,-2.408563
1641,A,1217658922366000,15.852635,2.9338992,-6.1575956,-3.9137816,-1.1611383,-2.0836573
1641,A,1217658942462000,11.6948805,5.489385,-1.2310401,-1.8599517,-2.1869879,-0.5368933
1641,A,1217658962669000,8.475974,5.108577,-3.2308815,2.3989756,-2.2466428,0.294013
1641,A,1217658982765000,9.582474,1.6765138,-6.253396,6.3106265,0.18216023,0.4282363
1641,A,1217659002971000,11.024276,-1.7459693,-4.033213,6.8070397,1.0844392,1.1994878
1641,A,1217659023067000,10.243499,-2.6393116,-2.4525,7.0350065,0.3888215,1.6948358
1641,A,1217659043267000,8.54543,-2.1315675,-3.1135256,7.615576,0.49747851,1.7065537
1641,A,1217659063363000,8.54064,-2.1531227,-2.7375073,7.5133104,0.98750013,1.4210628
1641,A,1217659083555000,8.629255,-1.951941,-1.0490186,6.4959826,1.506284,1.7726
1641,A,1217659103651000,7.316785,-3.300337,-2.4716604,4.359062,1.6873789,2.437325
1641,A,1217659123853000,6.2869267,-4.2439747,-4.521797,3.0115025,-0.096939065,2.7398603
1641,A,1217659143949000,3.9709425,-4.023633,-4.7972245,4.103399,-4.5529404,1.5968314
1641,A,1217659164142000,3.551814,-3.5709743,-2.2561085,5.0482883,-1.6682042,-0.6306366
1641,A,1217659184238000,5.8031325,-3.9733377,-2.0812721,0.51665324,1.2431636,-0.45806372
1641,A,1217659204432000,7.431746,-4.021238,-3.523074,-0.8681905,-3.1734228,-0.08735169
1641,A,1217659224528000,6.837781,-3.999683,-3.1614258,-2.8112328,-3.5920718,-0.18429075
1641,A,1217659244721000,4.6271777,-4.0882983,-1.839375,-4.7958207,-1.055677,-0.42184472
1641,A,1217659264817000,5.2977834,-4.24158,-0.5508545,-5.6054215,0.56672066,-0.036218993
1641,A,1217659284973000,6.356382,-3.439248,0.8669971,-3.5196338,0.77231675,0.81705785
1641,A,1217659305069000,6.7707205,-2.5818312,1.3076807,-0.2066613,0.21731395,0.48469532
1641,A,1217659325250000,8.164622,-2.2800586,1.0849439,0.24607609,0.5486112,-0.051132694
1641,A,1217659345346000,11.553575,-2.1339624,2.191443,-0.6135923,0.49960902,0.027696876
1641,A,1217659365510000,18.376986,-3.537444,5.4486694,-1.4253238,0.46978164,-0.068176925
1641,A,1217659385606000,21.9288,-4.6726832,4.89542,-2.1475732,-0.44208476,0.3472762
1641,A,1217659405798000,16.901653,-1.9830762,-3.9972878,-1.4231933,-3.7412088,0.55606806
1641,A,1217659425894000,15.620318,0.51971924,-5.3289185,0.6348976,-5.2581453,0.111852765
1641,A,1217659446095000,17.773441,1.214275,-4.2918754,1.969674,0.25992453,0.809601
1641,A,1217659466191000,16.262184,0.93405765,-4.993616,2.466087,2.401106,1.1899004
1641,A,1217659486384000,11.635005,1.6884888,-1.8585353,1.8013622,2.7569044,0.72970617
1641,A,1217659506480000,9.891431,1.0753639,-0.90052736,0.113983296,2.9262815,0.1917476
1641,A,1217659526707000,8.686736,0.6442603,-1.336421,0.9438243,-2.191249,-0.014913702
1641,A,1217659546803000,8.732242,0.74724615,-0.7592212,1.4263891,-1.2399678,-0.11824436
1641,A,1217659566994000,9.613608,1.0370435,-0.90771246,1.9718045,-0.4314321,-0.3121225
1641,A,1217659587090000,9.7142,1.0274634,-2.6249416,2.5289378,-0.33981937,-0.41864893
1641,A,1217659607283000,9.050779,0.7232959,-3.4919386,2.9060414,-0.19387813,-0.67963874
1641,A,1217659627379000,7.453301,0.46702883,-2.6776319,2.2817965,0.4910869,-0.60720074
1641,A,1217659647575000,5.8270826,0.2802173,-2.1219873,0.47191215,0.773382,-0.59122175
1641,A,1217659667671000,4.404441,0.364043,-1.9255958,-0.10226539,-0.42077947,-0.74461985
1641,A,1217659687863000,3.6116896,0.2921924,-2.3519094,-0.386691,-0.05752428,-0.82344943
1641,A,1217659707959000,3.7506008,0.23231691,-2.5027955,-0.7286409,0.58056915,-0.9044095
1641,A,1217659728152000,4.6822634,-0.05269043,-2.7590625,-1.397627,0.21092236,-0.9555422
1641,A,1217659748248000,5.9204884,-0.3544629,-2.699187,-1.7928401,-0.014913702,-1.1345067
1641,A,1217659768404000,7.6017923,-0.35925296,-2.4501052,-0.36325517,-1.1696603,-0.8628642
1641,A,1217659788500000,9.831555,-0.22752686,-3.4608033,1.0769824,-2.2168152,-0.72437984
1641,A,1217659808683000,11.920012,-0.41194338,-3.9901028,1.0972224,-2.146508,-0.31318775
1641,A,1217659828779000,12.590618,-0.41912845,-3.408113,1.252751,-1.7193369,0.41864893
1641,A,1217659848944000,12.851675,-0.68737066,-3.3673975,0.7488809,-0.62744075,0.2876214
1641,A,1217659869040000,14.01326,-1.465752,-3.6308498,-0.60293967,1.3699301,0.25992453
1641,A,1217659889234000,14.396463,-1.8968556,-3.9877076,-1.845038,2.2391858,0.58696073
1641,A,1217659909330000,14.736556,-2.179468,-3.8152664,-1.3518206,0.75633776,1.4775218
1641,A,1217659929559000,15.122154,-4.785249,1.2286451,-0.037284255,-0.39521313,1.5680692
1641,A,1217659949655000,13.900694,-3.04407,4.1146436,-2.4564998,1.8823223,0.41758367
1641,A,1217659969861000,15.208375,-1.6070582,-3.7601807,-5.082377,0.8724516,-0.44208476
1641,A,1217659989957000,14.240787,-2.6057813,-4.5553274,-5.634184,-1.2420983,0.25246766
1641,A,1217660010180000,9.627979,-2.1818628,-5.0534916,-3.2874062,-1.9057581,0.78296936
1641,A,1217660030276000,7.414981,-1.5735279,-5.6642213,0.2908172,-0.5486112,-0.080960095
1641,A,1217660050469000,7.2808595,-1.6262183,-3.9014869,2.815494,1.4977618,-0.21944448
1641,A,1217660070565000,7.3096,-1.7866846,-1.2286451,4.3814325,-0.76485986,-0.18216023
1641,A,1217660090759000,8.193362,-2.454895,-2.1243825,4.796886,0.31957933,-0.1917476
1641,A,1217660110855000,9.266331,-0.45505372,-3.3314724,1.929194,3.1606395,0.070307456
1641,A,1217660131051000,8.447234,1.5088624,-3.4919386,-3.5579834,4.556136,-0.029827405
1641,A,1217660151147000,6.758745,-0.8430469,-6.2869267,-4.0629187,0.9896307,0.056459017
1641,A,1217660171341000,6.4090724,-3.4871485,-9.239985,-0.27164245,-3.7071204,0.07456851
1641,A,1217660191437000,5.4678297,-3.767366,-7.9802055,4.2365565,-3.7976677,-1.2101405
1641,A,1217660211630000,5.101392,-4.5936475,-7.062913,3.669836,-1.0205233,-1.212271
1641,A,1217660231726000,6.205496,-6.332432,-8.959768,2.9379995,0.88843054,-0.8309063
1641,A,1217660251911000,8.150251,-7.434141,-7.862849,2.1688783,0.63383234,-1.0290455
1641,A,1217660272007000,9.5561285,-8.693921,-5.271438,0.39840892,-0.007456851,-1.2665994
1641,A,1217660292188000,7.92033,-7.8676395,-3.5877395,-2.4522388,1.7342505,-0.6018744
1641,A,1217660312284000,7.436536,-6.5719337,-2.4692652,-4.117247,-0.79042625,-0.5422196
1641,A,1217660332479000,8.480764,-5.49657,-0.6658155,-0.018109497,-5.53831,-0.08841695
1641,A,1217660352575000,9.383687,-4.5601172,1.5232325,1.0098706,-1.816276,-0.36751625
1641,A,1217660372770000,10.483001,-3.772156,4.1218286,-0.2034655,2.0250678,0.14274544
1641,A,1217660392866000,12.456497,-3.647615,7.5299416,-1.8599517,3.4738274,0.64341974
1641,A,1217660413100000,15.007193,-4.4427614,10.289004,-2.7387948,1.510545,0.5997439
1641,A,1217660433196000,16.346008,-5.3073635,7.726333,-0.51665324,-1.655421,1.0183928
1641,A,1217660453396000,15.404766,-4.4475513,0.9484278,0.12463594,-0.87777793,0.4101268
1641,A,1217660473492000,15.416741,-3.0823903,-1.9758912,-0.49428272,-0.37603834,0.48363006
1641,A,1217660493714000,16.736397,-1.7651294,-2.2537134,-1.2474247,-1.5499598,0.8863
1641,A,1217660513810000,17.759071,3.791316,2.703977,-1.6213325,-0.6743124,0.6317018
1641,A,1217660534002000,5.132527,13.833633,50.597183,-1.2293152,0.09374327,0.36432046
1641,A,1217660554098000,7.4916215,-7.4652762,-2.7686427,0.51665324,-0.60080916,0.040480047
1641,A,1217660574289000,9.295072,-3.908672,-10.485396,1.6873789,-0.30679616,-0.1736381
1641,A,1217660594385000,8.2125225,-3.0704153,-5.49178,1.8695391,0.8213189,-0.23329292
1641,A,1217660614579000,13.184583,-5.822293,-4.373306,1.3763217,1.8365159,0.07563378
1641,A,1217660634675000,13.553416,-5.7145166,-2.1387525,-1.171791,3.2415998,0.7637946
1641,A,1217660654910000,10.98835,-4.2367897,-2.1435425,-2.6056368,1.0354371,0.63915867
1641,A,1217660675006000,13.129498,-4.9529004,2.802173,-1.2101405,-2.107093,0.350472
1641,A,1217660695166000,11.790682,-4.9720607,-0.60594,1.4508902,-1.5638082,-0.33981937
1641,A,1217660715294000,8.459209,-3.151846,-5.249883,2.5236115,-0.6178534,-0.81066626
1641,A,1217660735454000,7.096443,-2.4692652,-4.5074267,2.4053671,-0.54435015,-1.0471549
1641,A,1217660755588000,5.989944,-2.9027638,-1.9399658,1.8279938,-0.535828,-0.91186637
1641,A,1217660775719000,6.133645,-3.7386258,-2.5962012,0.4282363,0.14274544,-1.0887003
1641,A,1217660795815000,6.7371902,-4.3349857,-4.4499464,-1.0279802,1.2261194,-1.0013486
1641,A,1217660816009000,5.4199295,-6.6821046,-9.172925,-2.3105586,2.143312,-0.4293016
1641,A,1217660836105000,4.3278003,-13.313914,-7.2664895,-1.5563514,-0.64341974,0.19600865
1641,A,1217660856297000,7.553892,-14.827566,17.220192,0.93849796,-1.5978967,0.13741912
1641,A,1217660876393000,11.000325,-5.367239,7.6041875,-0.027696876,0.3291667,0.13315806
1641,A,1217660896601000,8.976534,-1.3962965,-15.110179,-1.6618125,0.9395633,0.37923414
1641,A,1217660916697000,13.067227,-0.5484595,-5.8438478,-3.110572,1.8194717,0.34621096
1641,A,1217660936882000,16.204702,0.15088624,-2.0094216,-3.5281558,-0.041545313,0.350472
1641,A,1217660956978000,15.701749,1.2334352,-4.634363,-1.2154667,-4.4485445,0.6306366
1641,A,1217660977173000,15.488592,1.2765454,-2.8644435,1.3891048,-3.4173684,0.38562572
1641,A,1217660997269000,17.464483,0.26584718,-2.0190015,1.5030881,0.25246766,0.25885928
1641,A,1217661017424000,17.248932,-0.20357667,-1.7627344,-0.27164245,1.6298546,0.14168017
1641,A,1217661037520000,14.101875,-0.977168,-1.0178833,0.30253512,0.91186637,-0.36218992
1641,A,1217661057711000,9.910591,-1.5711329,0.46702883,2.2732744,2.9145637,-1.0897655
1641,A,1217661077807000,6.3970976,-2.8309133,0.8933423,3.2607746,-0.05006743,-0.46232477
1641,A,1217661098001000,5.1900077,-4.2080493,-1.4729371,3.08181,-1.514806,-0.6125271
1641,A,1217661118097000,7.2281694,-4.272715,-3.396138,2.743056,-0.38136467,-0.45593318
1641,A,1217661138278000,7.6161623,-2.311194,-2.435735,0.8628642,1.9835224,0.14487597
1641,A,1217661158374000,7.9897857,-1.5232325,-0.90771246,-2.621616,2.7814054,0.4346279
1641,A,1217661178526000,7.8844047,-1.4298267,-1.465752,-2.9933932,0.52837116,0.46658584
1641,A,1217661198622000,7.9778104,-1.6046631,-2.078877,-1.5691346,-1.2389026,0.37071204
1641,A,1217661218816000,7.683223,-1.9639161,-2.0285816,0.25246766,-1.3677995,0.004261058
1641,A,1217661238912000,7.4988065,-2.1219873,-1.587898,1.5904398,-1.171791,-0.49321744
1641,A,1217661259103000,7.913145,-2.074087,-1.1136842,1.8322549,-0.93849796,-0.7414241
1641,A,1217661279199000,7.9969707,-1.6789087,-0.9053174,1.3283848,-0.38029942,-0.6327671
1641,A,1217661299424000,8.487949,-1.8082398,-0.06945557,0.05752428,-0.54435015,-0.60933125
1641,A,1217661319520000,9.477093,-2.5866213,1.22625,-2.1688783,0.42397526,-0.34088463
1641,A,1217661339725000,10.102193,-3.300337,2.0142114,-4.909804,3.3545177,0.17150758
1641,A,1217661359821000,9.81,-2.5051906,2.8716285,-2.078331,-0.0063915867,0.18642128
1641,A,1217661380008000,9.513018,-0.87897223,2.059717,-1.4370418,0.4527374,-0.26525086
1641,A,1217661400104000,10.008787,-0.09340577,0.7879615,-3.0743532,1.6841831,-0.479369
1641,A,1217661420318000,10.763218,0.10538086,-0.014370117,-4.3303,1.1611383,-1.1387677
1641,A,1217661440414000,10.521321,0.81909674,-0.85023195,-5.1654673,-0.07882957,-0.97045594
1641,A,1217661460605000,10.406361,1.1759547,-1.4106666,-5.652293,-2.0527647,0.07989483
1641,A,1217661480701000,11.074571,1.4609619,-1.3220508,-5.2677326,-5.602226,0.27057716
1641,A,1217661500895000,12.312796,1.8369801,-1.9040406,-9.30615,-2.4586303,-0.19600865
1641,A,1217661520991000,14.121036,2.567461,3.0416749,-12.906744,0.11930962,-0.57311225
1641,A,1217661541185000,13.2420635,3.9661524,12.401412,-13.8281975,-2.0229373,1.1568772
1641,A,1217661561281000,13.167818,4.4619217,13.38816,-6.783604,0.6775082,2.847452
1641,A,1217661581476000,12.81575,3.420088,7.9778104,3.1989892,1.4359765,1.7331853
1641,A,1217661601572000,12.485237,0.28500733,2.3590944,7.9127846,1.180313,1.8375812
1641,A,1217661621750000,12.722344,-1.9136207,0.42152345,9.522399,2.2658174,2.118811
1641,A,1217661641846000,11.840977,-2.938689,-1.341211,11.043596,1.9835224,1.6703347
1641,A,1217661662029000,10.200389,-2.7686427,-1.477727,11.465442,1.9781961,1.7608821
1641,A,1217661682125000,10.825489,-3.0608351,-2.196233,10.080598,1.7619474,1.8109496
1641,A,1217661702318000,12.0110235,-3.908672,-3.2548318,8.718124,0.5049353,1.6905746
1641,A,1217661722414000,10.997931,-4.1960745,-3.8631666,7.0882697,0.40586576,2.130529
1641,A,1217661742606000,8.210127,-2.931504,-2.5267458,5.5202003,-0.15339808,2.9348035
1641,A,1217661762702000,6.9958525,-2.315984,-1.9064356,4.502873,-3.4972632,2.698315
1641,A,1217661782896000,6.4426026,-2.1818628,-2.8309133,4.6541405,-6.412892,-1.3741912
1641,A,1217661802992000,6.2869267,-2.4045997,-3.3673975,1.4370418,6.8901305,-1.160073
1641,A,1217661823228000,5.982759,-2.3590944,-3.6116896,1.8961707,3.6815538,-0.013848438
1641,A,1217661843324000,6.344407,-2.799778,-3.5039136,-1.0333065,-3.5750275,0.21944448
1641,A,1217661863512000,7.3000197,-2.8979738,-3.0871804,-3.8338869,-3.6762276,0.16298546
1641,A,1217661883608000,8.760982,-2.201023,-1.6908839,-3.9947417,-3.963849,0.6562029
1641,A,1217661903801000,10.36804,-2.4093897,-0.081430666,-2.194445,-3.9531963,1.2559468
1641,A,1217661923897000,11.086546,-2.9650342,0.5987549,-0.28336033,-2.492719,0.9736517
1641,A,1217661944088000,11.2374325,-3.803291,0.019160157,0.2428803,-0.17257284,0.7350325
1641,A,1217661964184000,12.054133,-4.485872,-0.8334668,-0.6135923,1.8375812,1.1653993
1641,A,1217661984376000,12.794195,-4.2080493,-0.72569096,-1.3081448,1.9142802,0.8948221
1641,A,1217662004472000,14.010865,-3.5206788,-0.4143384,-1.9483687,2.4778051,0.47830373
1641,A,1217662024665000,15.637083,-3.2739918,-0.9388477,0.35899413,1.9483687,0.56245965
1641,A,1217662044761000,16.645386,-3.1542408,-0.91250247,-1.5371766,0.49321744,0.69348717
1641,A,1217662064947000,15.8310795,-2.792593,0.7783814,-0.4612595,-0.05539375,0.21092236
1641,A,1217662085043000,12.228971,-4.517007,4.402046,1.2282499,-0.52411014,-0.6306366
1641,A,1217662105215000,11.704461,-3.9565725,-4.758904,1.5520903,-0.4878911,-0.29188246
1641,A,1217662125311000,6.720425,-1.1807446,-4.7972245,2.0932446,-1.5733956,-0.10652645
1641,A,1217662145473000,4.6128078,-1.4058765,-1.8944606,1.8578212,-1.5137408,-0.15339808
1641,A,1217662165569000,6.215076,-1.1711646,-1.2885206,1.0695255,-0.42397526,0.10013486
1641,A,1217662185760000,6.615044,-0.22273682,0.18681154,0.27377295,0.07350325,0.6348976
1641,A,1217662205856000,7.2928348,0.2945874,1.2166699,0.8213189,0.18002969,0.8159926
1641,A,1217662226047000,8.111932,0.2203418,0.847837,1.7033578,0.330232,0.53795856
1641,A,1217662246143000,8.0305,0.20118165,0.21076173,1.0365024,-0.12037488,-0.12144015
1641,A,1217662266351000,6.7898808,0.44547364,-0.58677983,-0.07456851,-0.10652645,-0.89588743
1641,A,1217662286447000,6.6198344,0.21315674,-0.5891748,-1.663943,0.7307714,-0.5368933
1641,A,1217662306677000,7.36708,0.043110352,0.9053174,-3.4770231,1.1781825,0.74781567
1641,A,1217662326773000,8.104747,0.20118165,2.7854078,-2.0048277,-0.5635249,0.07989483
1641,A,1217662346986000,8.612491,0.44786867,3.9877076,0.43356264,-2.5363946,-0.87351686
1641,A,1217662367082000,8.768167,0.8047266,3.5709743,1.1781825,-2.4788704,-1.2538162
1641,A,1217662387276000,9.718989,0.5963599,2.454895,1.0791129,-2.6439865,-1.2719258
1641,A,1217662407372000,10.904525,0.13651612,2.1028273,0.08735169,-2.018676,-0.27696875
1641,A,1217662427566000,11.718831,-0.17244141,0.8095166,-1.176052,-0.16724652,0.8000136
1641,A,1217662447662000,12.506792,1.0059083,-6.337222,-1.9899141,0.21944448,1.0354371
1641,A,1217662467855000,14.2623415,3.2668068,-10.483001,-1.8120148,-0.043675844,1.320928
1641,A,1217662487951000,11.302097,2.7686427,2.2608986,-0.9938917,-0.28442562,1.3667343
1641,A,1217662508143000,11.934382,2.0381618,3.175796,-0.31957933,2.7217507,0.69668293
1641,A,1217662528239000,11.697276,1.8968556,-0.16765137,-0.9981528,3.665575,0.515588
1641,A,1217662548429000,11.742782,0.80233157,-0.15567628,-2.356365,3.7230992,0.628506
1641,A,1217662568525000,15.78797,-1.2789404,2.1148024,-2.1209416,2.3148196,0.070307456
1641,A,1217662588718000,17.862057,-2.339934,0.51732427,1.4572818,-0.31957933,-0.7286409
1641,A,1217662608814000,15.804734,-2.0573218,-1.8968556,4.375041,-1.1941614,-1.3944311
1641,A,1217662628987000,13.390554,-1.8561403,-3.2117214,4.172641,-1.4647386,-0.99708754
1641,A,1217662649083000,11.996654,-2.4525,-1.9782863,1.6671388,-1.6341157,-0.51026165
1641,A,1217662669278000,11.587105,-3.5757644,-1.6334034,1.2378373,-3.0083067,-0.515588
1641,A,1217662689374000,11.666141,-4.29427,-1.9232007,2.2903185,-4.8767805,-0.8032094
1641,A,1217662709567000,11.867322,-5.7959476,-0.49576905,2.1081583,-3.3459957,-0.6178534
1641,A,1217662729663000,10.811119,-6.809041,0.6490503,1.1994878,-1.1494204,0.05539375
1641,A,1217662749869000,8.01613,-5.3408937,-0.70174074,0.18961707,1.9888487,0.2396845
1641,A,1217662769965000,6.4282327,-3.3458424,-0.977168,-1.3805827,8.267517,0.16618125
1641,A,1217662790182000,6.8042507,-0.117355965,24.795639,-1.365669,10.675015,0.082025364
1641,A,1217662810278000,4.634363,-0.7496411,18.525476,0.03195793,1.6138756,0.19068234
1641,A,1217662830471000,1.4250367,-0.87897223,-10.073453,0.21731395,-2.5406556,0.034088463
1641,A,1217662850567000,0.81909674,0.12693603,-8.040081,-0.40586576,-0.46871635,-0.5368933
1641,A,1217662870761000,1.710044,0.1939966,-5.609136,-0.58269966,-0.88203895,-0.67005134
1641,A,1217662890857000,2.3543043,0.30177248,-5.1636624,-3.9404132,1.6298546,-0.05539375
1641,A,1217662911049000,4.5744877,0.09340577,-5.1636624,-3.2298818,-0.18216023,-0.26418558
1641,A,1217662931145000,6.9000516,-0.19160157,-3.2620168,0.022370555,-1.0279802,-0.22370553
1641,A,1217662951339000,10.32014,-1.7483643,-1.3723463,-0.0628506,-2.702576,-0.3206446
1641,A,1217662971435000,12.779825,-3.0752053,-1.0538087,-0.49960902,-3.0807447,0.017044231
1641,A,1217662991612000,15.579602,-4.7972245,-0.26584718,-1.5563514,-0.5550028,0.793622
1641,A,1217663011708000,14.152171,-4.0356083,-0.92208254,-2.9422605,3.7710361,1.361408
1641,A,1217663031888000,12.432547,-2.550696,-1.7507594,-2.8581045,5.704491,0.91825795
1641,A,1217663051984000,13.43127,-2.4141798,-2.1650977,0.08522116,-0.5113269,0.37603834
1641,A,1217663072157000,14.57609,-2.7901978,-1.7435743,2.9561088,-1.4721955,0.1107875
1641,A,1217663092253000,15.251485,-3.5110989,-0.7041358,0.57311225,0.96939063,-0.3270362
1641,A,1217663112444000,13.055252,-3.887117,0.96040285,1.6714,0.5113269,-0.46232477
1641,A,1217663132540000,9.520203,-3.7003052,-2.7351124,3.2490566,-1.0301107,-0.04580637
1641,A,1217663152736000,7.917935,-2.9171338,-6.198311,2.010154,-1.2964269,0.2972088
1641,A,1217663172832000,7.812554,-1.2478052,-3.9350173,-0.10333065,-0.04261058,0.2609898
1641,A,1217663193024000,7.654483,-0.23231691,-0.859812,-1.0173275,0.37284255,0.48469532
1641,A,1217663213120000,9.857901,2.064507,7.685618,-0.38136467,0.406931,0.7819041
1641,A,1217663233268000,10.849439,3.5542092,6.11209,0.30146983,0.4708469,0.7819041
1641,A,1217663253364000,8.231683,-0.5029541,-6.2701616,-0.16085494,0.2545982,0.8277105
1641,A,1217663273572000,6.365962,0.45984375,-5.0654664,-1.1675298,-0.39947417,0.92038846
1641,A,1217663293668000,7.1275783,-0.22513184,-6.6485744,-0.95447695,-1.4072144,0.57417756
1641,A,1217663313847000,6.4426026,0.23231691,-7.3766603,-0.26312032,-1.4668691,0.21518342
1641,A,1217663333943000,5.118157,0.5364844,-7.6137676,-0.15233281,-0.9651296,-0.0479369
1641,A,1217663354117000,3.3290772,-0.07903565,-7.422166,-0.3749731,-0.7392935,-0.49960902
1641,A,1217663374213000,2.574646,-0.8310718,-8.459209,-0.8745821,-0.6402239,-0.7850999
1641,A,1217663394412000,2.4932153,-1.4801221,-10.214759,0.6924219,2.8868666,-0.813862
1641,A,1217663414508000,3.803291,-3.7050953,-9.350157,2.4735441,3.3214946,-1.0823087
1641,A,1217663434704000,7.553892,-6.6413894,-6.183941,0.74461985,-3.7124467,-1.9185413
1641,A,1217663454800000,11.57034,-7.8652444,-2.816543,-0.07563378,-2.1859226,-1.8098843
1641,A,1217663474978000,12.992982,-6.1599903,-1.3388159,0.44741106,-0.80533993,-0.79255676
1641,A,1217663495074000,10.676997,-3.4919386,-0.30895755,-0.03834952,-2.3339944,0.22370553
1641,A,1217663515268000,7.6353226,-2.064507,-0.28500733,-0.96299905,-0.71585774,1.6724652
1641,A,1217663535364000,8.471185,-1.8226099,-0.29937744,-1.8375812,3.419499,2.505502
1641,A,1217663555552000,12.140354,-2.3327491,0.50534916,-2.9944584,7.6081185,0.10759171
1641,A,1217663575648000,14.020445,-2.4525,1.1615845,-3.391802,0.12144015,-0.0010652645
1641,A,1217663595853000,13.622871,-2.0525317,-0.364043,-2.0474384,-3.3949978,0.628506
1641,A,1217663615949000,15.18203,-2.5171657,-2.9913795,-0.21198763,2.1252027,0.314253
1641,A,1217663636146000,18.992506,-3.7050953,-5.1157618,2.763296,2.731338,0.128897
1641,A,1217663656242000,18.685944,-3.1111305,-5.637876,6.3990436,-1.4764565,0.62317973
1641,A,1217663676436000,12.698394,-0.73527104,-3.7529957,6.7686906,-3.4450653,0.47617322
1641,A,1217663696532000,10.056687,-0.22273682,-2.0381618,4.375041,-1.1334413,0.09161274
1641,A,1217663716725000,9.18011,0.3065625,-1.2717555,2.4341292,0.08735169,-0.010652645
1641,A,1217663736821000,14.913787,2.4740553,4.869075,2.5662222,-0.15020229,-0.24074976
1641,A,1217663757012000,11.043435,5.120552,6.2989016,2.828277,0.14594123,-0.30040458
1641,A,1217663777108000,6.353987,0.8981324,1.7315992,1.7385116,1.1824435,-0.3834952
1641,A,1217663797347000,6.495293,-3.784131,0.9484278,-0.49747851,1.9547603,-0.36432046
1641,A,1217663817443000,7.8748245,-3.8080812,-1.5711329,-3.1574438,1.9100192,-0.0063915867
1641,A,1217663837635000,6.358777,-2.308799,-3.0752053,-5.1548147,-0.4889564,0.2247708
1641,A,1217663857731000,5.2666483,-1.9088306,-2.9937747,-5.07705,-1.2644689,-0.07350325
1641,A,1217663877972000,5.1804276,-1.6717237,-3.4368532,-4.3068643,-1.2623384,-0.58696073
1641,A,1217663898068000,5.9540186,-1.4968873,-3.1255007,-3.351322,-0.36432046,-0.9757822
1641,A,1217663918228000,7.082073,-1.4705421,-2.931504,-2.0602214,0.38456047,-1.0237192
1641,A,1217663938356000,8.346643,-1.9088306,-3.178191,-2.0474384,0.8724516,-0.5486112
1641,A,1217663958516000,9.026829,-2.6512868,-2.5291407,-3.0221553,1.7278589,0.10972224
1641,A,1217663978711000,9.012459,-2.6417067,-2.6297317,-2.5204158,0.77231675,-0.13848437
1641,A,1217663998803000,9.80521,-2.339934,-3.187771,-1.9398465,0.80107886,-1.091896
1641,A,1217664018899000,10.775193,-1.7818946,-3.532654,-2.6322684,0.7499462,-1.1100056
1641,A,1217664039064000,12.1307745,-1.5471827,-4.703819,-3.7241645,-0.55287224,-0.45699844
1641,A,1217664059160000,12.068504,-1.2310401,-4.3349857,-5.9558935,-0.99921805,-0.14274544
1641,A,1217664079351000,11.1104965,-0.8286768,-3.1470559,-6.1806645,-1.6873789,-0.7190535
1641,A,1217664099447000,11.254197,-0.8813672,-4.29427,-5.4797206,-0.22903186,-1.0365024
1641,A,1217664119661000,12.636124,-0.81191164,-5.216353,-5.186773,-0.46871635,-0.74248934
1641,A,1217664139757000,15.074254,-0.7232959,-6.090535,-2.1379857,-2.8261466,-0.008522116
1641,A,1217664159943000,17.224981,-0.7065308,-7.192244,5.446697,1.0684602,0.3834952
1641,A,1217664180039000,14.892232,-0.60594,-5.158872,8.321846,3.0999196,0.74675035
1641,A,1217664200254000,11.441009,-0.84065187,-1.6597486,7.4866786,2.5651567,1.2644689
1641,A,1217664220350000,9.18011,-1.1591895,-0.9580079,7.2640386,2.308428,0.76592517
1641,A,1217664240544000,7.589817,-1.8681153,-3.899092,5.988917,0.97471696,-0.1257012
1641,A,1217664260640000,6.67971,-1.585503,-4.5936475,3.9713058,1.401888,0.4463458
1641,A,1217664280845000,6.5407987,-2.0621119,-4.4523416,1.6415725,2.7590349,1.8216022
1641,A,1217664300941000,6.452183,-3.3458424,-3.8703518,0.18535602,0.5773733,2.3222766
1641,A,1217664321135000,7.359895,-3.68354,-3.2260914,0.22903186,-3.2980587,2.7963192
1641,A,1217664341231000,8.2125225,-2.3016138,-2.9458742,1.4242586,-7.9468727,1.0439591
1641,A,1217664361417000,7.927515,-1.707649,-2.7446926,3.5217643,-9.26567,-1.9345202
1641,A,1217664381513000,6.8425713,-2.327959,-4.2511597,2.3414512,2.7920582,0.28655612
1641,A,1217664401695000,5.391189,-2.2824538,-4.6654983,0.9502159,5.932458,0.4708469
1641,A,1217664421791000,4.7325587,-2.3950195,-4.2008643,-1.3805827,-0.9257148,-1.1494204
1641,A,1217664441976000,5.149292,-3.8128712,-5.240303,-3.3353431,-2.1997712,-0.5571333
1641,A,1217664462072000,5.7312818,-5.5157304,-5.247488,-3.9776974,1.7289242,0.22050974
1641,A,1217664482229000,7.192244,-7.1778736,-4.184099,-2.4064324,2.7260118,0.22903186
1641,A,1217664502325000,9.115445,-7.6305327,-1.9567311,-0.8223842,-0.9576728,-0.8000136
1641,A,1217664522519000,9.172925,-5.944439,-0.41912845,-2.347843,0.64341974,-1.6042882
1641,A,1217664542615000,7.903565,-3.0728102,0.21315674,-4.3239083,2.763296,-1.2367721
1641,A,1217664562808000,7.726333,-0.97956306,1.4010864,-3.690076,2.3158848,-0.644485
1641,A,1217664582904000,8.174202,-0.33530274,1.4178516,-1.7310548,0.33129725,-0.5954828
1641,A,1217664603122000,10.672208,-1.5112574,0.06945557,-1.9792614,-0.84581995,-0.21731395
1641,A,1217664623218000,12.533137,-1.9806812,0.45026368,-1.526524,-1.0396981,0.44208476
1641,A,1217664643444000,12.367882,-1.468147,0.40715334,-0.4111921,-1.3454291,0.9598033
1641,A,1217664663540000,12.839701,-0.9699829,-0.06227051,0.99708754,-2.1252027,0.9672601
1641,A,1217664683762000,13.287569,0.36883304,-4.152964,2.7973845,-2.308428,0.0628506
1641,A,1217664703858000,17.63453,0.25866213,-8.784932,4.2163167,-1.8397117,-0.8948221
1641,A,1217664724051000,17.902771,0.51013917,-6.8976564,5.1303134,-1.9313245,-1.1952267
1641,A,1217664744147000,14.920972,0.5987549,-3.647615,4.5934205,-1.3507553,-0.9289106
1641,A,1217664764338000,13.318705,0.46702883,-2.5363257,2.8751488,-0.6785734,-0.37710363
1641,A,1217664784434000,11.951148,0.81909674,-3.5613942,1.7012273,-0.43675843,0.05539375
1641,A,1217664804629000,10.468631,0.5676197,-3.1470559,2.159291,-0.041545313,0.22690132
1641,A,1217664824725000,7.9873905,0.15088624,-1.2070899,1.7022926,-0.26418558,0.61572284
1641,A,1217664844918000,6.1647806,-0.40954837,-0.9651929,0.95128113,-0.8362326,0.6860303
1641,A,1217664865014000,6.0833497,-0.45984375,-2.2369483,0.30040458,-1.627724,0.4293016
1641,A,1217664885176000,7.084468,-0.1939966,-3.5997145,-0.6945524,-1.5190672,-0.008522116
1641,A,1217664905272000,8.751402,-0.38320315,-2.919529,-1.1408982,1.0258497,-0.12250541
1641,A,1217664925422000,9.307046,-0.69216067,-2.3423293,0.36751625,1.8780613,0.3568636
1641,A,1217664945518000,8.863968,-0.68976563,-3.1255007,2.582201,-0.64768076,-0.922519
1641,A,1217664965708000,8.873548,-0.82388675,-3.6284547,3.137204,-1.8482338,-1.7630126
1641,A,1217664985804000,5.7696023,-0.06706055,-3.547024,0.6593987,-1.5499598,-1.3411679
1641,A,1217665005998000,3.4584084,0.06706055,-3.0129347,-1.707619,-2.0996363,-0.3930826
1641,A,1217665026094000,4.902605,-0.7927515,-5.345684,-1.9558256,-1.7204021,0.7222493
1641,A,1217665046298000,6.330037,-1.0801538,-6.109695,-1.5520903,-0.9086706,1.3848438
1641,A,1217665066394000,8.995694,-1.7220191,-4.967271,-1.6255935,0.08735169,1.3315805
1641,A,1217665086590000,10.111773,-2.3447242,-3.8823268,-1.5169365,1.0343717,1.9132149
1641,A,1217665106686000,10.008787,-2.9338992,-5.621111,-1.397627,3.448261,2.4426515
1641,A,1217665126910000,9.534574,-3.2284865,-5.740862,-2.2551649,4.9492188,2.2210765
1641,A,1217665147006000,9.230406,-3.2739918,-5.216353,-3.750796,4.4868937,1.4444987
1641,A,1217665167196000,10.461446,-3.2308815,-5.031936,-1.2250541,0.9267801,-0.0777643
1641,A,1217665187292000,12.0110235,-2.914739,-5.4175344,2.3009713,-3.303385,-1.1451592
1641,A,1217665207486000,14.06116,-2.574646,-5.4175344,4.201403,-4.667989,-1.9036276
1641,A,1217665227582000,16.853754,-2.1627028,-5.6833816,3.7412088,-2.4671526,-2.1560953
1641,A,1217665247776000,18.50871,-1.83219,-6.239026,2.1241374,-0.76059884,-0.99282646
1641,A,1217665267872000,17.830921,-1.9447559,-7.2281694,0.809601,-0.55606806,-0.4165184
1641,A,1217665288064000,12.439732,-1.9998415,-6.6581545,0.6530071,-1.0940266,-0.65194184
1641,A,1217665308160000,7.510782,-1.6070582,-5.592371,0.9406285,-1.1941614,-0.87564737
1641,A,1217665328323000,4.8571,-1.2693604,-5.5157304,1.4977618,-1.4402375,-1.0226538
1641,A,1217665348419000,3.9901028,-1.4130616,-4.991221,2.324407,-1.6575515,-1.0407634
1641,A,1217665368565000,4.9409256,-2.0309765,-4.160149,2.534264,-1.5744609,-0.65194184
1641,A,1217665388661000,6.840176,-3.276387,-4.2272096,1.1835088,0.17896444,-0.64768076
1641,A,1217665408848000,7.429351,-4.030818,-3.906277,-1.2825783,3.5590487,0.5368933
1641,A,1217665428944000,6.550379,-3.9972878,-3.7242556,-4.1193776,4.919391,2.1955101
1641,A,1217665449135000,5.503755,-3.7003052,-3.9134622,-4.14814,2.9390647,1.5712651
1641,A,1217665469231000,5.029541,-3.2236965,-3.8080812,-0.9150622,0.21198763,-0.1438107
1641,A,1217665489422000,5.48699,-3.0296998,-3.1470559,1.220793,-0.16618125,-1.2335763
1641,A,1217665509518000,6.0354495,-3.159031,-2.9602442,-0.8692558,-0.93849796,-1.4689997
1641,A,1217665529736000,6.600674,-3.4919386,-2.8261232,-2.5108283,-1.4434333,-0.6870956
1641,A,1217665549832000,7.719148,-3.9972878,-2.3327491,-2.441586,-0.17470337,0.36964676
1641,A,1217665570077000,9.544153,-4.636758,-1.6405884,-2.4053671,0.0628506,0.7126619
1641,A,1217665590173000,10.614727,-4.3445654,-1.1591895,-2.2817965,0.5858955,1.0769824
1641,A,1217665610365000,9.570498,-2.5387208,-0.7161109,-1.7747306,0.81066626,1.7097495
1641,A,1217665630461000,8.305928,-0.77359134,-0.7711963,-1.1089402,-0.013848438,2.0442424
1641,A,1217665650654000,9.017249,0.1341211,-2.3710694,-0.56672066,0.3536678,1.7278589
1641,A,1217665670750000,9.855506,0.64186525,-4.1984696,0.5635249,2.433064,1.28897
1641,A,1217665690944000,10.866204,0.5628296,-5.345684,1.4391723,3.5430696,0.314253
1641,A,1217665711040000,13.294754,0.18441652,-4.258345,3.238404,0.23755397,-0.71159667
1641,A,1217665731233000,16.235838,-0.026345216,-4.006868,4.8203216,-2.5193505,-1.4317155
1641,A,1217665751329000,18.834435,-0.016765138,-5.087022,4.599812,-3.0061762,-1.3102753
1641,A,1217665771516000,20.913311,-0.019160157,-6.133645,2.3180156,-2.3531692,-0.9257148
1641,A,1217665791612000,21.538412,-0.5963599,-6.303692,-0.30999196,-2.8836708,-0.4495416
1641,A,1217665811779000,18.099163,-0.92926764,-4.8307548,-0.36432046,-4.3814325,-0.25033715
1641,A,1217665831875000,14.02284,-1.3939015,-4.164939,1.1004182,-3.7316215,-0.53263223
1641,A,1217665852066000,-10.027947,-4.6750784,-49.457157,1.0535465,-1.0141318,-0.572047
1641,A,1217665872162000,6.2725563,-13.5869465,-23.698719,0.9012137,0.06924219,-0.070307456
1641,A,1217665892357000,7.688013,-14.772481,1.2981006,1.0620687,0.20240025,-0.024501082
1641,A,1217665912453000,10.408755,-10.739268,15.476617,0.7552725,1.2048141,-0.5571333
1641,A,1217665932646000,3.027305,-1.3028907,5.6642213,0.18109496,3.7476003,-0.5965481
1641,A,1217665952742000,8.576566,-1.3172607,2.5099807,-0.82557994,3.991546,0.8181231
1641,A,1217665972967000,8.087981,-2.2728736,-0.07664063,-2.1337247,2.2743397,1.0450244
1641,A,1217665993063000,4.9457154,-1.6214283,-1.4825171,-0.24820662,0.24501082,-0.05219796
1641,A,1217666013301000,4.2056546,-1.0250684,-1.4106666,1.4764565,-0.21624869,-1.2559468
1641,A,1217666033397000,4.5744877,-0.7831714,-0.9268726,-1.0801781,0.056459017,-1.3699301
1641,A,1217666053594000,5.094207,-0.7089258,-0.24668702,-2.5395904,-3.009372,-1.0002834
1641,A,1217666073690000,5.206773,-0.5939649,0.10777588,-2.4032366,-1.9611518,0.04261058
1641,A,1217666093881000,5.6522465,-0.99393314,0.87178713,-1.7044232,-1.9046929,1.0503508
1641,A,1217666113977000,5.6522465,-1.2813355,2.1459377,-1.6437031,-2.0921793,1.9046929
1641,A,1217666134170000,6.6461797,-1.8034497,2.0142114,-1.135572,-0.40373522,2.5928538
1641,A,1217666154266000,8.380174,-2.1171973,0.8430469,-0.7552725,3.4301515,2.9188247
1641,A,1217666174463000,10.542876,-2.2752686,0.4742139,-2.2349248,6.0890517,2.4160197
1641,A,1217666194559000,12.269686,-1.9255958,0.7041358,-2.6312032,5.454154,1.7736653
1641,A,1217666214751000,13.903089,-1.7962648,0.84544194,0.11611383,2.2892532,0.4527374
1641,A,1217666234847000,15.512542,-1.5735279,0.5748047,2.9422605,-1.8429075,-0.8607337
1641,A,1217666255040000,15.589183,-1.219065,1.2597803,4.1982074,-3.0722227,-1.5936357
1641,A,1217666275136000,16.607065,-1.6022681,1.8250049,4.41126,-4.1598577,-1.3731259
1641,A,1217666295310000,18.733843,-2.5530908,0.7879615,3.0232205,-3.8818238,-1.2495552
1641,A,1217666315406000,19.907404,-3.784131,-0.71371585,1.252751,-1.5456988,-0.9672601
1641,A,1217666335594000,18.741028,-4.6990285,-0.7759864,-1.4764565,0.3355583,0.27057716
1641,A,1217666355690000,14.475498,-4.517007,0.5508545,-4.367584,0.6498113,2.021872
1641,A,1217666375887000,11.817027,-4.423601,-0.57959473,-1.9004318,-0.6402239,2.038916
1641,A,1217666395983000,10.717712,-4.799619,-1.8130299,1.3198626,-1.9664782,0.8319715
1641,A,1217666416177000,10.073453,-4.7157936,-1.1903248,1.9515644,-1.5978967,-0.70200926
1641,A,1217666436273000,9.359736,-4.497847,2.560276,1.9089539,-0.14061491,-2.7206855
1641,A,1217666456494000,7.4844365,-9.057964,13.689932,2.0889835,2.6098979,-2.9582393
1641,A,1217666476590000,9.740545,-8.871153,-6.9072366,0.42397526,5.217665,1.0705907
1641,A,1217666496788000,7.7598634,-2.7806177,-7.5970025,-1.8066885,2.0026972,0.9576728
1641,A,1217666516884000,1.7938697,-0.06227051,-3.532654,-1.3646038,0.84581995,-0.2130529
1641,A,1217666537075000,0.8909473,0.974773,-1.8992506,-2.0676782,-2.4980452,-0.76912093
1641,A,1217666557171000,1.343606,0.8430469,-1.0681788,-0.93849796,-3.577158,0.18109496
1641,A,1217666577365000,2.1267774,-0.66342044,-1.5064673,0.054328486,-2.078331,0.61678815
1641,A,1217666597461000,3.6332448,-2.1171973,-2.459685,-0.22370553,-1.6266588,0.36645097
1641,A,1217666617653000,3.6284547,-2.6081765,-3.5637891,-0.3291667,-1.6980315,0.45699844
1641,A,1217666637749000,3.9541774,-3.0081446,-3.8296363,0.29188246,-1.3305153,0.52411014
1641,A,1217666657941000,4.485872,-3.0871804,-2.6896071,0.80533993,-0.34834146,0.53476274
1641,A,1217666678037000,5.513335,-3.056045,-1.7315992,0.65513766,1.8706044,0.35899413
1641,A,1217666698229000,7.424561,-3.2476466,-0.8933423,-0.02876214,3.3417346,0.13422333
1641,A,1217666718325000,9.83874,-3.527864,-0.6610254,-0.8724516,3.2394693,0.21518342
1641,A,1217666738511000,11.481724,-3.2045362,-2.074087,0.037284255,0.85327685,-0.36751625
1641,A,1217666758607000,11.699671,-2.074087,-3.3889527,1.4434333,-0.3888215,-1.7449032
1641,A,1217666778776000,15.076649,-2.6488917,-1.4729371,1.5456988,-1.6373115,-1.8865833
1641,A,1217666798872000,19.258352,-2.9674294,1.0322535,0.40586576,-2.47674,-0.7669904
1641,A,1217666819063000,23.495142,-2.5075855,-0.61552006,-1.5243934,-0.71479243,0.8277105
1641,A,1217666839159000,26.831406,-2.6536818,-0.49576905,-1.2463595,-0.25566345,0.49534798
1641,A,1217666859352000,22.996979,-1.6118482,0.95561284,-1.0471549,0.8085357,0.22690132
1641,A,1217666879448000,16.734003,-0.94603276,0.33530274,-0.05219796,0.7318367,0.23222765
1641,A,1217666899645000,12.583433,-0.7711963,-0.21315674,2.6599653,-1.5084145,-0.036218993
1641,A,1217666919741000,10.784774,-0.34727785,-0.5963599,2.466087,-2.171009,0.01917476
1641,A,1217666939949000,10.957214,-0.038320314,0.040715333,1.4956313,-1.2431636,-0.7350325
1641,A,1217666960045000,10.995535,0.4742139,0.6706055,0.330232,4.186489,-2.3350596
1641,A,1217666980248000,10.087823,0.76880133,0.34009278,0.5049353,6.3543024,-0.19281286
1641,A,1217667000344000,8.389753,0.5891748,-0.20597169,-0.55606806,1.7587516,1.3475596
1641,A,1217667020538000,5.949229,0.7232959,-0.22752686,-0.8852348,0.5550028,-0.34514567
1641,A,1217667040634000,4.399651,0.8334668,-0.19160157,-0.10439592,-2.4298682,-1.6809874
1641,A,1217667060826000,3.7458107,0.7232959,-0.18441652,0.5219796,-4.257862,-1.2357068
1641,A,1217667080922000,3.3362625,0.61552006,0.12693603,0.608266,-3.7252297,-0.21944448
1641,A,1217667101128000,3.0776002,0.7376661,0.07903565,-0.34834146,-2.4181504,0.37390783
1641,A,1217667121224000,3.6021094,0.5939649,-0.5748047,-1.5084145,-1.2197278,1.1217234
1641,A,1217667141384000,4.4619217,0.46942386,-1.0274634,-1.6831179,-0.89801794,1.7694043
1641,A,1217667161512000,6.080955,0.30177248,-0.60833496,-0.8319715,-0.4889564,1.8301244
1641,A,1217667181672000,8.952583,-0.21076173,0.016765138,0.07456851,2.6876621,1.4104102
1641,A,1217667201851000,11.108101,-0.38320315,0.45505372,0.28868666,6.4022393,0.7392935
1641,A,1217667221954000,11.670931,-0.100590825,0.4981641,-0.19600865,6.423545,0.28122982
1641,A,1217667242050000,13.112733,-0.06945557,-0.12693603,-0.58696073,1.7449032,-0.30466563
1641,A,1217667262245000,15.2922,-0.3520679,-1.4106666,0.44741106,2.247708,-0.6593987
1641,A,1217667282341000,15.004798,-0.050295413,-1.8106349,2.6003106,-0.2396845,-0.5837649
1641,A,1217667302529000,15.330521,-0.19160157,-1.4226416,2.606702,-2.3307986,-0.6348976
1641,A,1217667322625000,16.880098,-0.6945557,-1.3052857,0.572047,-0.34940675,-0.5411543
1641,A,1217667342819000,18.525476,-0.96758795,-2.454895,-0.63915867,0.29614353,-0.10972224
1641,A,1217667362915000,17.088465,-1.1951149,-3.0823903,-0.2396845,0.7840346,0.2790993
1641,A,1217667383115000,14.10906,-1.6357985,-3.1446607,0.111852765,0.7414241,0.36005938
1641,A,1217667403211000,12.061319,-2.0932472,-3.4368532,-0.051132694,0.89801794,0.28868666
1641,A,1217667423426000,11.464959,-2.327959,-3.9326222,-0.64555025,0.5816344,0.5603291
1641,A,1217667443522000,11.644586,-2.6129665,-2.9171338,-0.7520767,-1.0460896,0.5656554
1641,A,1217667463716000,11.996654,-3.3099172,-1.22625,-0.09267801,-1.1451592,0.4261058
1641,A,1217667483812000,11.876903,-4.1050634,-1.7148341,0.033023197,0.3536678,0.23009712
1641,A,1217667503997000,11.02188,-4.478687,-2.5195606,-0.13741912,-0.81705785,-0.040480047
1641,A,1217667524093000,9.280701,-4.679868,-2.924319,-0.4048005,-1.4689997,-0.4346279
1641,A,1217667544288000,7.6305327,-4.543352,-3.899092,-0.6530071,-0.10546118,-0.9150622
1641,A,1217667564384000,5.688172,-3.791316,-3.9278321,-0.7435546,1.3230585,-1.0887003
1641,A,1217667584574000,3.7266505,-3.2476466,-4.014053,-2.07407,2.9933932,-0.20240025
1641,A,1217667604670000,2.6608667,-2.675237,-3.288362,-2.4319987,-0.44101948,-0.1949434
1641,A,1217667624864000,1.7986598,-2.088457,-2.435735,0.08735169,-1.9196066,-0.36112466
1641,A,1217667644960000,0.91729254,-1.8800904,-2.5387208,-0.7978831,0.9416938,-0.17470337
1641,A,1217667665139000,0.9436377,-1.9687061,-2.9985645,-3.06157,2.1209416,0.08735169
1641,A,1217667685235000,2.4788454,-2.1603076,-2.069297,-3.697533,-0.64555025,0.40053943
1641,A,1217667705421000,3.8847218,-2.1315675,-0.7041358,-2.9017804,-1.9057581,0.9757822
1641,A,1217667725517000,5.841453,-2.3902297,-0.05269043,-2.2200112,0.6146576,0.5113269
1641,A,1217667745710000,10.693763,-3.4631984,0.2682422,-1.8759307,-0.64768076,0.44847634
1641,A,1217667765806000,15.979571,-3.8176613,-1.0322535,-0.88843054,-2.049569,0.7499462
1641,A,1217667785996000,17.802181,-1.5088624,-5.3169436,0.34621096,-0.89162636,0.24714136
1641,A,1217667806092000,18.537453,-0.6849756,-6.3779373,1.4508902,0.18855181,-0.3653857
1641,A,1217667826316000,19.129023,-1.4705421,-4.646338,2.8091023,-0.5603291,-0.9374327
1641,A,1217667846412000,21.591103,-1.6262183,-2.1100123,4.2844934,-0.60507023,-1.1749867
1641,A,1217667866618000,24.39088,-1.2334352,1.0873389,5.103682,-0.38775626,-1.0759171
1641,A,1217667886714000,21.93359,-0.28261232,2.4141798,4.812865,0.23648871,-0.82877576
1641,A,1217667906907000,16.161592,0.7664063,0.16286133,2.7441213,1.9387813,-0.33129725
1641,A,1217667927003000,11.862533,0.76401126,-1.9136207,-0.165116,2.1198764,0.043675844
1641,A,1217667947197000,9.038804,0.38559815,-1.1783496,-0.9864349,-0.058589544,0.221575
1641,A,1217667967293000,8.006551,0.047900394,0.14849122,-0.4495416,-1.4402375,0.2876214
1641,A,1217667987481000,8.265213,-0.06227051,1.2669654,0.24501082,-1.1100056,0.07137272
1641,A,1217668007577000,8.760982,0.102985844,0.8981324,0.23009712,2.0048277,0.113983296
1641,A,1217668027770000,8.5598,-0.06466553,-0.014370117,0.30786142,2.6290727,-0.36005938
1641,A,1217668047866000,7.2401443,-0.19878663,-0.74006104,0.1438107,-1.9483687,-1.0865698
1641,A,1217668068060000,5.9635987,-0.40954837,-0.8143067,-1.3603427,-2.0921793,-0.9033443
1641,A,1217668088156000,4.7062135,-0.5748047,-0.24668702,-3.8456047,2.6333337,0.08948222
1641,A,1217668108349000,3.7649708,-0.6586304,0.30895755,-4.0384173,1.582983,0.4079963
1641,A,1217668128445000,4.3086405,-0.974773,0.87178713,-1.6745957,1.845038,-0.21198763
1641,A,1217668148619000,4.785249,-1.104104,1.4034815,-2.7941887,1.1792477,-1.1259845
1641,A,1217668168715000,5.0774417,-1.3076807,1.8681153,-4.503938,0.49215218,-1.526524
1641,A,1217668188902000,5.8438478,-1.698069,2.1698878,-5.5649414,0.26312032,-0.922519
1641,A,1217668208998000,7.096443,-2.2393434,1.6645386,-7.5069184,0.39414784,-0.3749731
1641,A,1217668229191000,9.019644,-2.8261232,0.18681154,-7.866978,-1.2740563,-0.78296936
1641,A,1217668249287000,10.607542,-2.1746778,-0.36883304,-4.858671,-1.9409119,-1.9323897
1641,A,1217668269480000,12.408597,-1.3699512,-3.1542408,-2.2008364,-1.5606124,-0.72970617
1641,A,1217668289576000,11.623031,-2.0118165,-3.1949563,1.6213325,-1.861017,0.78083885
1641,A,1217668309779000,11.441009,-2.6776319,0.18681154,7.356716,0.86179894,0.30040458
1641,A,1217668329875000,13.673167,-3.2260914,0.4742139,9.008942,2.6727486,0.34408042
1641,A,1217668350078000,16.266973,-3.774551,0.035925295,7.048855,1.9281287,0.8000136
1641,A,1217668370174000,18.300344,-3.6236646,1.334026,6.4352627,1.0780476,0.47830373
1641,A,1217668390369000,20.719315,-3.6883302,0.855022,4.8480186,-0.21411815,-0.094808534
1641,A,1217668410465000,20.824696,-4.023633,-0.1939966,2.5001757,0.11611383,-0.008522116
1641,A,1217668430659000,16.796272,-4.181704,-1.1280543,-0.67963874,0.8926916,0.55287224
1641,A,1217668450755000,12.87802,-4.1721244,-1.8489552,-1.5233282,-0.73609775,1.3305153
1641,A,1217668470947000,10.212363,-4.761299,-2.304009,0.68176925,-4.8331046,1.2271847
1641,A,1217668491043000,9.716595,-4.737349,-0.80712163,3.9265647,-7.525028,-1.0588728
1641,A,1217668511231000,9.0148535,-4.495452,0.90052736,4.156662,-2.086853,-0.680704
1641,A,1217668531327000,8.382568,-3.3889527,-1.8010547,3.391802,5.0397663,0.12996227
1641,A,1217668551519000,8.52148,-1.84177,-4.7780643,2.5023062,4.0213733,-0.23755397
1641,A,1217668571615000,7.89638,-0.67539555,-4.1050634,-1.8684739,-2.5683527,-0.9534117
1641,A,1217668591793000,8.413704,1.343606,-6.706055,-4.910869,-1.6831179,0.10226539
1641,A,1217668611889000,9.867481,0.49337405,-5.831873,-3.5398738,3.165966,0.44101948
1641,A,1217668632061000,8.382568,-2.6201515,-0.87418216,-2.8868666,1.3901701,-0.6359629
1641,A,1217668652157000,6.0091043,-3.4871485,0.7161109,0.5837649,-0.9672601,-0.41225734
1641,A,1217668672352000,4.136199,-2.4740553,-0.2083667,0.9651296,-0.7520767,-0.71798825
1641,A,1217668692448000,3.391348,-1.7435743,-1.6286134,-0.7414241,1.5190672,-0.099069595
1641,A,1217668712645000,2.7470875,-1.2981006,-1.3747413,-3.1904671,1.9664782,0.588026
1641,A,1217668732741000,3.7098854,-1.9782863,-1.5974782,-3.899933,-2.8165593,0.49854377
1641,A,1217668752933000,5.2738333,-2.8931837,-3.6955154,-1.8301244,-3.5910065,0.3568636
1641,A,1217668773029000,5.8270826,-3.0656252,-4.3062453,-0.27803403,2.7675571,0.29933932
1641,A,1217668793247000,7.2185893,-2.7710378,-6.198311,0.57098174,0.7552725,0.6743124
1641,A,1217668813343000,10.559642,-4.3278003,-10.97877,2.4074976,-0.14061491,0.6625945
1641,A,1217668833547000,16.03226,-13.747413,-8.734636,3.5654402,4.144944,0.46871635
1641,A,1217668853643000,16.317268,-25.494984,7.5251517,4.446414,-1.0215886,0.8330368
1641,A,1217668873837000,16.025076,-25.918903,24.707022,4.788364,-2.755839,0.69668293
1641,A,1217668893933000,16.477736,-18.003363,29.77249,3.1766186,-0.9853696,0.0063915867
1641,A,1217668914129000,16.463366,-13.795313,19.325413,2.3691483,-0.10546118,-0.18535602
1641,A,1217668934225000,18.082397,-13.282779,11.438614,2.251969,-0.17044231,-0.16298546
1641,A,1217668954418000,14.264737,-9.881851,4.157754,-0.8319715,0.4495416,-0.05965481
1641,A,1217668974514000,12.77743,-6.1647806,-0.117355965,-3.435478,1.5126755,-0.257794
1641,A,1217668994704000,13.905484,-5.6498513,0.031135255,-3.2000544,1.1259845,-0.2396845
1641,A,1217669014800000,9.386082,-4.87626,6.332432,-1.9494339,0.57417756,-0.19920446
1641,A,1217669034981000,5.575606,-0.9244776,10.811119,-0.386691,0.18109496,-0.4708469
1641,A,1217669055077000,3.9757326,1.5088624,8.006551,1.2964269,-0.67005134,-1.0279802
1641,A,1217669075254000,2.411785,2.8213332,2.548301,1.8556907,-2.7579696,-0.6849651
1641,A,1217669095350000,8.310719,0.98195803,2.9338992,3.7721014,-5.8184743,-1.0450244
1641,A,1217669115542000,11.247012,0.42152345,4.157754,2.711098,-1.3241237,-1.1387677
1641,A,1217669135638000,7.194639,3.0991554,3.168611,-0.43675843,-2.2498386,-1.4210628
1641,A,1217669155832000,4.7062135,2.8524685,1.2454102,-0.56245965,-2.3414512,-0.12144015
1641,A,1217669175928000,3.8583767,1.9064356,-0.14130616,-0.50173956,0.35899413,0.27377295
1641,A,1217669196123000,2.7159522,1.83219,2.0453467,-1.3187973,-0.46658584,-0.59867865
1641,A,1217669216219000,2.2656887,1.5807129,2.8309133,-0.87777793,-0.15339808,-0.23222765
1641,A,1217669236411000,2.9482691,1.343606,2.4812403,-0.7637946,2.2040322,0.8681905
1641,A,1217669256507000,4.2056546,1.5687379,2.1100123,-1.7875137,2.347843,0.515588
1641,A,1217669276719000,6.461763,1.6046631,1.8513502,1.2239889,-2.3137543,-0.531567
1641,A,1217669296815000,9.79563,1.5591577,1.4825171,3.5739622,-0.97045594,-0.85540736
1641,A,1217669317008000,13.486356,1.9711012,-0.05508545,1.7417074,0.7840346,-0.531567
1641,A,1217669337104000,16.116087,2.5267458,-1.4513819,-0.039414786,3.6485307,0.02876214
1641,A,1217669357298000,16.851358,3.0943654,-1.5974782,-0.20985709,1.7033578,0.87990844
1641,A,1217669377394000,16.171173,3.923042,-0.6227051,0.26205507,0.8383631,0.92784536
1641,A,1217669397588000,15.783179,4.2439747,2.794988,-0.23542345,1.9728698,0.9395633
1641,A,1217669417684000,15.162869,4.4212065,1.698069,-0.93636745,1.5403724,1.2740563
1641,A,1217669437878000,13.6995125,6.9790874,-0.4023633,-1.1696603,0.58909124,1.0482203
1641,A,1217669457974000,12.509188,23.032904,4.9385304,-0.96619487,0.21837921,0.91186637
1641,A,1217669478167000,12.856465,16.50408,1.8705103,-0.9044095,0.5134575,0.9715212
1641,A,1217669498263000,8.825647,2.454895,-4.0763235,-1.0961571,0.59761333,0.757403
1641,A,1217669518437000,6.672525,1.7363893,-2.6488917,-0.9576728,-0.0479369,0.1470065
1641,A,1217669538533000,6.856941,2.3303542,0.62749517,-0.42290998,-0.97258645,-0.14487597
1641,A,1217669558726000,7.575447,1.719624,-0.1580713,-0.15233281,-0.8032094,-0.5486112
1641,A,1217669578822000,7.6281376,1.5998731,-1.2669654,-0.20026971,-1.1195929,-0.72970617
