Subject-Id,Activity Label,Time stamp,Accel_x,Accel_y,Accel_z,Gyro_x,Gyro_y,Gyro_z
1622,A,1149667895306713,-0.6001129,-11.327759,-0.8905182,-0.23912048,0.13145447,-0.22280884
1622,A,1149667945660717,-0.6441498,-9.664902,0.6855011,-0.061309814,0.09849548,-0.05696106
1622,A,1149667996014721,-0.84750366,-8.329437,0.65834045,-0.036468506,-0.42442322,0.113845825
1622,A,1149668046368725,-1.3360138,-9.412796,0.56059265,0.47117615,-0.63334656,0.3421631
1622,A,1149668096722729,-1.6815186,-10.6011505,0.6844635,1.2043457,-0.07495117,0.53718567
1622,A,1149668147076733,-2.71904,-8.379105,-0.8194275,1.4501038,0.5481415,0.7517853
1622,A,1149668197430737,-2.384903,-10.752136,-0.97184753,1.3555298,0.66918945,0.8176422
1622,A,1149668247784741,0.72106934,-12.287018,-0.11302185,1.5975189,-0.035568237,0.40620422
1622,A,1149668298138745,4.979141,-11.661819,1.808075,1.0905609,-0.70906067,0.12730408
1622,A,1149668348492748,3.245285,-11.7105255,1.7106323,0.56581116,-0.70425415,0.174057
1622,A,1149668398846752,-1.1282501,-12.443878,1.2296448,0.10420227,-0.6232605,0.23597717
1622,A,1149668449200756,-0.33232117,-9.183304,0.50753784,-0.5362854,-0.10385132,0.07246399
1622,A,1149668499554760,-0.6619873,-7.389084,1.582016,-1.3263092,0.25131226,-0.09906006
1622,A,1149668549908764,-1.1889648,-7.598343,2.5185242,-0.49528503,-0.19372559,-0.34228516
1622,A,1149668600262768,-0.3791809,-4.9888763,2.1971588,-0.071777344,0.45620728,0.27989197
1622,A,1149668650616772,-1.3321991,-5.754303,1.1732941,-0.30430603,0.604599,0.29478455
1622,A,1149668700970776,0.15856934,-6.441818,2.692627,-0.57128906,0.4023285,0.15322876
1622,A,1149668751324780,-2.099701,-12.8389435,6.2576904,-0.33613586,-0.0084991455,0.0801239
1622,A,1149668801678784,-0.1506958,-8.832199,5.157837,0.07823181,-0.05206299,-0.5578613
1622,A,1149668852032788,-0.6820221,-8.08461,2.9065552,-0.6185913,-0.4560547,-0.89675903
1622,A,1149668902386791,-0.7224884,-14.017014,0.07116699,-0.8036804,0.55870056,0.07305908
1622,A,1149668952740795,0.32203674,-10.938889,2.4907227,-0.8797455,0.48887634,-0.077804565
1622,A,1149669003094799,-0.3935089,-5.9125214,-4.5285187,-0.5460968,0.10369873,-0.7172699
1622,A,1149669053448803,-1.0793915,-12.157455,1.5176392,-0.44329834,0.1593628,-0.6804199
1622,A,1149669103802807,-1.0261536,-10.203751,0.9355316,-0.43023682,0.47250366,-0.40745544
1622,A,1149669154156811,-0.38755798,-8.152344,-0.777359,-0.07521057,0.3786621,-0.29042053
1622,A,1149669204510815,-1.1488953,-8.722107,1.2422485,0.085739136,0.17681885,0.022583008
1622,A,1149669254864819,-1.0947723,-7.862732,0.7788391,0.3710022,-0.5030365,0.5342102
1622,A,1149669305218823,-1.805542,-9.254272,1.2753448,1.2336426,-0.41249084,0.51815796
1622,A,1149669355572827,-2.6181946,-9.533783,0.32156372,1.6739502,0.4135437,0.94607544
1622,A,1149669405926831,-3.9155426,-9.425888,-0.4245758,1.0801697,0.7775421,0.8885193
1622,A,1149669456280834,-2.0682526,-12.2812805,-0.72520447,1.182724,-0.06259155,0.41906738
1622,A,1149669506634838,3.3409882,-12.123276,2.1784363,0.9640045,-0.78793335,0.052597046
1622,A,1149669556988842,4.848068,-11.568802,2.8530579,-0.02557373,-0.67840576,-0.042251587
1622,A,1149669607342846,-1.5731201,-13.87439,1.7175903,-0.7983093,-0.45692444,-0.1524353
1622,A,1149669657696850,-1.252655,-8.309906,1.0701447,-0.81451416,-0.018173218,-0.19474792
1622,A,1149669708050854,-0.035583496,-6.4875336,1.0113525,-0.94099426,0.13250732,-0.15939331
1622,A,1149669758404858,-0.26286316,-4.836838,2.2101898,-0.5904999,0.10775757,0.360672
1622,A,1149669808758862,-1.0097504,-4.5361023,2.433014,-0.046401978,0.428833,0.11503601
1622,A,1149669859112866,-0.8840027,-5.6282196,2.189972,-0.02671814,-0.22312927,-0.4216156
1622,A,1149669909466870,-0.33909607,-10.555405,3.4567719,-0.6486511,-0.31356812,-0.3032837
1622,A,1149669959820873,0.22149658,-10.533478,4.2133484,-0.61906433,-0.114746094,-0.47938538
1622,A,1149670010174877,1.5383148,-12.665207,0.07476807,-1.0150299,0.76260376,-0.04144287
1622,A,1149670060528881,-2.1023407,-12.832855,-0.41246033,-0.66963196,0.58203125,-0.44869995
1622,A,1149670110882885,-0.9473572,-9.393051,0.14027405,-0.37989807,0.7199402,-0.6604767
1622,A,1149670161236889,-0.047225952,-10.69873,0.28338623,-0.5873413,0.6472473,-0.6128845
1622,A,1149670211590893,-0.06846619,-9.306122,0.34251404,-0.46640015,0.40444946,-0.57803345
1622,A,1149670261944897,0.52378845,-8.392029,-0.025436401,-0.2848816,-0.028823853,-0.46598816
1622,A,1149670312298901,-0.9011383,-7.9809265,0.053497314,-0.08357239,-0.4790802,-0.2207489
1622,A,1149670362652905,-1.9996796,-8.051254,0.29595947,0.45428467,-0.5987091,0.22392273
1622,A,1149670413006909,-3.2230377,-9.384155,0.16404724,1.39151,-0.81689453,0.6746826
1622,A,1149670463360913,-4.061661,-9.99852,0.055130005,1.8403473,-0.57411194,0.9897766
1622,A,1149670513714916,-3.3714142,-10.4726715,0.3783722,1.5149384,0.03816223,1.1495209
1622,A,1149670564068920,-0.948349,-11.67984,-0.10525513,1.6697388,-0.6582489,1.1724854
1622,A,1149670614422924,2.576889,-12.359879,0.25138855,1.4252472,-1.8582458,0.4685974
1622,A,1149670664776928,4.154663,-13.762161,1.7973938,0.7054596,-1.7602997,0.014328003
1622,A,1149670715130932,0.85957336,-15.444916,1.2419434,0.08430481,-1.1097717,0.08433533
1622,A,1149670765484936,-0.7823639,-10.452286,-0.08782959,-0.6576233,-0.17466736,0.504303
1622,A,1149670815838940,0.76361084,-4.337967,-0.20780945,-0.57154846,0.023269653,0.71232605
1622,A,1149670866192944,0.2456665,-2.8160248,2.174179,0.21395874,-0.46594238,0.4393921
1622,A,1149670916546948,-0.9796753,-5.209091,2.490982,-0.096221924,0.33961487,0.27186584
1622,A,1149670966900952,-1.4116211,-8.429871,3.6139984,-0.774353,0.63209534,0.078567505
1622,A,1149671017254956,-0.1299591,-9.276779,6.839279,-0.85595703,-0.09210205,-0.5556488
1622,A,1149671067608959,0.8486328,-10.610016,6.4480133,-1.1345215,-0.21780396,-0.95040894
1622,A,1149671117962963,-0.37594604,-12.023758,3.165619,-0.87672424,-0.18600464,-0.90496826
1622,A,1149671168316967,-0.91560364,-9.171783,0.11756897,-0.9416809,-0.13201904,-0.5703125
1622,A,1149671218670971,-2.075882,-9.115707,-1.8408966,-1.0984802,-0.23110962,-0.42030334
1622,A,1149671269024975,-1.2761841,-8.939392,0.89079285,-0.7119446,-0.14697266,-0.51316833
1622,A,1149671319378979,0.3506012,-8.570511,2.2157288,-0.6312561,0.2982483,-0.4580841
1622,A,1149671369732983,-0.38414,-8.091965,-0.8108063,-0.4044037,0.2848053,-0.260437
1622,A,1149671420086987,-0.5498352,-8.141006,0.11212158,-0.0796051,-0.13780212,-0.03703308
1622,A,1149671470440991,-0.7806854,-8.963501,1.0827332,0.6241913,-0.6515503,0.46817017
1622,A,1149671520794995,-1.9743347,-9.218491,1.2084961,1.3865967,-0.062210083,0.90567017
1622,A,1149671571148998,-3.7787018,-9.195602,1.0429382,1.4052734,0.8321991,1.0475006
1622,A,1149671621503002,-3.9043732,-10.077332,-0.3323822,1.527298,0.6327057,1.2038422
1622,A,1149671671857006,0.46359253,-12.61174,-1.5659637,1.6626129,-0.4815216,0.7073059
1622,A,1149671722211010,6.3904114,-12.827011,1.6642456,1.0477753,-1.0134125,0.29216003
1622,A,1149671772565014,5.30101,-13.459106,2.8289795,0.63520813,-0.9830322,0.32073975
1622,A,1149671822919018,-0.38130188,-13.444122,2.049179,0.0690918,-0.6403656,0.38438416
1622,A,1149671873273022,0.17874146,-8.539932,-0.8500061,-0.8009186,-0.120285034,0.22398376
1622,A,1149671923627026,0.06643677,-3.933838,0.8157501,-1.237503,0.3710785,0.12136841
1622,A,1149671973981030,-1.40094,-3.8827057,2.8378754,-0.39076233,-0.09951782,-0.04270935
1622,A,1149672024335034,-0.77511597,-4.7442017,2.2361298,-0.3874817,-0.06541443,-0.28886414
1622,A,1149672074689038,-1.4203186,-5.2702026,3.0348206,-1.0727539,1.3215027,0.087249756
1622,A,1149672125043041,-1.9200134,-8.939331,5.030426,-0.8290558,0.60095215,0.3611908
1622,A,1149672175397045,-0.08880615,-10.361893,6.023712,0.093811035,-0.5169983,-1.0191803
1622,A,1149672225751049,0.08406067,-6.9530487,5.176407,-1.0735779,0.38941956,-1.6107635
1622,A,1149672276105053,-0.52853394,-15.819458,-5.959961,-1.7218628,0.58236694,0.0093688965
1622,A,1149672326459057,1.5204163,-8.752365,0.16703796,-0.58314514,0.1955719,-0.16348267
1622,A,1149672376813061,3.7249146,-1.3779907,-0.33824158,-0.5117798,0.84898376,-0.4494629
1622,A,1149672427167065,-3.183609,-15.08107,0.86839294,-0.5077667,0.78868103,-0.45010376
1622,A,1149672477521069,-1.6214905,-11.794022,-0.8348999,-0.33320618,0.5707855,-0.41693115
1622,A,1149672527875073,0.77485657,-7.886688,0.007949829,-0.29055786,0.11027527,-0.33233643
1622,A,1149672578229077,-0.3869934,-7.308014,0.44969177,-0.15153503,-0.048934937,-0.35972595
1622,A,1149672628583081,-2.1894073,-7.672806,0.6576538,0.66244507,-0.24032593,0.13414001
1622,A,1149672678937084,-2.8291626,-8.536209,0.68063354,1.7720032,-0.36802673,0.7149658
1622,A,1149672729291088,-3.0285034,-9.537094,0.80174255,1.8441162,0.10813904,1.0632019
1622,A,1149672779645092,-2.9718933,-10.444748,0.31573486,1.5892181,0.19969177,1.6062317
1622,A,1149672829999096,-0.32696533,-13.409363,-2.085785,1.58992,-1.5614777,0.82225037
1622,A,1149672880353100,4.8473206,-11.8684845,2.4778137,1.2657471,-1.0559998,0.28656006
1622,A,1149672930707104,4.0321655,-14.776611,1.2786865,0.6967163,-1.1511383,0.2679901
1622,A,1149672981061108,-1.7473602,-14.767075,2.1965332,-0.2967682,-1.3576508,0.19207764
1622,A,1149673031415112,-0.8634949,-6.84552,-0.6986084,-1.0455627,-0.3626709,0.19059753
1622,A,1149673081769116,-0.7809906,-4.6772766,2.6894379,-0.9804535,0.3700714,0.23112488
1622,A,1149673132123120,0.15545654,-4.2119446,2.1212158,0.039505005,-0.6706848,0.3372345
1622,A,1149673182477123,-0.8080139,-3.9957733,0.07752991,0.27053833,0.1593628,0.4378357
1622,A,1149673232831127,-1.7738495,-5.5730133,3.247818,-0.748291,1.2793579,0.46261597
1622,A,1149673283185131,-0.1738739,-10.9086,6.888672,-0.37608337,-0.84698486,-0.6588745
1622,A,1149673333539135,-0.68621826,-9.433792,7.1302032,-1.535614,0.5839844,-1.5740509
1622,A,1149673383893139,-2.2378387,-19.210724,1.9739838,-0.49647522,-0.25035095,-0.91252136
1622,A,1149673434247143,4.2176666,-6.7809143,3.4637299,-1.063034,-0.24794006,-0.2786255
1622,A,1149673484601147,0.07647705,-6.0599365,-2.3468018,-1.3421936,-0.2617798,-0.2741089
1622,A,1149673534955151,-1.6117554,-14.106369,-7.0047455,-0.63383484,-0.006668091,-0.64875793
1622,A,1149673585309155,-2.102768,-9.384506,3.4556732,-0.6322937,0.17907715,-0.59562683
1622,A,1149673635663159,-0.5713959,-8.405136,-2.8339539,-0.41011047,0.15875244,-0.31106567
1622,A,1149673686017163,0.39918518,-9.003052,2.1036224,-0.104400635,-0.5440674,-0.11114502
1622,A,1149673736371166,-0.37568665,-8.562912,1.0956879,0.29901123,-0.32810974,0.28775024
1622,A,1149673786725170,-2.666092,-9.163086,0.48208618,1.36763,-0.6522827,0.9959564
1622,A,1149673837079174,-4.652832,-9.230225,0.020477295,1.8799744,0.6629486,1.1003113
1622,A,1149673887433178,-2.7561646,-10.644272,-0.77308655,1.5912323,0.41796875,1.0927887
1622,A,1149673937787182,-0.090774536,-13.458023,-0.57901,1.749054,-0.019577026,0.8928833
1622,A,1149673988141186,4.2208557,-13.037445,-0.5087433,1.161087,-1.4089966,0.14524841
1622,A,1149674038495190,7.279175,-14.75589,1.5757751,0.548584,-1.2598419,0.006011963
1622,A,1149674088849194,-0.15167236,-15.097916,1.5939026,-0.14179993,-0.6529999,0.2133789
1622,A,1149674139203198,-0.06600952,-8.606796,0.16191101,-0.7223053,0.029312134,0.2576599
1622,A,1149674189557202,0.76478577,-3.6718292,-0.7661133,-1.0368195,0.6407623,0.39361572
1622,A,1149674239911206,-0.49497986,-2.9280243,3.0055847,-0.27513123,-0.09312439,0.2521515
1622,A,1149674290265209,-0.97094727,-4.0692444,2.6415558,0.25805664,0.3735199,0.09020996
1622,A,1149674340619213,-1.715744,-5.920761,2.5232544,-0.75305176,1.3097839,0.4200592
1622,A,1149674390973217,-0.614624,-9.819717,5.9029846,-0.36790466,0.18174744,-0.5984802
1622,A,1149674441327221,0.10166931,-11.665787,7.766159,-0.69021606,0.8558502,-1.6768951
1622,A,1149674491681225,-0.032318115,-16.181656,7.9228973,-0.7829895,1.0853424,-0.63923645
1622,A,1149674542035229,-2.9385986,-7.245392,0.0043945313,-1.0779724,0.48477173,-0.19273376
1622,A,1149674592389233,-0.2066803,-9.663376,-4.408264,-0.8949585,0.777298,-0.3538971
1622,A,1149674642743237,-1.3352661,-12.733505,-2.2036743,-0.3926239,0.65023804,-0.70695496
1622,A,1149674693097241,-1.54216,-8.827057,1.1014862,-0.37947083,0.41888428,-0.6560669
1622,A,1149674743451245,0.33744812,-7.6158447,-1.4427643,-0.33233643,0.17503357,-0.47935486
1622,A,1149674793805248,-0.88005066,-7.908386,1.2665863,-0.3018036,-0.06222534,-0.3795166
1622,A,1149674844159252,-1.6494141,-7.7368317,0.17521667,0.23812866,-0.33605957,0.029449463
1622,A,1149674894513256,-3.1976013,-8.465363,0.77760315,1.3551941,-0.53930664,0.7416229
1622,A,1149674944867260,-3.0682526,-9.214188,0.50720215,1.8793793,-0.19844055,0.9483948
1622,A,1149674995221264,-3.7151794,-10.914444,-0.28877258,1.5644989,0.26838684,1.1369019
1622,A,1149675045575268,-2.167923,-12.500793,-1.0561829,1.510315,-0.5335388,1.0722046
1622,A,1149675095929272,2.9691315,-13.34523,0.9300995,1.1868134,-1.421341,0.3981018
1622,A,1149675146283276,5.5261383,-14.111481,4.0596924,0.4816742,-1.1855774,0.15133667
1622,A,1149675196637280,0.30555725,-14.405258,1.7264862,-0.1368103,-1.1014862,-0.008575439
1622,A,1149675246991284,-1.1516724,-9.8137665,0.30336,-0.8802643,-0.40715027,0.06336975
1622,A,1149675297345288,0.68725586,-4.5522614,0.23875427,-1.0017853,0.022476196,0.38023376
1622,A,1149675347699291,-0.15182495,-3.217926,2.1957703,-0.027023315,-0.09492493,0.16131592
1622,A,1149675398053295,-1.0260925,-3.2208405,1.0341644,-0.0206604,1.2436066,0.08425903
1622,A,1149675448407299,-1.6105652,-5.5386505,2.2820435,-0.40164185,1.4568634,-0.04447937
1622,A,1149675498761303,0.29737854,-11.576157,5.920349,-0.4281006,0.33268738,-1.0381165
1622,A,1149675549115307,3.687622,-15.06488,8.669449,-1.2828522,1.022934,-1.2545776
1622,A,1149675599469311,1.3802795,-13.379028,2.8172607,-1.2891846,1.1076965,-0.55978394
1622,A,1149675649823315,-2.0753326,-10.272644,-3.9384613,-1.1555634,0.3828125,-0.3048401
1622,A,1149675700177319,0.8967285,-5.8799286,-0.21490479,-0.7287445,0.48565674,-0.57366943
1622,A,1149675750531323,0.42726135,-8.085144,4.9729767,-0.4969635,0.76275635,-0.60414124
1622,A,1149675800885327,-0.42329407,-8.402435,0.15068054,-0.40153503,0.6109619,-0.44621277
1622,A,1149675851239331,0.51423645,-6.7430573,-1.3021545,-0.17041016,0.06561279,-0.29490662
1622,A,1149675901593334,-0.20257568,-8.344208,1.4499359,-0.05090332,-0.26315308,-0.03807068
1622,A,1149675951947338,-1.6938324,-9.001114,1.1868896,0.7724304,-0.67456055,0.55615234
1622,A,1149676002302751,-3.1537476,-8.78653,0.6926575,1.8962555,-0.39767456,0.9486847
1622,A,1149676052656755,-4.1198883,-9.568268,-0.3199768,1.7666779,0.5342407,1.0676117
1622,A,1149676103010759,-2.5875854,-12.180756,-0.31355286,1.6035309,0.58036804,1.3380127
1622,A,1149676153364763,0.858963,-12.768372,-1.3864594,1.4449463,-1.071106,0.6794281
1622,A,1149676203718767,6.3935394,-13.787994,1.4227448,0.9887085,-1.501358,0.0034942627
1622,A,1149676254072771,3.091156,-15.678711,1.5943298,0.3899231,-0.96458435,-0.0061798096
1622,A,1149676304426775,-0.85076904,-12.880447,-0.15260315,-0.25076294,-0.57518005,0.15722656
1622,A,1149676354780779,-0.12734985,-5.906952,-0.97535706,-0.9669647,-0.13604736,0.32569885
1622,A,1149676405134782,0.27207947,-3.3226318,1.3139343,-0.80841064,-0.3138275,0.21661377
1622,A,1149676455488786,-0.5890045,-3.2919312,2.4750519,0.80085754,0.01802063,0.30581665
1622,A,1149676505842790,-1.1979828,-3.419983,1.2648468,-0.3277588,1.1877899,0.97532654
1622,A,1149676556196794,-0.7374878,-7.309616,3.7627716,-0.31201172,0.18626404,-0.18247986
1622,A,1149676606550798,0.146698,-11.282349,6.470169,-0.5705719,0.36442566,-1.3166351
1622,A,1149676656904802,-0.09320068,-17.503922,7.2553253,-0.9194641,1.1158295,-0.94773865
1622,A,1149676707258806,3.0075836,-7.9711304,1.3952942,-0.77708435,0.5571747,-0.53800964
1622,A,1149676757612810,0.3034973,-6.2188873,-2.07695,-1.3862305,0.08744812,-0.23553467
1622,A,1149676807966814,-3.527893,-14.4796295,-6.0500336,-0.733551,0.13069153,-0.6215973
1622,A,1149676858320818,-2.076477,-10.265411,3.5186615,-0.49761963,0.44969177,-0.69441223
1622,A,1149676908674822,-0.2738495,-6.4183655,-1.8306885,-0.31513977,0.52149963,-0.4562683
1622,A,1149676959028825,-0.12738037,-7.167389,2.0204315,-0.24671936,0.1879425,-0.15626526
1622,A,1149677009382829,-0.07229614,-7.9299774,0.6203308,-0.16333008,-0.21646118,-0.07852173
1622,A,1149677059736833,-1.722229,-8.976852,0.6950836,0.56703186,-0.7519531,0.45892334
1622,A,1149677110090837,-2.864746,-8.6539,0.47354126,1.6337891,-0.4504547,0.75527954
1622,A,1149677160444841,-4.8481293,-10.04306,0.12504578,1.5656738,0.2056427,0.9981842
1622,A,1149677210798845,-4.0761566,-10.5516815,0.5691986,1.5296936,0.26611328,1.6213379
1622,A,1149677261152849,-0.025680542,-13.623199,-2.087494,1.2814026,-1.0628815,0.5715637
1622,A,1149677311506853,5.4600525,-12.443771,3.1983948,0.8642731,-1.1492462,-0.003753662
1622,A,1149677361860857,4.723892,-14.558228,1.5705872,0.733963,-1.4373016,-0.10865784
1622,A,1149677412214861,-1.9268494,-14.121475,1.7005157,-0.45239258,-1.1621552,0.03189087
1622,A,1149677462568865,0.6535187,-5.266403,-1.9916382,-1.299408,0.25898743,0.28367615
1622,A,1149677512922868,-1.0597839,-2.9048157,1.8514404,-0.9102173,0.48529053,0.51878357
1622,A,1149677563276872,-0.80844116,-3.7991028,1.8045044,-0.06666565,-0.2543335,0.11756897
1622,A,1149677613630876,-0.85118103,-5.387039,0.7654114,0.17807007,1.1990051,0.38093567
1622,A,1149677663984880,-0.77993774,-8.401978,5.922943,-0.41506958,1.1832733,0.3826294
1622,A,1149677714338884,-0.391922,-13.113663,6.314377,-0.019851685,-0.57614136,-0.33312988
1622,A,1149677764692888,-1.0618439,-7.0133057,5.415283,-1.7020264,1.096405,-1.8365021
1622,A,1149677815046892,0.42118835,-19.311584,-3.6671143,-0.46528625,0.5991211,-0.50717163
1622,A,1149677865400896,2.7912292,-5.8013763,4.352417,-1.4928741,0.34106445,-0.16477966
1622,A,1149677915754900,-0.5816803,-5.5254364,-3.0139465,-0.77030945,0.2821045,-0.79019165
1622,A,1149677966108904,-0.5098572,-14.155624,-2.7725372,-0.41181946,0.37480164,-0.7989502
1622,A,1149678016462907,-4.590088,-9.95694,-1.4373627,-0.4022827,0.7772064,-0.4072113
1622,A,1149678066816911,1.5656433,-6.799423,1.3918304,-0.046661377,-0.02822876,-0.17980957
1622,A,1149678117170915,-1.9159393,-8.354721,1.3929596,0.033569336,-0.25021362,0.047912598
1622,A,1149678167524919,-1.3509827,-7.920578,0.90489197,0.6710968,-0.7994995,0.48660278
1622,A,1149678217878923,-3.860321,-9.334839,0.9477234,1.5781403,-0.8703308,0.70217896
1622,A,1149678268232927,-3.8675537,-10.153,0.5700226,1.443161,0.02319336,0.9597931
1622,A,1149678318586931,-3.7516327,-10.655563,1.2544403,1.2719421,0.07293701,1.2922516
1622,A,1149678368940935,1.0293732,-14.83223,-0.08488464,1.5505066,-1.0724182,0.3523407
1622,A,1149678419294939,5.0698395,-12.959625,2.9111176,0.5299835,-1.5175629,-0.15156555
1622,A,1149678469648943,4.393387,-15.619553,0.9367523,0.12062073,-0.9860077,-0.03237915
1622,A,1149678520002947,-3.6691895,-13.510239,0.38587952,-0.40727234,-0.38957214,0.07388306
1622,A,1149678570356950,1.2112122,-5.014099,-1.4907532,-1.015564,-0.12272644,0.38812256
1622,A,1149678620710954,-0.67126465,-2.7595673,1.4371033,-0.7098999,-0.09840393,0.36471558
1622,A,1149678671064958,-0.9184723,-2.9881897,3.1202698,-0.01890564,0.7582245,0.20857239
1622,A,1149678721418962,-1.530014,-4.22966,1.575119,-0.14768982,2.031311,0.30410767
1622,A,1149678771772966,-0.5328827,-8.251892,3.4508057,-0.11364746,0.29484558,-0.017547607
1622,A,1149678822126970,0.8754883,-13.617935,6.6688385,-1.2877808,-0.21942139,-1.1587982
1622,A,1149678872480974,2.438797,-11.042923,5.531067,-1.6441345,0.7548218,-1.0493774
1622,A,1149678922834978,3.5592346,-16.16449,-9.060242,-1.0866089,0.41246033,-0.031326294
1622,A,1149678973188982,-0.59928894,-6.2216797,-2.1907654,-1.2477722,0.1973877,-0.5057373
1622,A,1149679023542986,1.25737,-7.280487,0.80796814,-0.6348419,0.36636353,-0.7831116
1622,A,1149679073896990,-0.96139526,-13.960632,5.562027,-0.49839783,0.57728577,-0.588562
1622,A,1149679124250993,-0.5466156,-6.6638184,-1.3095245,-0.35690308,0.53811646,-0.2991333
1622,A,1149679174604997,-0.17042542,-8.034012,0.41186523,-0.17321777,-0.21282959,-0.22503662
1622,A,1149679224959001,-0.8967438,-8.077148,1.9041748,0.29626465,-0.5407257,0.14633179
1622,A,1149679275313005,-2.3815308,-8.740982,0.67607117,1.283371,-0.5626526,0.750412
1622,A,1149679325667009,-4.078293,-9.77095,0.75852966,1.8617706,0.16300964,1.1184998
1622,A,1149679376021013,-3.6277924,-12.01265,-0.50642395,1.6911316,0.82673645,0.9098053
1622,A,1149679426375017,-1.1791382,-14.078659,-0.30018616,1.6298523,-0.066970825,0.73890686
1622,A,1149679476729021,3.1116028,-13.316788,1.3820801,1.2393188,-1.0679932,0.532074
1622,A,1149679527083025,5.4862213,-13.599365,2.9750519,0.37963867,-1.3114319,0.31860352
1622,A,1149679577437029,0.6349182,-13.684662,0.7610016,-0.32914734,-1.217865,0.14294434
1622,A,1149679627791032,-1.3664551,-9.103897,-0.5703583,-0.7153015,-0.34384155,0.40255737
1622,A,1149679678145036,0.009994507,-3.5821686,-0.1842041,-0.9225464,-0.25706482,0.41278076
1622,A,1149679728499040,-0.35792542,-1.0760803,1.5456238,0.77349854,-0.9434204,0.016159058
1622,A,1149679778853044,-2.4294128,-3.1601868,2.0298615,0.7432251,0.30986023,0.4083557
1622,A,1149679829207048,-2.010849,-6.78891,2.7963715,-0.57621765,0.5440521,0.06311035
1622,A,1149679879561052,1.6190643,-9.267715,5.0065155,-0.95591736,0.35586548,-1.5271912
1622,A,1149679929915056,-2.951294,-13.563599,6.6661835,-1.5510712,0.91174316,-1.176712
1622,A,1149679980269060,-2.5482178,-11.808517,5.8303986,-0.7781372,0.75102234,-0.15722656
1622,A,1149680030623064,0.91400146,-5.3106537,-0.6259918,-0.9208679,0.55604553,-0.33363342
1622,A,1149680080977068,-1.9740753,-8.701599,-5.587036,-0.7571869,0.45036316,-0.5880127
1622,A,1149680131331072,-2.0539246,-10.7778015,-0.02128601,-0.58869934,0.55152893,-0.61279297
1622,A,1149680181685075,0.6566467,-6.220825,1.0904236,-0.5712433,0.36442566,-0.52911377
1622,A,1149680232039079,1.0601196,-5.951889,-1.9655151,-0.35386658,0.24057007,-0.49946594
1622,A,1149680282393083,-0.842453,-8.288727,-0.62345886,-0.011474609,0.1262207,-0.104660034
1622,A,1149680332747087,-1.749939,-8.596893,0.15570068,0.52871704,-0.16072083,0.4644928
1622,A,1149680383101091,-1.8754578,-9.969574,0.5032654,1.3738251,-0.5397339,0.8202667
1622,A,1149680433455095,-2.213272,-11.04953,0.53564453,1.8139496,-0.30723572,0.70651245
1622,A,1149680483809099,-3.0548248,-13.548767,-1.4243164,1.9658966,-0.65556335,0.96910095
1622,A,1149680534163103,-0.34254456,-14.279282,-0.059387207,1.5685425,-1.1192627,0.82554626
1622,A,1149680584517107,4.407028,-11.2730255,0.39804077,1.2525177,-0.70454407,0.34962463
1622,A,1149680634871111,1.933136,-11.055832,1.1965027,0.7555084,-0.69226074,-0.0021972656
1622,A,1149680685225115,0.37374878,-12.034912,0.34036255,-0.37358093,-0.77212524,-0.24105835
1622,A,1149680735579118,0.90838623,-8.202637,-0.22265625,-0.8094177,0.42396545,0.3075409
1622,A,1149680785933122,1.4895325,-4.352173,1.353714,-0.7308502,0.164505,0.84902954
1622,A,1149680836287126,0.54730225,-4.322998,1.2576294,0.6756439,-1.2360077,0.46333313
1622,A,1149680886641130,-1.8026428,-4.5790405,2.1240234,0.46800232,0.42504883,0.38568115
1622,A,1149680936995134,-3.179947,-6.4739227,4.4104767,-0.9000244,0.22741699,-0.35939026
1622,A,1149680987349138,-0.00541687,-10.364273,5.4215393,-1.1556396,0.21554565,-1.5050507
1622,A,1149681037703142,-1.6461334,-17.0616,4.452347,-0.9111023,0.5194092,-0.68922424
1622,A,1149681088057146,0.2652588,-10.322678,2.8468323,-0.6279907,0.50105286,-0.39698792
1622,A,1149681138411150,1.2724609,-5.7223816,-3.7732697,-1.4495392,0.2956543,-0.36669922
1622,A,1149681188765154,-2.2064056,-12.371262,-1.9879761,-0.6207428,-0.14533997,-0.665329
1622,A,1149681239119157,-1.8835754,-10.675095,2.0336456,-0.68141174,0.07473755,-0.5766449
1622,A,1149681289473161,-0.36557007,-6.8800507,-2.7821045,-0.3149414,0.14576721,-0.33044434
1622,A,1149681339827165,-1.067627,-8.22789,0.9545746,-0.19917297,-0.15135193,-0.14204407
1622,A,1149681390181169,-0.7685852,-8.805923,0.916214,0.06536865,0.057006836,0.1230011
1622,A,1149681440535173,-2.1768494,-9.494186,0.9315491,1.0359802,-0.31536865,0.76153564
1622,A,1149681490889177,-3.016739,-10.265488,0.677948,1.9587708,-0.4484558,0.92626953
1622,A,1149681541243181,-2.8065796,-10.41684,-0.031051636,1.6334076,-0.19692993,1.2920074
1622,A,1149681591597185,-2.6413422,-11.809326,-0.3963318,1.4890594,-0.4499359,1.399353
1622,A,1149681641951189,1.2848969,-13.666397,-0.7659149,1.168396,-0.8761444,0.14550781
1622,A,1149681692305193,4.9754333,-10.404556,2.6060333,0.8260498,-1.1011963,-0.004058838
1622,A,1149681742659197,0.1697998,-14.881393,1.4210663,-0.051437378,-1.3569489,-0.08729553
1622,A,1149681793013200,-0.6776428,-9.963547,-0.2846985,-1.1651306,-1.0038757,0.04046631
1622,A,1149681843367204,-0.37182617,-5.4263916,0.502182,-0.93325806,0.46159363,0.43867493
1622,A,1149681893721208,-0.266922,-4.955826,1.477768,-0.40997314,-0.8759918,0.54922485
1622,A,1149681944075212,-1.4910126,-3.9971924,0.35420227,1.3337708,-0.7668152,0.3497467
1622,A,1149681994429216,-1.8302765,-5.3209686,2.850998,-0.6024475,1.5311432,0.7125244
1622,A,1149682044783220,-0.9268799,-11.368942,4.8995514,-0.37329102,-0.12562561,-0.15968323
1622,A,1149682095137224,0.36036682,-9.042038,6.5622406,-1.2511444,1.16539,-2.207016
1622,A,1149682145491228,-1.131485,-19.283737,6.88002,-0.60743713,1.1308289,-0.6298523
1622,A,1149682195845232,-0.122924805,-5.7974396,4.811966,-1.1786652,0.6969757,-0.13710022
1622,A,1149682246199236,0.1230011,-6.9089966,-6.644989,-1.3971863,0.79055786,-0.38832092
1622,A,1149682296553240,-3.0665894,-15.479111,-5.3831635,-0.3634491,0.673584,-0.9393616
1622,A,1149682346907243,-2.4437408,-8.546387,0.043273926,-0.72229004,0.65483093,-0.6272125
1622,A,1149682397261247,0.79844666,-6.270874,-3.099121,-0.25715637,0.02029419,-0.13537598
1622,A,1149682447615251,-1.5809631,-9.337982,1.7550354,0.1708374,0.012023926,-0.1591034
1622,A,1149682497969255,-1.4120483,-9.243866,-0.8993988,0.63414,0.1628418,0.3652954
1622,A,1149682548323259,-4.117584,-9.440781,0.99754333,1.6314697,-0.7305908,1.0501251
1622,A,1149682598677263,-3.952362,-11.012161,0.53982544,1.9386139,-0.30030823,0.64582825
1622,A,1149682649031267,-2.365921,-11.662186,1.2154694,1.2875977,0.23310852,0.97824097
1622,A,1149682699385271,-1.3410034,-13.596207,-0.1361084,1.0790253,-0.39283752,1.1087189
1622,A,1149682749739275,2.1734772,-11.258514,-0.09588623,0.5806732,-1.6663971,0.38027954
1622,A,1149682800093279,5.0638275,-12.2426605,-1.5095673,0.17471313,-1.3959045,0.07589722
1622,A,1149682850447282,-4.7874603,-13.232361,0.25367737,-0.43190002,-0.745636,-0.09126282
1622,A,1149682900801286,0.42315674,-6.9943542,-0.065460205,-0.8083801,-0.114990234,0.22479248
1622,A,1149682951155290,0.65104675,-3.2161255,0.3653717,-0.21072388,-0.53408813,0.4508667
1622,A,1149683001509294,-0.2476654,-3.957718,1.7468262,-0.096725464,0.57614136,0.45321655
1622,A,1149683051863298,-1.2287445,-7.39447,1.7939758,-0.5552368,0.93833923,0.07777405
1622,A,1149683102217302,-1.9208527,-10.682541,3.5547638,-0.38261414,0.39335632,-0.19265747
1622,A,1149683152571306,-1.497345,-11.90213,6.727539,-0.84664917,-0.28256226,-1.1578217
1622,A,1149683202925310,0.853714,-8.604843,3.2420654,-1.2641449,0.3672943,-1.2183685
1622,A,1149683253279314,3.1471863,-16.33078,-6.864258,-1.3914337,0.6723938,0.14962769
1622,A,1149683303633318,0.50753784,-4.628525,-0.6659088,-1.0269318,0.36006165,-0.24073792
1622,A,1149683353987322,2.6592407,-3.5896149,-0.5289459,-0.47192383,0.687973,-0.71655273
1622,A,1149683404341325,-1.9089508,-14.328308,2.471878,-0.49954224,0.43641663,-0.62805176
1622,A,1149683454695329,-0.23826599,-8.260925,-2.2882385,-0.1812439,0.17189026,-0.21757507
1622,A,1149683505049333,0.12701416,-8.659393,1.7544556,0.2716217,0.2076416,0.18562317
1622,A,1149683555403337,-1.5544891,-8.635452,0.78182983,1.1727753,0.2555542,0.75393677
1622,A,1149683605757341,-3.662918,-8.967789,0.4049225,1.7563629,-0.012191772,0.8587036
1622,A,1149683656111345,-3.5048676,-10.442352,1.0615082,1.45578,0.0960083,0.8754883
1622,A,1149683706465349,-1.4786682,-11.925873,-0.116989136,1.2488708,-0.20684814,0.9060211
1622,A,1149683756819353,2.3986206,-13.475357,-1.0796814,0.9646454,-0.89949036,0.19264221
1622,A,1149683807173357,4.561249,-12.175659,1.2991638,0.35231018,-1.0344696,-0.047286987
1622,A,1149683857527361,-0.27383423,-13.799942,-0.16915894,-0.20552063,-0.5011902,-0.162323
1622,A,1149683907881365,-2.4298706,-10.752914,-0.8622894,-0.62086487,-0.027053833,0.04751587
1622,A,1149683958235368,1.058075,-4.2405396,0.29585266,-0.36860657,-0.2761078,0.46195984
1622,A,1149684008589372,0.012832642,-3.02211,1.9167633,0.6343384,0.14933777,0.4164276
1622,A,1149684058943376,-1.2207947,-5.043869,2.3824005,0.26617432,0.7675934,0.21861267
1622,A,1149684109297380,-0.73890686,-10.374054,4.048111,-0.5281677,0.02406311,0.06463623
1622,A,1149684159651384,-0.51039124,-10.664795,7.2406616,-0.7135773,-0.17581177,-1.1756439
1622,A,1149684210005388,-4.1921387,-11.765091,2.7185059,-0.78367615,0.57058716,-1.4542542
1622,A,1149684260359392,-5.088867,-15.167419,2.085205,-0.9263611,0.35742188,-0.30267334
1622,A,1149684310713396,-1.0068665,-8.046555,2.2072906,-1.1790314,-0.015991211,-0.32713318
1622,A,1149684361067400,0.031555176,-9.898926,-4.6597443,-0.6266937,0.2315979,-0.67430115
1622,A,1149684411421404,-1.764679,-11.204468,-3.3734283,-0.512558,0.39068604,-0.6598511
1622,A,1149684461775407,-0.7344055,-7.420059,-1.2392273,-0.27900696,0.018661499,-0.33596802
1622,A,1149684512129411,0.1662445,-8.115051,0.6521454,-0.0058288574,-0.14134216,-0.052108765
1622,A,1149684562483415,-1.0510864,-8.811722,0.88168335,0.45736694,-0.24752808,0.42425537
1622,A,1149684612837419,-2.45578,-9.314346,1.1723938,1.2064362,-0.4506836,0.69010925
1622,A,1149684663191423,-3.6967773,-10.965347,0.93270874,1.4436035,-0.44075012,0.60549927
1622,A,1149684713545427,-3.241562,-11.845612,0.20204163,1.2167053,0.07194519,0.73568726
1622,A,1149684763899431,-1.4584045,-12.52626,0.4270172,1.1066132,-0.42036438,0.7319946
1622,A,1149684814253435,2.4610138,-11.291138,0.86831665,0.7073364,-1.4225769,0.47251892
1622,A,1149684864607439,3.6483765,-11.643967,0.6142273,0.2263794,-1.2348175,0.27578735
1622,A,1149684914961443,-0.9558563,-12.79303,0.4333191,-0.40145874,-0.6783142,0.11099243
1622,A,1149684965315447,-0.73098755,-8.738876,-0.6945343,-0.83314514,-0.005783081,0.18231201
1622,A,1149685015669450,0.47210693,-4.4043274,0.13856506,-0.25195313,-0.17823792,0.5838318
1622,A,1149685066023454,-0.013931274,-4.551834,1.9787292,0.24731445,0.13897705,0.5599365
1622,A,1149685116377458,-0.66781616,-6.5005035,1.7716064,-0.6122284,0.59181213,-0.05117798
1622,A,1149685166731462,-1.2125092,-10.369339,3.7100677,-0.3587036,0.7865448,0.11387634
1622,A,1149685217085466,-1.559494,-10.445099,6.798172,-0.67411804,0.2659607,-0.4984436
1622,A,1149685267439470,-0.035186768,-6.5227203,4.5302277,-0.7597809,0.782959,-1.2564087
1622,A,1149685317793474,2.7443848,-11.9075775,-0.9648895,-1.3113403,0.82003784,-0.36746216
1622,A,1149685368147478,-0.12992859,-9.630768,-1.9481964,-1.190445,0.4274292,-0.24543762
1622,A,1149685418501482,3.0414581,-6.154434,-1.496048,-0.78770447,0.5857239,-0.68530273
1622,A,1149685468855486,-0.46247864,-9.584991,2.2129822,-0.7353363,0.4570465,-0.8665619
1622,A,1149685519209490,-0.16093445,-8.513855,-1.3755646,-0.31217957,0.20327759,-0.34407043
1622,A,1149685569563493,-0.6096344,-8.540649,-0.96255493,-0.040802002,0.13493347,-0.06840515
1622,A,1149685619917497,-0.8136749,-8.269348,1.0548401,0.5084381,0.26350403,0.3816223
1622,A,1149685670271501,-2.7707214,-8.820877,0.15515137,1.475174,0.028411865,0.8777008
1622,A,1149685720625505,-3.4036865,-10.788818,0.45918274,1.7498932,-0.3575287,0.6448059
1622,A,1149685770979509,-2.33313,-10.967209,1.5291443,1.4857025,-0.0027923584,0.67492676
1622,A,1149685821333513,-1.2491608,-13.801392,-1.450882,1.200531,-0.1429596,0.50354004
1622,A,1149685871687517,2.7247314,-11.329895,1.0571594,0.9167633,-1.0274658,0.21168518
1622,A,1149685922041521,5.2217255,-11.624512,-2.0955658,0.35021973,-0.9702301,0.124435425
1622,A,1149685972395525,-3.539856,-14.09346,-0.17996216,-0.58895874,-0.3318329,-0.050094604
1622,A,1149686022768292,-0.43345642,-8.023407,0.21594238,-0.6274719,0.03756714,-0.049346924
1622,A,1149686073122295,0.6991272,-5.011154,0.8709717,-0.12338257,-0.3420868,0.38694763
1622,A,1149686123476299,-0.45716858,-3.881958,1.7350616,0.082717896,0.0032653809,0.29431152
1622,A,1149686173830303,-1.6479797,-5.31781,1.6626434,-0.52212524,1.0520935,-0.38865662
1622,A,1149686224184307,-1.2141266,-9.576202,3.9309235,0.07356262,1.1399841,0.20765686
1622,A,1149686274538311,-0.38381958,-11.725983,6.5760193,-1.0579071,-0.15525818,-0.23565674
1622,A,1149686324892315,0.800766,-4.760727,5.233673,-1.1222229,0.6958008,-1.5941467
1622,A,1149686375246319,5.224289,-17.819672,-5.8545837,-1.1417694,0.8998108,-0.018356323
1622,A,1149686425600323,-0.5539093,-9.606796,-1.1493835,-1.5550995,0.41947937,-0.14457703
1622,A,1149686475954327,2.164322,-1.791214,-3.2864838,-0.4872284,0.41012573,-0.74993896
1622,A,1149686526308331,-1.0833435,-13.43718,5.1002197,-0.6298828,0.30455017,-0.78648376
1622,A,1149686576662335,-0.8668976,-7.467804,-2.4638062,-0.3945465,0.47927856,-0.24537659
1622,A,1149686627016338,0.16903687,-8.133881,-0.5928345,0.021713257,0.08190918,0.049438477
1622,A,1149686677370342,-1.4973145,-8.714859,2.09581,0.6018677,0.027709961,0.49279785
1622,A,1149686727724346,-2.0960083,-9.059906,0.2694397,1.6489258,-0.5140381,1.0623322
1622,A,1149686778078350,-3.8530731,-10.330307,0.5444946,1.7959137,-0.23939514,0.6170502
1622,A,1149686828432354,-2.9765625,-11.03627,1.2520599,1.2718506,0.29542542,0.6027374
1622,A,1149686878786358,-1.6556854,-13.559525,-0.89071655,1.2222595,-0.21224976,0.64894104
1622,A,1149686929140362,2.9560547,-12.190704,1.5654907,0.70462036,-1.1843109,0.21855164
1622,A,1149686979494366,6.833252,-12.038956,-0.5809326,-0.05180359,-1.118988,0.14668274
1622,A,1149687029848370,-4.0115204,-13.855484,1.8791962,-0.53460693,-0.5480957,0.0068511963
1622,A,1149687080202374,0.54203796,-7.0760193,0.42503357,-0.6119385,0.073638916,0.14579773
1622,A,1149687130556378,1.1838989,-4.44046,0.72714233,-0.21826172,-0.44482422,0.4270172
1622,A,1149687180910381,-0.6090698,-3.1790924,2.1979218,0.6932678,-0.2210846,0.22317505
1622,A,1149687231264385,-1.8979187,-5.301651,2.0291443,-0.48468018,0.9118805,-0.066223145
1622,A,1149687281618389,-1.7007294,-10.865692,3.34169,-0.118270874,0.6882782,-0.20281982
1622,A,1149687331972393,-0.044570923,-13.253601,7.2218323,-1.09758,0.025650024,-1.2285156
1622,A,1149687382326397,2.831833,-11.032211,6.544174,-0.81869507,0.42933655,-1.1365356
1622,A,1149687432680401,-0.40145874,-6.638199,-2.008255,-1.1457977,0.36616516,-0.014556885
1622,A,1149687483034405,-0.56469727,-8.159378,-3.1325226,-1.2232819,0.4337616,-0.23544312
1622,A,1149687533388409,3.0352325,-6.3056946,1.3106537,-0.4012909,0.3668213,-0.7545166
1622,A,1149687583742413,-1.941742,-10.935013,3.5813904,-0.48762512,0.31721497,-0.6421814
1622,A,1149687634096417,-0.7511444,-7.834488,-1.4390411,-0.26417542,0.25556946,-0.24395752
1622,A,1149687684450420,-0.21810913,-8.41571,1.3238068,-0.029022217,-0.073272705,-0.10522461
1622,A,1149687734804424,-1.1397247,-8.5924835,1.6959381,0.44517517,-0.16096497,0.32920837
1622,A,1149687785158428,-2.625183,-8.919342,0.44773865,1.3571625,-0.5704193,0.8250122
1622,A,1149687835512432,-3.0626984,-10.080841,0.44158936,1.7772064,-0.6320038,0.91249084
1622,A,1149687885866436,-1.8075256,-11.882874,0.20385742,1.276886,-0.007156372,0.80500793
1622,A,1149687936220440,-1.594223,-14.022614,0.27464294,1.0744934,-0.4342804,0.91542053
1622,A,1149687986574444,0.995636,-12.100891,1.3079071,0.87384033,-1.6407623,0.5676422
1622,A,1149688036928448,3.7780762,-11.813995,2.2286072,0.21757507,-1.5167542,0.23791504
1622,A,1149688087282452,-0.93200684,-12.481003,0.4157257,-0.32095337,-0.9672699,0.08061218
1622,A,1149688137636456,-1.7191467,-8.783813,-0.5913849,-0.5095062,-0.3575592,0.20204163
1622,A,1149688187990460,0.8354492,-4.2795105,0.34777832,-0.3462677,-0.30622864,0.42488098
1622,A,1149688238344463,0.18772888,-3.7298737,2.3263702,0.015029907,-0.4106903,0.35864258
1622,A,1149688288698467,-0.82865906,-5.7349243,2.1150665,-0.3399048,0.44081116,0.23947144
1622,A,1149688339052471,-0.99272156,-9.730698,3.1292725,-0.45986938,0.5247803,0.2796936
1622,A,1149688389406475,-0.2962799,-11.174347,6.138443,-0.31095886,-0.009719849,-0.051452637
1622,A,1149688439760479,-0.8627167,-6.849518,5.847931,-1.0715027,-0.09173584,-1.1597595
1622,A,1149688490114483,0.41331482,-11.510498,-0.66070557,-1.2901764,0.6501465,-0.87579346
1622,A,1149688540468487,1.5586548,-14.125458,-2.3303223,-1.2873993,0.49383545,0.04159546
1622,A,1149688590822491,1.0736694,-4.018738,-0.32626343,-1.129425,0.35714722,-0.3771515
1622,A,1149688641176495,0.62023926,-7.3598633,0.12968445,-0.6431122,0.39715576,-0.74450684
1622,A,1149688691530499,-1.0638275,-12.351517,1.4382935,-0.54681396,0.47158813,-0.5384979
1622,A,1149688741884503,-0.596405,-8.32402,-0.9986572,-0.3300476,0.15931702,-0.2308197
1622,A,1149688792238506,-0.32725525,-8.328964,1.4603577,-0.0038146973,-0.12376404,-0.0077667236
1622,A,1149688842592510,-1.3624725,-8.656097,1.1148834,0.69940186,-0.37078857,0.57618713
1622,A,1149688892946514,-3.0121918,-9.262482,0.631958,1.6282806,-0.41026306,0.8681183
1622,A,1149688943300518,-3.86792,-10.486496,0.8444824,1.4866333,-0.043029785,0.6178436
1622,A,1149688993654522,-3.005844,-13.0048065,0.39642334,1.0786285,0.42797852,0.81925964
1622,A,1149689044008526,-0.6923065,-13.8519745,0.78829956,1.0566406,-0.45585632,0.75076294
1622,A,1149689094362530,4.751236,-11.813217,2.2791443,0.52168274,-1.4099731,0.30525208
1622,A,1149689144716534,3.5110931,-11.664352,1.8174744,-0.16090393,-1.2002869,0.09706116
1622,A,1149689195070538,-1.7107086,-11.516464,0.6166229,-0.5201721,-0.7011566,-0.0033874512
1622,A,1149689245424542,0.005706787,-7.4690094,-0.47917175,-0.55033875,-0.122802734,0.35665894
1622,A,1149689295778545,0.5602722,-3.8658905,0.9065552,0.024307251,-0.39768982,0.65663147
1622,A,1149689346132549,-0.5259247,-3.7403107,1.9690704,0.68814087,-0.15196228,0.33544922
1622,A,1149689396486553,-1.2763367,-7.2139435,2.7474213,-0.06770325,0.7035217,5.340576E-4
1622,A,1149689446840557,-0.5595856,-12.985077,4.2172546,-0.49961853,0.33454895,-1.5258789E-4
1622,A,1149689497194561,-0.39189148,-9.494049,6.6562195,-0.92071533,0.5520325,-1.2715302
1622,A,1149689547548565,-2.4070282,-14.986389,2.9251099,-0.48104858,0.76652527,-1.1098785
1622,A,1149689597902569,-1.138382,-11.786636,3.7215576,-1.213501,0.57839966,-0.13676453
1622,A,1149689648256573,0.17816162,-7.2722473,-0.3305359,-1.1791534,0.21006775,-0.3217926
1622,A,1149689698610577,0.5592804,-10.074966,-4.1628113,-0.5462494,0.19981384,-0.76364136
1622,A,1149689748964581,-2.880005,-10.86174,-1.1340637,-0.6175537,0.37356567,-0.662796
1622,A,1149689799318585,-0.58958435,-7.8191223,-1.2535858,-0.32843018,0.028167725,-0.29631042
1622,A,1149689849672588,-0.8114166,-8.186264,0.25286865,-0.11564636,0.042037964,-0.20996094
1622,A,1149689900026592,-0.7355957,-8.877869,0.42555237,0.3540039,0.0013427734,0.17985535
1622,A,1149689950380596,-2.6827393,-9.319458,1.1559296,1.1589813,-0.48628235,0.69525146
1622,A,1149690000734600,-2.9641113,-10.79454,0.56199646,1.8734741,-0.58255005,0.7700043
1622,A,1149690051088604,-2.5677032,-10.915558,0.96546936,1.2702332,0.41778564,0.65031433
1622,A,1149690101442608,-2.6238098,-12.5112,-1.0864258,1.2328644,0.09213257,0.8937378
1622,A,1149690151796612,1.1430664,-10.828629,-0.13893127,1.000534,-1.5079956,0.3937683
1622,A,1149690202150616,6.835251,-11.725952,-0.24481201,0.4649353,-1.436966,0.20162964
1622,A,1149690252504620,-0.79016113,-12.91246,0.94085693,-0.3063202,-1.1372986,0.18988037
1622,A,1149690302858624,-0.8184509,-8.820755,-0.14468384,-0.8239441,-0.28848267,0.16905212
1622,A,1149690353212628,0.73387146,-4.6718597,-0.43356323,-0.57733154,0.069366455,0.49430847
1622,A,1149690403566631,-0.15029907,-4.016327,1.9412231,0.23410034,-0.47296143,0.5815582
1622,A,1149690453920635,-0.23921204,-5.1185913,1.8543243,0.87046814,0.5990906,0.06956482
1622,A,1149690504274639,-1.0188141,-8.309753,3.1036835,-0.7988281,1.1049652,-0.1466217
1622,A,1149690554628643,1.1982117,-14.368881,5.5545654,-0.16989136,0.52305603,0.20689392
1622,A,1149690604982647,-0.49879456,-6.5831757,7.062317,-1.092514,0.9544525,-1.8055878
1622,A,1149690655336651,-2.300705,-18.253433,0.22181702,-0.21739197,1.276062,-0.8724823
1622,A,1149690705690655,-1.6347198,-9.923111,5.723068,-1.5266113,0.464386,-0.17939758
1622,A,1149690756044659,-0.28825378,-6.6293945,-3.8221893,-1.0270691,0.6722717,-0.35643005
1622,A,1149690806398663,0.5262604,-13.10849,-4.842697,-0.3439026,0.68400574,-0.8111725
1622,A,1149690856752667,-3.637085,-8.71463,-1.9638977,-0.52485657,0.62127686,-0.5361023
1622,A,1149690907106670,0.94314575,-7.646866,-1.0659485,-0.16772461,-0.0036773682,-0.19256592
1622,A,1149690957460674,-2.0415497,-9.246063,1.969696,0.08287048,0.17225647,0.07644653
1622,A,1149691007814678,-1.8489838,-8.889267,-0.66204834,0.99334717,-0.035568237,0.8069153
1622,A,1149691058168682,-4.025055,-9.187302,2.1184998,1.9690094,-0.38053894,1.1443024
1622,A,1149691108522686,-3.4218597,-11.847473,0.38735962,1.2091827,-0.70895386,0.4039154
1622,A,1149691158876690,-2.690216,-11.446182,1.3817291,1.2129669,0.59124756,0.9359741
1622,A,1149691209230694,-0.91934204,-12.237656,-1.7622681,1.1524811,-1.0453033,0.48080444
1622,A,1149691259584698,5.8187256,-10.717773,4.2542267,0.30766296,-1.4830322,0.0118255615
1622,A,1149691309938702,2.9629364,-14.220474,1.2936401,-0.35081482,-0.85621643,-0.017242432
1622,A,1149691360292706,-5.014633,-11.778168,0.12243652,-0.6480408,-0.2507019,-0.04916382
1622,A,1149691410646710,1.8763885,-5.0488434,-0.73158264,-0.62005615,0.20419312,0.22358704
1622,A,1149691461000713,-0.13615417,-3.0572968,2.0617828,0.012069702,-0.23841858,0.30262756
1622,A,1149691511354717,-1.4683075,-3.8883972,2.5231476,0.33032227,0.7314453,0.051727295
1622,A,1149691561708721,-1.6871948,-7.321289,2.3740997,-0.5701294,0.6472473,-0.42755127
1622,A,1149691612062725,0.1734314,-12.490707,5.127243,-0.21264648,0.47846985,0.19619751
1622,A,1149691662416729,0.7086029,-7.6553497,6.421341,-0.9571686,0.54115295,-1.2489471
1622,A,1149691712770733,5.005554,-10.674957,6.734085,-0.8905487,1.3689117,-0.77786255
1622,A,1149691763124737,-3.0168762,-14.3216095,3.7478485,-1.0678558,0.8369446,-0.26309204
1622,A,1149691813478741,-0.081710815,-6.612137,-2.3153076,-0.6119385,0.40516663,-0.80259705
1622,A,1149691863832745,5.5975037,-6.887039,1.7027588,-0.27391052,0.87283325,-0.6354065
1622,A,1149691914186749,-5.153137,-11.614044,1.7124329,-0.3338318,0.66596985,-0.33140564
1622,A,1149691964540753,1.0602722,-6.953018,-2.306488,-0.19285583,0.08010864,-0.16177368
1622,A,1149692014894756,-1.3995209,-8.302582,0.94062805,-0.21754456,-0.093048096,-0.093429565
1622,A,1149692065248760,-1.0845184,-7.889221,0.5993347,0.51971436,-0.3085327,0.2939453
1622,A,1149692115602764,-3.061264,-9.622467,1.1891022,1.5973969,-0.64172363,0.91085815
1622,A,1149692165956768,-3.61232,-10.068451,-0.120162964,1.877945,-0.7010956,1.1168365
1622,A,1149692216310772,-3.1071167,-11.551788,0.888855,1.3543701,-0.3033905,1.0104065
1622,A,1149692266664776,-1.452301,-13.513992,-0.42822266,1.3521729,-0.9747009,0.917572
1622,A,1149692317018780,2.8346252,-11.128082,1.3792267,0.7280121,-1.5134735,0.52630615
1622,A,1149692367372784,3.700119,-13.308899,2.2183075,0.06845093,-1.3859711,0.1437378
1622,A,1149692417726788,-2.9123993,-14.533417,-0.12719727,-0.4103546,-1.3625641,0.058151245
1622,A,1149692468080792,-0.8067169,-7.372757,-0.2596283,-0.8816681,-0.35084534,0.36590576
1622,A,1149692518434795,0.73005676,-3.6764832,0.9255829,-0.7917633,-0.056640625,0.524765
1622,A,1149692568788799,0.13374329,-4.050461,1.7756042,-0.28483582,-0.6557312,0.2745819
1622,A,1149692619142803,-1.6280823,-5.1806946,1.3474274,-0.2816925,0.29377747,0.12931824
1622,A,1149692669496807,-1.169632,-8.1028595,3.7060547,-0.88952637,0.7927246,0.25700378
1622,A,1149692719850811,-0.2345581,-9.96106,5.509918,-0.60717773,0.40675354,-0.17370605
1622,A,1149692770204815,-1.0838623,-8.491043,5.5220184,-0.083969116,0.29985046,-1.3103943
1622,A,1149692820558819,-1.4075928,-12.0155945,2.7447052,-0.9449005,1.1257477,-1.2965088
1622,A,1149692870912823,1.3464966,-12.642059,1.5483246,-1.0538025,0.7364807,-0.1471405
1622,A,1149692921266827,2.89505,-5.3538055,0.5257416,-1.0536652,0.344635,-0.20980835
1622,A,1149692971620831,-1.141861,-10.510223,-4.0385895,-0.5610962,0.65089417,-0.5742645
1622,A,1149693021974835,-3.2609253,-14.203125,-3.6703033,-0.5196686,0.6110077,-0.6783142
1622,A,1149693072328838,-0.89624023,-7.5825195,0.42712402,-0.47154236,0.13548279,-0.5069885
1622,A,1149693122682842,-0.022506714,-8.282852,1.1116791,-0.1348877,-0.13000488,-0.26411438
1622,A,1149693173036846,-1.6896362,-9.285645,1.0596771,0.38194275,0.10450745,0.15080261
1622,A,1149693223390850,-3.0269928,-8.828812,0.71836853,1.1941223,0.22659302,0.7918396
1622,A,1149693273744854,-3.2914734,-9.74292,0.60128784,1.6496277,0.47528076,0.82499695
1622,A,1149693324098858,-1.9253998,-12.797836,-0.2526245,1.577179,0.67170715,0.37504578
1622,A,1149693374452862,0.18559265,-13.646881,0.1126709,1.4887085,0.12098694,0.35385132
1622,A,1149693424806866,3.6314087,-11.71698,2.1523895,1.010498,-0.5843811,0.60202026
1622,A,1149693475160870,4.301895,-12.167099,1.0155945,0.0038757324,-1.0817413,0.42253113
1622,A,1149693525514874,-0.1426239,-12.652115,-0.10209656,-0.39575195,-0.9089813,0.03845215
1622,A,1149693575868878,-1.0958405,-9.242783,0.81422424,-0.2445221,-0.20542908,0.31600952
1622,A,1149693626222881,0.27378845,-4.7869415,1.0854187,-0.17855835,-0.27677917,0.46089172
1622,A,1149693676576885,-0.68052673,-2.887619,1.7672119,0.37252808,0.27772522,0.019454956
1622,A,1149693726930889,-2.4924164,-5.2166595,3.357132,-0.26011658,1.2644806,-0.24421692
1622,A,1149693777284893,-1.1493073,-11.924484,5.791809,-0.06706238,0.40246582,0.061416626
1622,A,1149693827638897,0.46115112,-8.793411,5.6930847,-0.739624,0.2441864,-1.3508911
1622,A,1149693877992901,3.3996887,-12.558456,4.15448,-0.6930542,1.0582733,-0.99424744
1622,A,1149693928346905,-0.38493347,-13.040405,4.858673,-0.9259796,0.62994385,-0.29515076
1622,A,1149693978700909,-2.028122,-7.28804,-2.1022644,-0.9869385,0.22012329,-0.5142212
1622,A,1149694029054913,1.1855316,-10.498993,-2.9550323,-0.43922424,0.3431549,-0.6343689
1622,A,1149694079408917,-1.4551239,-9.468002,-0.4603119,-0.46148682,0.38565063,-0.45103455
1622,A,1149694129762920,-0.84861755,-7.0729218,-1.6298218,-0.15965271,-0.1462555,-0.33576965
1622,A,1149694180116924,-0.74897766,-8.797562,0.19651794,-0.13368225,-0.12347412,-0.11369324
1622,A,1149694230470928,-0.97839355,-8.837158,1.3307343,0.24995422,-0.6014404,0.47683716
1622,A,1149694280824932,-2.8448792,-9.450699,1.3786774,1.2860718,-1.0982056,0.8324127
1622,A,1149694331178936,-3.2124786,-10.030151,-0.053100586,1.588623,-0.823761,0.82740784
1622,A,1149694381532940,-3.4036102,-11.965057,0.13313293,1.2056122,-0.1003418,0.9850311
1622,A,1149694431886944,-3.9875183,-12.522522,0.07223511,1.2793732,-1.230484,0.85446167
1622,A,1149694482240948,1.9912415,-11.891418,1.1176147,0.8667145,-1.73172,0.49571228
1622,A,1149694532594952,4.908081,-13.234924,0.7108154,0.33332825,-1.2364655,0.11621094
1622,A,1149694582948956,-1.9015808,-14.777756,1.2109222,-0.07322693,-1.2591858,-0.07070923
1622,A,1149694633302960,-0.53370667,-8.6701355,-0.7975464,-0.6985779,-0.37182617,0.10496521
1622,A,1149694683656963,0.22070313,-4.890381,0.8293762,-0.79460144,0.40827942,0.48077393
1622,A,1149694734010967,0.47511292,-4.537491,2.201294,0.37265015,-0.4510498,0.41407776
1622,A,1149694784364971,-0.10145569,-4.375519,0.78507996,-0.29374695,0.693985,0.069747925
1622,A,1149694834718975,-0.75068665,-8.038467,2.6447449,-1.1442261,0.74458313,-0.29534912
1622,A,1149694885072979,1.2227478,-13.8168335,5.6106567,0.0037994385,0.9228363,0.3410797
1622,A,1149694935426983,-0.7475281,-7.17511,6.534912,-0.5935974,0.032836914,-0.406662
1622,A,1149694985780987,-0.02017212,-5.5661316,2.8012848,-1.2003174,0.8471985,-1.5908661
1622,A,1149695036134991,2.0384064,-17.658356,-1.3322906,-1.1087036,0.9191284,0.05316162
1622,A,1149695086488995,0.8377533,-8.144165,2.2315369,-1.4320068,0.68466187,0.10444641
1622,A,1149695136842999,2.5274048,-1.6755981,-3.9501495,-0.85380554,0.3815918,-0.61047363
1622,A,1149695187197003,-1.4867401,-14.196472,4.4024963,-0.5655365,0.053649902,-1.0655823
1622,A,1149695237551006,-1.0482635,-9.010529,-1.6207123,-0.6732483,0.26190186,-0.58517456
1622,A,1149695287905010,-0.58047485,-8.423599,0.043518066,-0.29408264,-0.17974854,-0.25978088
1622,A,1149695338259014,-1.1929474,-8.139175,1.4379883,0.002670288,0.041305542,-0.15861511
1622,A,1149695388613018,-2.0133667,-8.582611,-0.529129,0.92637634,-0.31332397,0.62602234
1622,A,1149695438967022,-2.935669,-9.729355,1.1921997,1.6462402,-0.47651672,1.0113525
1622,A,1149695489321026,-2.4887695,-11.358261,0.6845856,1.8791351,-0.41279602,0.9332886
1622,A,1149695539675030,-3.1613312,-12.077423,0.22796631,1.4150696,0.31484985,0.6582947
1622,A,1149695590029034,-1.6046753,-13.372742,-1.368988,1.3138428,-0.4124756,0.56843567
1622,A,1149695640383038,3.6030579,-9.745331,1.6122742,0.68237305,-1.0726471,0.2190857
1622,A,1149695690737042,6.3500824,-13.510025,0.26937866,-0.13969421,-0.9933319,-0.068847656
1622,A,1149695741091045,-3.4016876,-12.626419,1.7291565,-0.40097046,-0.6634369,-0.08589172
1622,A,1149695791445049,0.27838135,-6.6965027,-0.5002899,-0.5578613,0.08351135,0.5557709
1622,A,1149695841799053,0.35887146,-2.9640503,0.5250244,-0.4348755,-0.15919495,0.41131592
1622,A,1149695892153057,-1.2706604,-3.4852905,2.8216095,0.252182,0.5296631,0.050308228
1622,A,1149695942507061,-2.4611359,-6.714905,2.0122375,-0.5704346,0.86997986,-0.4303589
1622,A,1149695992860880,-0.034332275,-11.751297,4.233261,-0.5267639,0.49998474,1.0681152E-4
1622,A,1149696043214884,1.7504425,-7.77359,5.646393,-0.7855835,0.1907959,-1.4244995
1622,A,1149696093568888,5.872574,-10.255325,8.386917,-0.848999,0.75798035,-0.619339
1622,A,1149696143922892,-2.2030487,-10.340652,0.72058105,-1.309021,0.5179138,0.046447754
1622,A,1149696194276896,-2.0277863,-7.816452,-1.7252502,-0.73313904,0.29193115,-0.71417236
1622,A,1149696244630900,3.8487701,-7.027771,1.0106964,-0.47434998,0.5329895,-0.83976746
1622,A,1149696294984903,-3.76651,-10.674149,2.4774323,-0.60624695,0.46661377,-0.62568665
1622,A,1149696345338907,0.6779022,-7.5846252,-1.8003235,-0.20021057,0.23539734,-0.26638794
1622,A,1149696395692911,-0.26916504,-8.727982,0.16107178,0.03652954,0.11869812,-0.078048706
1622,A,1149696446046915,-1.3119812,-8.263626,0.78767395,0.7795563,-0.2866974,0.519104
1622,A,1149696496400919,-2.7089386,-9.095734,0.93292236,1.6376343,-0.61302185,0.869812
1622,A,1149696546754923,-2.9931488,-10.638641,0.9436798,1.6265106,-0.13305664,0.8852539
1622,A,1149696597108927,-2.4540558,-11.41272,0.66304016,1.1712341,0.13000488,0.9976959
1622,A,1149696647462931,-1.0072174,-14.005676,-1.6552429,1.3034515,-1.0072632,0.7529297
1622,A,1149696697816935,4.424301,-11.188293,1.4944763,0.60598755,-1.9051666,0.318573
1622,A,1149696748170939,3.9230194,-13.85498,0.6735687,0.12574768,-1.2647858,0.24827576
1622,A,1149696798524943,-3.6564178,-12.894409,0.09690857,-0.32766724,-0.8282776,0.1424408
1622,A,1149696848878946,0.46203613,-6.226776,-1.4225311,-0.5923157,-0.13435364,0.29893494
1622,A,1149696899232950,0.3929901,-4.1189575,0.7841034,-0.19546509,-0.19664001,0.52186584
1622,A,1149696949586954,-0.19345093,-5.097,2.7322693,0.0041503906,-0.1574707,0.33169556
1622,A,1149696999940958,-0.2953186,-6.168152,1.5935516,-0.72206116,0.77578735,0.062408447
1622,A,1149697050294962,-1.45755,-10.70578,4.655365,-0.7002716,0.7599945,0.14637756
1622,A,1149697100648966,-1.6684265,-11.403061,5.6063385,-0.20536804,0.419693,-0.48435974
1622,A,1149697151002970,0.5877075,-7.242584,5.702484,-0.85913086,0.54145813,-1.4900055
1622,A,1149697201356974,2.2948456,-10.797623,3.3834076,-1.1070251,0.93859863,-0.6897583
1622,A,1149697251710978,-0.31785583,-11.636093,-1.1395874,-1.4051819,0.5493622,0.13685608
1622,A,1149697302064982,1.5690002,-6.508728,-1.8769531,-0.8210449,0.5509491,-0.43484497
1622,A,1149697352418985,1.9182892,-8.349899,1.4724884,-0.5671997,0.6959381,-0.79385376
1622,A,1149697402772989,-1.6947937,-10.239883,2.0717773,-0.48458862,0.3625641,-0.5877991
1622,A,1149697453126993,0.44332886,-7.86232,-1.6317444,-0.19107056,0.07621765,-0.23721313
1622,A,1149697503480997,-0.19721985,-8.377365,1.0137024,0.23547363,0.03993225,0.12454224
1622,A,1149697553835001,-1.996521,-8.669373,0.973526,1.0372314,0.09552002,0.67337036
1622,A,1149697604189005,-3.64328,-9.760864,0.1138916,1.6582794,0.09805298,0.8457184
1622,A,1149697654543009,-3.0139465,-10.934387,0.42192078,1.5673981,0.27818298,0.579422
1622,A,1149697704897013,-1.7262726,-12.5793,-0.56658936,1.4174805,0.4012146,0.35813904
1622,A,1149697755251017,1.3715515,-11.916809,-0.33935547,1.2064667,-0.49508667,0.26942444
1622,A,1149697805605021,5.916748,-10.625702,0.96243286,0.5089569,-1.1929474,0.21891785
1622,A,1149697855959025,2.3743744,-12.420212,1.0524902,-0.22662354,-0.9091339,0.1382904
1622,A,1149697906313028,-1.8970947,-10.436981,0.74102783,-0.64004517,-0.26298523,0.119125366
1622,A,1149697956667032,-0.066848755,-6.3586426,-0.1701355,-0.4418335,-0.05291748,0.35932922
1622,A,1149698007021036,-0.31585693,-4.0882263,1.3196716,0.09085083,-0.26011658,0.3544464
1622,A,1149698057375040,-1.0756836,-4.1203156,2.4595032,0.062301636,0.8694153,0.10722351
1622,A,1149698107729044,-0.9319916,-7.528885,3.3120575,-0.046295166,1.4709015,0.09651184
1622,A,1149698158083048,0.30792236,-11.575516,5.0411377,-0.6735077,0.26657104,-0.3417511
1622,A,1149698208437052,1.9167938,-8.998795,7.1640625,-1.2619171,0.53056335,-1.2727509
1622,A,1149698258791056,2.8892822,-11.176773,-0.079956055,-0.9073639,0.82795715,-0.8125458
1622,A,1149698309145060,0.97016907,-10.689163,-3.2177124,-1.2840576,0.71502686,-0.14601135
1622,A,1149698359499064,0.3477478,-5.8649445,-1.2700653,-0.96232605,0.5146942,-0.30943298
1622,A,1149698409853068,0.4026184,-8.541153,1.8242493,-0.4336853,0.2529602,-0.6296387
1622,A,1149698460207071,-0.7295532,-9.331131,0.50683594,-0.5636444,0.2689972,-0.5053711
1622,A,1149698510561075,-0.8761902,-8.335922,-0.6847687,-0.46704102,-0.14607239,-0.3645935
1622,A,1149698560915079,-1.2805481,-8.833572,1.1797943,-0.21466064,-0.13641357,-0.38679504
1622,A,1149698611269083,-2.134369,-9.136169,0.33410645,0.36434937,-0.14479065,0.22988892
1622,A,1149698661623087,-3.1420288,-9.105026,1.0453644,1.2118225,-0.38237,0.9016113
1622,A,1149698711977091,-3.0709991,-9.861572,0.22027588,1.9412994,-0.594223,0.95362854
1622,A,1149698762331095,-2.5438232,-11.340973,0.7231598,1.5482788,0.15682983,0.6966858
1622,A,1149698812685099,-2.07193,-12.641174,-1.2840576,1.4031067,-0.1660614,0.68304443
1622,A,1149698863039103,1.4720154,-10.997009,-0.08401489,0.8105011,-1.1103973,0.3710327
1622,A,1149698913393107,6.8325806,-12.066208,0.02041626,0.017608643,-1.1725159,0.21348572
1622,A,1149698963747110,-0.9052582,-13.548965,1.3322144,-0.55737305,-0.70207214,-0.00680542
1622,A,1149699014101114,-1.3442993,-8.974457,-0.32772827,-0.5370178,-0.05218506,0.13024902
1622,A,1149699064455118,0.42929077,-4.97612,-0.4871521,-0.3277588,-0.3383484,0.40185547
1622,A,1149699114809122,-0.44551086,-4.105057,2.4197235,-0.056777954,0.1461029,0.39152527
1622,A,1149699165163126,-1.3096619,-4.432358,2.6792145,0.2546234,1.0598755,0.34048462
1622,A,1149699215517130,-1.0487518,-8.563232,2.0887299,0.027404785,1.1200104,0.10636902
1622,A,1149699265871134,0.44189453,-11.477432,4.4074554,-0.48695374,0.06806946,-0.7248688
1622,A,1149699316225138,0.005874634,-7.555176,5.629776,-1.0975037,0.7514038,-1.3691711
1622,A,1149699366579142,4.491989,-17.648056,-6.029587,-1.3165283,1.1941376,0.02961731
1622,A,1149699416933146,0.43963623,-10.322067,-1.2708282,-1.2037811,0.49612427,-0.24143982
1622,A,1149699467287150,0.77482605,-3.362854,-2.6211395,-0.5894623,0.5057831,-0.58776855
1622,A,1149699517641153,-2.1262054,-13.718613,3.6150055,-0.36730957,0.2932434,-0.6639252
1622,A,1149699567995157,-1.2449036,-7.9650726,-1.4340363,-0.32226563,0.27824402,-0.41003418
1622,A,1149699618349161,0.03366089,-8.294876,-0.030029297,-0.29740906,0.011917114,-0.26870728
1622,A,1149699668703165,-2.0285187,-8.734863,2.047699,-0.23971558,0.13548279,-0.07675171
1622,A,1149699719057169,-2.1608734,-8.959824,-0.2614746,0.58428955,-0.37757874,0.44918823
1622,A,1149699769411173,-2.478592,-9.119934,1.1772461,1.3871155,-0.36846924,0.59007263
1622,A,1149699819765177,-3.0379028,-9.870956,-0.07072449,1.7171173,0.50541687,0.9567871
1622,A,1149699870119181,-3.5652313,-11.658432,0.06109619,1.2472687,1.1021576,0.85227966
1622,A,1149699920473185,-1.1760559,-13.596741,-0.7772217,1.644104,-0.34184265,0.27635193
1622,A,1149699970827189,4.519165,-11.157425,1.0014954,1.0037537,-1.4575806,-0.04260254
1622,A,1149700021181193,6.4294586,-12.53183,1.3701172,0.04248047,-0.69758606,0.034576416
1622,A,1149700071535196,-2.5539398,-13.640305,1.4813232,-0.5318756,-0.58244324,-0.13470459
1622,A,1149700121889200,-0.72190857,-6.415283,-0.50357056,-0.7337494,0.14654541,-0.045196533
1622,A,1149700172243204,-0.6663666,-5.0511475,0.4902954,-0.35951233,-0.17967224,0.26911926
1622,A,1149700222597208,-0.41682434,-4.937134,3.332962,0.27236938,-0.12416077,0.34710693
1622,A,1149700272951212,-0.74502563,-4.5255127,1.7418213,-0.050750732,0.8344269,0.42601013
1622,A,1149700323305216,-0.38104248,-7.003372,3.2269287,-1.0401001,0.9607239,0.23095703
1622,A,1149700373659220,1.1879425,-13.775681,5.9110107,0.3371582,0.10133362,-0.6973419
1622,A,1149700424013224,0.21174622,-8.835983,7.410324,-0.83132935,0.5718384,-1.4335022
1622,A,1149700474367228,1.5290833,-13.914627,3.0317535,-0.72647095,0.73573303,-0.54930115
1622,A,1149700524721232,1.9123383,-7.2877502,0.24835205,-0.82707214,0.31967163,-0.13464355
1622,A,1149700575075235,0.28450012,-7.448395,-1.3343658,-1.000473,0.49539185,-0.335083
1622,A,1149700625429239,-3.116272,-14.77449,-6.0453186,-0.47955322,0.48114014,-0.7564087
1622,A,1149700675783243,-1.2070618,-9.13237,3.33255,-0.62664795,0.4198761,-0.64627075
1622,A,1149700726137247,0.2911682,-8.469864,-1.5067902,-0.34477234,0.05267334,-0.24528503
1622,A,1149700776491251,-0.677475,-8.70134,0.42634583,-0.07165527,-0.046051025,-0.124572754
1622,A,1149700826845255,-0.7386017,-8.312027,2.1250458,0.52323914,-0.2975464,0.43588257
1622,A,1149700877199259,-3.106079,-8.631973,0.45713806,1.5134125,-0.703598,0.82865906
1622,A,1149700927553263,-2.9645386,-9.70993,0.6064148,1.8058014,-0.5762634,0.7524109
1622,A,1149700977907267,-3.3906708,-11.603958,-0.009552002,1.1212921,0.004501343,0.81651306
1622,A,1149701028261271,-1.3931122,-13.743637,-0.8122406,0.8914337,-0.52500916,1.0502319
1622,A,1149701078615275,3.183838,-12.0383,0.9478607,0.6007843,-1.4972992,0.5278473
1622,A,1149701128969278,4.5459747,-12.297867,3.1698914,-0.13626099,-1.2659302,0.22772217
1622,A,1149701179323282,-2.5964813,-12.872864,0.47839355,-0.5823059,-0.84251404,-0.044418335
1622,A,1149701229677286,-0.46076965,-7.683899,0.17733765,-0.6081085,-0.23954773,0.12060547
1622,A,1149701280031290,1.3395538,-4.6402435,0.8479767,-0.029388428,-0.26916504,0.5508423
1622,A,1149701330385294,0.24380493,-4.280792,2.0577087,0.5113983,-0.026275635,0.5644684
1622,A,1149701380739298,-0.8055115,-5.836853,1.5747833,-0.04219055,0.6654663,0.04119873
1622,A,1149701431093302,-1.218811,-10.918564,3.8037872,-0.3432312,0.42494202,-0.63209534
1622,A,1149701481447306,-0.6185913,-12.35257,5.430313,-0.8025055,0.20211792,-0.933197
1622,A,1149701531801310,-0.2994995,-12.614532,0.07525635,-1.4117584,0.46879578,-0.7177429
1622,A,1149701582155314,2.8044586,-15.130341,-3.7602234,-0.98161316,0.5018616,-0.04220581
1622,A,1149701632509318,1.7909393,-6.3399353,2.106369,-1.0380554,0.38798523,-0.29180908
1622,A,1149701682863321,0.19619751,-7.5754547,-0.4873352,-0.6112976,0.48945618,-0.7263794
1622,A,1149701733217325,-2.5049744,-11.151123,-0.73727417,-0.4504242,0.38974,-0.7314453
1622,A,1149701783571329,-0.45185852,-8.250931,-0.5569763,-0.35668945,0.12214661,-0.37879944
1622,A,1149701833925333,-0.2571411,-8.56665,1.7533417,-0.16642761,-0.08190918,-0.20979309
1622,A,1149701884279337,-1.4475708,-8.592285,0.6476898,0.29652405,-0.24223328,0.18667603
1622,A,1149701934633341,-2.829422,-8.913742,-0.27165222,1.2009277,-0.41378784,0.8207245
1622,A,1149701984987345,-3.261551,-10.443268,0.5543976,1.6571808,-0.30223083,0.929245
1622,A,1149702035341349,-2.7541656,-11.632172,0.44866943,1.4224396,-0.012313843,0.89408875
1622,A,1149702085695353,-1.8832397,-12.452087,-0.3005371,1.3069916,-0.35186768,0.8898926
1622,A,1149702136049357,1.614914,-11.709122,0.7723999,0.95288086,-1.3320007,0.7072449
1622,A,1149702186403360,4.5714874,-11.604187,1.2526245,0.11253357,-1.4704437,0.43984985
1622,A,1149702236757364,-0.028503418,-13.47168,0.5266113,-0.34405518,-0.796463,0.18502808
1622,A,1149702287111368,-2.0026093,-10.198074,0.4443512,-0.6287842,-0.3736725,0.24084473
1622,A,1149702337465372,0.6652069,-5.1753845,-0.042770386,-0.35324097,-0.724411,0.18824768
1622,A,1149702387819376,-0.14881897,-3.5487518,1.6306305,0.6467285,-0.1934967,0.33335876
1622,A,1149702438173380,-1.4500275,-4.808136,1.7248688,0.5870819,0.86013794,0.24261475
1622,A,1149702488527384,-0.75019836,-8.50972,2.5099335,-0.70181274,0.52282715,-0.5531006
1622,A,1149702538881388,0.26382446,-10.589203,5.2346954,-1.1694794,0.2637329,-1.226944
1622,A,1149702589235392,0.18562317,-15.539764,0.56463623,-0.99212646,0.21334839,-0.7293854
1622,A,1149702639589396,1.8345337,-10.597565,0.23440552,-1.4602509,0.0149383545,-0.09686279
1622,A,1149702689943400,1.2491302,-4.6143494,-1.7993622,-1.1846466,0.046432495,-0.6402588
1622,A,1149702740297403,-2.062149,-10.685928,-1.8892212,-0.68544006,0.46018982,-0.96299744
1622,A,1149702790651407,-2.5104065,-10.526154,-0.24653625,-0.72476196,0.72273254,-0.48957825
1622,A,1149702841005411,-0.36763,-7.5420227,0.20483398,-0.2952423,-0.004257202,-0.09477234
1622,A,1149702891359415,0.45143127,-7.8107758,1.677002,0.020767212,-0.25402832,0.09082031
1622,A,1149702941713419,-0.60427856,-9.4900055,1.2269135,0.75090027,-0.13114929,0.58909607
1622,A,1149702992067423,-3.7514496,-10.1577,0.6224823,1.4691925,-0.014404297,1.158081
1622,A,1149703042421427,-4.279236,-10.612946,0.8152466,1.3226929,-0.1400299,0.7170868
1622,A,1149703092775431,-1.6725311,-14.054199,0.62908936,1.5566406,0.21618652,0.5507965
1622,A,1149703143129435,0.3409729,-13.988907,0.23808289,1.3529205,-0.4136963,0.40504456
1622,A,1149703193483439,6.3929596,-11.226212,2.6473694,0.7229004,-0.79052734,0.54733276
1622,A,1149703243837443,2.8771515,-11.850052,2.4030762,-0.083099365,-0.7437439,0.31385803
1622,A,1149703294191446,-1.088089,-10.791718,0.6830139,-0.52815247,-0.33328247,-0.033798218
1622,A,1149703344545450,0.29322815,-7.5325165,-0.10444641,-0.5107727,0.48651123,0.30645752
1622,A,1149703394899454,0.31332397,-4.560196,1.2171326,-0.2610016,0.08250427,0.57377625
1622,A,1149703445253458,-0.8010864,-3.775528,1.9427643,0.16937256,1.0017242,0.51789856
1622,A,1149703495607462,-2.1278229,-6.910095,2.2975922,0.4757843,1.4274445,0.115097046
1622,A,1149703545961466,-1.070816,-10.581268,4.8799286,-0.7840271,0.13764954,-0.9524994
1622,A,1149703596315470,0.15219116,-8.540482,5.4685974,-1.0099792,0.71629333,-1.6420441
1622,A,1149703646669474,3.7102203,-17.152954,-5.472992,-0.9889374,1.2935791,-0.23033142
1622,A,1149703697023478,2.0690765,-10.68161,-1.2840729,-1.4465485,0.9743347,-0.046401978
1622,A,1149703747377482,1.4503326,-3.5102997,-2.7076263,-0.31791687,0.6350403,-0.87789917
1622,A,1149703797731485,-2.3783112,-13.862305,-0.3420868,-0.21862793,0.7720642,-1.07724
1622,A,1149703848085489,-2.2082062,-9.546036,0.19320679,-0.4688568,1.1282043,-0.53645325
1622,A,1149703898439493,-1.1066589,-8.355164,1.1326294,-0.38227844,0.58461,-0.3140564
1622,A,1149703948793497,-1.2611237,-8.089905,1.8680115,-0.39320374,0.16017151,-0.45515442
1622,A,1149703999147501,-1.2322235,-8.35498,1.580658,-0.39337158,-0.38179016,-0.09509277
1622,A,1149704049501505,-2.5723572,-9.496231,0.5937195,0.6064606,-1.3463745,0.6278076
1622,A,1149704099855509,-2.9609375,-9.016846,0.26405334,1.5390472,-0.7062073,1.1149597
1622,A,1149704150209513,-4.8441925,-9.240036,-0.022903442,1.6787872,-0.1871643,0.8937073
1622,A,1149704200563517,-4.286972,-13.063599,-0.6209564,1.6488647,-0.3050995,0.76052856
1622,A,1149704250917521,0.035064697,-13.0933075,-0.79011536,1.5458832,-1.2839813,0.27851868
1622,A,1149704301271525,6.4244537,-12.014938,3.8511658,0.6050873,-0.9636841,0.51808167
1622,A,1149704351625528,3.2588959,-14.448883,1.0204926,-0.050231934,-1.2918549,0.61154175
1622,A,1149704401979532,-0.6479492,-10.002884,0.73309326,-0.3997345,-0.86686707,0.44540405
1622,A,1149704452333536,0.36709595,-7.9704437,-0.23698425,-0.97924805,0.22444153,0.25328064
1622,A,1149704502687540,0.39241028,-5.050461,1.5522003,-0.12905884,-0.35125732,0.4235382
1622,A,1149704553041544,-0.2348175,-3.93721,1.822998,-0.039871216,-0.43844604,0.057174683
1622,A,1149704603395548,-1.2624207,-4.7951355,1.2263031,0.0011444092,0.685791,0.29325867
1622,A,1149704653749552,-0.7668152,-9.8402405,5.403412,-0.23310852,0.9589691,0.13174438
1622,A,1149704704103556,-1.091507,-12.633026,5.9325867,-0.7081299,-0.37669373,-0.4025879
1622,A,1149704754457560,-0.38861084,-6.3759003,3.3201752,-1.1429596,0.8587494,-2.0084534
1622,A,1149704804811564,-0.15505981,-18.261047,-0.9569702,-0.72932434,0.6657562,-0.21339417
1622,A,1149704855165568,1.4870148,-6.6801453,2.7195282,-1.6868591,-0.03768921,-0.036193848
1622,A,1149704905519571,1.3912201,-2.5692902,-3.4972076,-0.56781006,0.24629211,-0.712677
1622,A,1149704955873575,-2.876587,-16.671707,-2.6862488,-0.4406891,0.48231506,-0.86335754
1622,A,1149705006227579,-1.6142273,-6.4243317,-3.2355194,-0.2920227,0.56178284,-0.26911926
1622,A,1149705056581583,0.09436035,-8.320068,2.929123,-0.051071167,-0.04862976,0.074279785
1622,A,1149705106935587,-1.1511688,-8.602295,1.2662201,0.4794159,-0.20219421,0.5015564
1622,A,1149705157289591,-2.400589,-8.718765,0.47029114,1.6732025,-0.7491913,1.0910034
1622,A,1149705207643595,-3.7881622,-9.772842,1.2665558,1.8905029,-0.07637024,0.6584778
1622,A,1149705257997599,-4.716629,-11.608688,0.5660095,1.1450653,0.6420746,0.79415894
1622,A,1149705308351603,-1.9536743,-13.219818,0.21138,1.2555084,-0.1085968,0.9016876
1622,A,1149705358705607,3.4293823,-12.793259,-1.8711548,0.5496979,-1.7197571,0.2412262
1622,A,1149705409059610,8.064606,-14.621689,0.2785492,-0.2013092,-1.5579529,0.06411743
1622,A,1149705459413614,-2.501114,-12.434784,1.3897552,-0.58399963,-0.9186859,0.072525024
1622,A,1149705509767618,-0.36106873,-7.272171,-0.6728668,-0.51179504,-0.40344238,0.4075775
1622,A,1149705560121622,1.2374725,-3.5991669,-0.681015,-0.0022125244,-0.26275635,0.6118927
1622,A,1149705610475626,-1.1387482,-2.7028198,2.4442596,0.53022766,0.11038208,0.4859314
1622,A,1149705660829630,-1.9044495,-5.0491486,1.9591217,0.74354553,0.85575867,0.4074707
1622,A,1149705711183634,-0.37065125,-11.41156,3.6824188,-0.059677124,0.51135254,-0.39694214
1622,A,1149705761537638,1.8121338,-13.294907,4.827423,-0.89489746,0.105789185,-1.2068634
1622,A,1149705811891642,0.24668884,-9.980789,-0.3093567,-1.4943695,1.3496704,-0.9581909
1622,A,1149705862245646,0.7308655,-16.121414,-7.544571,-1.1055145,1.2728882,0.020904541
1622,A,1149705912599650,0.8648834,-7.1360474,-0.448349,-0.9895325,0.8003235,-0.43200684
1622,A,1149705962953653,0.46002197,-8.510651,-1.4860535,-0.42861938,0.6547394,-0.7878418
1622,A,1149706013318827,-1.6343689,-14.541611,1.8099976,-0.39926147,0.55415344,-0.60440063
1622,A,1149706063672831,-1.0317535,-7.5778503,-1.1611633,-0.30723572,0.31724548,-0.4063568
1622,A,1149706114026835,-1.052536,-8.280548,1.10672,-0.25080872,-0.19450378,-0.37130737
1622,A,1149706164380839,-2.0334015,-7.996567,1.7422028,-0.07292175,-0.5455475,0.039215088
1622,A,1149706214734843,-2.9034271,-8.565872,0.9546509,0.7698364,-0.9910431,0.62727356
1622,A,1149706265088847,-3.6555786,-9.965149,0.7707062,1.7728882,-0.71591187,0.93603516
1622,A,1149706315442851,-4.096588,-10.28038,0.35549927,1.8465576,0.29421997,1.0095062
1622,A,1149706365796855,-3.6568604,-11.771088,-0.5269928,1.6616821,0.24980164,0.8046417
1622,A,1149706416150859,0.29051208,-12.807571,-0.8412323,1.5426025,-0.955246,0.4203186
1622,A,1149706466504863,6.5270386,-12.529068,1.2825165,0.5783844,-1.310379,0.222229
1622,A,1149706516858866,3.6631775,-14.257065,1.33815,-0.0921936,-0.99017334,0.15029907
1622,A,1149706567212870,-2.280716,-12.008514,0.2597351,-0.3176422,-0.75283813,0.20697021
1622,A,1149706617566874,-0.7646332,-6.9378815,-0.7586365,-0.65553284,-0.5197754,0.4078827
1622,A,1149706667920878,-0.45898438,-4.2932587,1.3664398,-0.61431885,-0.60388184,0.30389404
1622,A,1149706718274882,-0.8041992,-3.2033844,2.305313,-0.27027893,-0.21081543,0.018463135
1622,A,1149706768628886,-1.1226044,-4.1567993,1.3938599,-0.45692444,0.083496094,-0.1058197
1622,A,1149706818982890,0.0980072,-9.387375,3.4689941,-0.5808716,0.93807983,0.11402893
1622,A,1149706869336894,-0.036956787,-10.847473,6.8011627,-0.4833374,1.232254,0.068344116
1622,A,1149706919690898,-0.35565186,-8.082169,5.7061768,-0.15623474,0.3458252,-0.65870667
1622,A,1149706970044902,0.1116333,-9.357529,4.2355194,-0.98983765,0.5338898,-1.278122
1622,A,1149707020398905,2.6481018,-15.774689,-2.3866272,-1.2355804,1.003067,-0.4255371
1622,A,1149707070752909,2.8359833,-10.667923,-0.4586029,-1.1072845,0.70983887,-0.06297302
1622,A,1149707121106913,1.172348,-4.8434906,-0.60780334,-0.922287,0.58691406,-0.39837646
1622,A,1149707171460917,-2.3464508,-12.682114,-1.1177063,-0.539917,0.49572754,-0.77770996
1622,A,1149707221814921,-2.5108948,-11.542938,-1.1991272,-0.37039185,0.58200073,-0.6683197
1622,A,1149707272168925,-0.9400482,-8.209534,-0.072280884,-0.4873352,0.36608887,-0.319458
1622,A,1149707322522929,-0.49398804,-8.60585,1.7164001,-0.23039246,-0.07791138,-0.15364075
1622,A,1149707372876933,-1.7318726,-8.578049,0.12832642,0.6381378,-0.28146362,0.49050903
1622,A,1149707423230937,-1.7006683,-8.754166,1.3771667,1.5654297,-0.09786987,1.1373291
1622,A,1149707473584941,-3.9400177,-9.769333,0.6521759,1.7159119,0.15374756,1.0283508
1622,A,1149707523938945,-3.9624634,-11.575287,-0.8614502,1.4351959,0.5695343,1.1490631
1622,A,1149707574292948,-0.9949646,-13.159546,-1.0883636,1.2267914,-0.80900574,0.71362305
1622,A,1149707624646952,5.459152,-12.746231,4.048294,0.6855469,-1.1100311,0.2901001
1622,A,1149707675000956,4.13002,-14.752884,2.655365,0.08041382,-1.0117645,0.037719727
1622,A,1149707725354960,-1.4646912,-12.626251,0.47138977,-0.113082886,-0.8245697,-0.13923645
1622,A,1149707775708964,-0.28675842,-6.464157,-0.64134216,-0.7848511,0.16526794,0.31626892
1622,A,1149707826062968,0.5953827,-2.8211365,1.3620605,-0.595047,-0.29066467,0.1747284
1622,A,1149707876416972,-0.40396118,-2.398346,2.6324158,1.6927185,-0.37527466,0.3130188
1622,A,1149707926770976,-2.5074158,-4.853653,1.579773,0.11882019,0.8603363,0.080825806
1622,A,1149707977124980,-1.2940979,-12.204834,3.9040527,-0.82647705,0.091781616,-0.4744873
1622,A,1149708027478984,0.21728516,-9.6180725,7.1926117,-0.9440155,0.44181824,-1.7584229
1622,A,1149708077832988,-5.0345,-17.515625,0.8098297,-0.92333984,1.1732178,-0.33247375
1622,A,1149708128186991,-0.09718323,-11.346649,0.72743225,-1.4848633,0.30911255,-0.18307495
1622,A,1149708178540995,0.23809814,-5.5408936,-3.3870544,-0.71235657,0.2730713,-0.8733673
1622,A,1149708228894999,-1.8746948,-15.800461,-2.7046204,-0.57803345,0.2837677,-1.0003204
1622,A,1149708279249003,-2.0340118,-8.108353,-0.84413147,-0.53507996,0.33003235,-0.631485
1622,A,1149708329603007,-0.64401245,-7.894348,-0.77168274,-0.14820862,-0.21878052,-0.216568
1622,A,1149708379957011,-1.1012573,-8.11882,1.4392853,-0.02947998,-0.42855835,0.0071105957
1622,A,1149708430311015,-1.6568298,-8.019363,0.6804352,1.006012,-0.9530487,0.8931732
1622,A,1149708480665019,-4.0148163,-9.630295,1.0411682,1.9263763,-0.7292938,1.2905426
1622,A,1149708531019023,-4.4242554,-10.587265,0.28709412,1.644165,-0.38241577,0.9617462
1622,A,1149708581373027,-3.6005554,-12.46109,0.35717773,1.7566681,-0.042053223,1.0213013
1622,A,1149708631727030,-0.6661835,-13.13176,-0.81832886,1.3365326,-1.1968536,0.52156067
1622,A,1149708682081034,6.198166,-11.742966,3.711502,0.3294525,-1.5700531,0.31350708
1622,A,1149708732435038,3.064087,-14.585724,3.0297852,-0.32695007,-1.4410553,0.112716675
1622,A,1149708782789042,-3.3686981,-11.688065,1.4165192,-0.49404907,-0.889801,0.18386841
1622,A,1149708833143046,0.8843231,-5.6760864,-1.3953705,-0.66456604,0.23493958,0.823761
1622,A,1149708883497050,0.48861694,-2.8226776,1.5014648,-0.6036072,-0.96743774,0.43139648
1622,A,1149708933851054,-0.83877563,-2.257492,2.0599976,-0.15093994,-0.092559814,-0.074020386
1622,A,1149708984205058,-2.5569458,-5.2954407,2.1320343,-0.64445496,1.0953522,0.30586243
1622,A,1149709034559062,0.73739624,-12.021027,5.0795593,-1.5863647,0.68852234,-0.2000122
1622,A,1149709084913066,1.4883575,-7.412979,7.1427,0.21368408,0.43572998,-0.39848328
1622,A,1149709135267070,-1.2196198,-7.8552094,4.6321106,-0.88648987,1.4790955,-1.9462738
1622,A,1149709185621073,-1.3352966,-14.879227,-1.7208099,-1.1545105,1.3815308,-0.19400024
1622,A,1149709235975077,1.0085449,-14.919449,-0.70822144,-1.1994476,-0.05303955,-0.035812378
1622,A,1149709286329081,1.3534241,-5.8170166,-0.4828949,-0.68247986,0.44033813,-0.5254364
1622,A,1149709336683085,0.43447876,-12.911743,-0.5406952,-0.7657013,0.602829,-0.730072
1622,A,1149709387037089,-4.0907288,-7.7669067,-0.55900574,-0.5261078,0.60162354,-0.60632324
1622,A,1149709437391093,1.9650421,-7.267578,1.9831696,-0.1982727,0.2107544,-0.35360718
1622,A,1149709487745097,-0.7089691,-9.170883,0.22827148,0.24304199,0.2407074,0.040618896
1622,A,1149709538099101,-1.9001465,-8.584854,0.6324768,1.162735,0.102005005,0.8544769
1622,A,1149709588453105,-2.9559937,-9.279068,1.4700775,1.7900391,-0.03526306,1.0334167
1622,A,1149709638807109,-4.052765,-11.2065735,0.37953186,1.6896515,0.2544098,0.6446686
1622,A,1149709689161113,-2.2856598,-11.40744,-0.61546326,1.4953766,0.23588562,0.68704224
1622,A,1149709739515116,0.7325134,-13.52388,-0.6888428,1.1309509,-1.0035706,0.45895386
1622,A,1149709789869120,5.870758,-11.511322,3.8348541,0.40690613,-1.5019531,0.22717285
1622,A,1149709840223124,2.1128082,-13.437408,0.94947815,-0.14648438,-1.2239685,0.060913086
1622,A,1149709890577128,-4.349411,-11.0829315,0.037017822,-0.51260376,-0.5744171,0.20602417
1622,A,1149709940931132,0.4681244,-5.3391876,-0.51535034,-0.6634369,0.095321655,0.65515137
1622,A,1149709991285136,-0.17597961,-2.653839,1.7140808,-0.19454956,-0.5403595,0.40307617
1622,A,1149710041639140,-1.317688,-3.9900513,1.9903107,-0.12397766,0.60762024,0.21881104
1622,A,1149710091993144,-1.4072113,-7.9988556,2.918045,-0.32765198,0.9873657,0.39530945
1622,A,1149710142347148,-0.32662964,-11.652939,6.055084,-0.073349,0.21940613,-0.217453
1622,A,1149710192701152,0.123291016,-6.6634064,6.424576,-0.9782562,0.5110016,-1.2194214
1622,A,1149710243055155,0.09841919,-9.54863,-2.08107,-1.4317017,1.7170563,-1.1412354
1622,A,1149710293409159,0.82966614,-15.27681,-9.406525,-1.0447693,0.9219055,-0.076309204
1622,A,1149710343763163,0.37826538,-4.679962,0.13887024,-1.0747528,0.4281311,-0.2227478
1622,A,1149710394117167,1.0879822,-5.773407,-0.21806335,-0.40356445,0.6923218,-0.578125
1622,A,1149710444471171,-1.600708,-12.281433,1.1356812,-0.3743286,0.60121155,-0.7358093
1622,A,1149710494825175,-1.531311,-8.146744,-2.459549,-0.40460205,0.36140442,-0.49101257
1622,A,1149710545179179,-0.4928131,-8.616928,1.0857391,-0.3460846,-0.042007446,-0.41340637
1622,A,1149710595533183,-1.2708435,-8.40593,1.3115082,0.06715393,-0.42997742,0.081848145
1622,A,1149710645887187,-2.3605652,-8.840378,0.66786194,0.90953064,-0.84614563,0.82647705
1622,A,1149710696241191,-3.210144,-9.062515,0.84646606,1.5987091,-0.7115631,0.86857605
1622,A,1149710746595195,-4.703064,-9.860245,0.21218872,1.5875702,-0.019836426,0.6726532
1622,A,1149710796949198,-3.2639618,-11.876114,-0.77238464,1.4292145,-0.29959106,0.6693268
1622,A,1149710847303202,1.3003082,-13.607681,-0.24429321,1.2081299,-1.3959961,0.48628235
1622,A,1149710897657206,5.618744,-13.659073,2.0060883,0.35035706,-1.6053772,0.2927246
1622,A,1149710948011210,1.8346558,-14.454361,0.8301544,-0.2303009,-1.0474396,0.09059143
1622,A,1149710998365214,-1.4440765,-10.422073,-0.100372314,-0.5411835,-0.432724,0.19960022
1622,A,1149711048719218,0.91941833,-5.0197906,-0.41418457,-0.5160675,-0.3504486,0.5680542
1622,A,1149711099073222,0.22651672,-3.2849274,1.7117157,-0.19847107,-0.1897583,0.44935608
1622,A,1149711149427226,-1.0041962,-3.9366913,2.2592163,-0.87757874,0.68284607,-0.012496948
1622,A,1149711199781230,-2.0609894,-7.989685,3.2749176,-0.27244568,0.7698059,-0.08552551
1622,A,1149711250135234,-0.53118896,-9.509918,4.906021,-0.6374054,0.35710144,-0.5021515
1622,A,1149711300489238,3.2813873,-7.1648254,6.177429,-1.4807281,0.761734,-0.9517975
1622,A,1149711350843241,2.0621338,-12.435242,3.3362732,-1.0258789,0.8632202,-0.6882019
1622,A,1149711401197245,-1.1099548,-12.660965,-1.3490143,-1.1143951,0.66166687,-0.61605835
1622,A,1149711451551249,1.7268829,-5.1411743,-2.5114136,-0.8545227,1.0100403,-0.6622772
1622,A,1149711501905253,0.20411682,-8.8572235,3.0558472,-0.5581207,1.1048737,-0.54626465
1622,A,1149711552259257,0.22525024,-8.360214,1.0675964,-0.09597778,0.684433,-0.23625183
1622,A,1149711602613261,1.2263184,-7.0572357,-1.3889923,0.29162598,0.07084656,0.08294678
1622,A,1149711652967265,-0.053833008,-8.066727,1.4836426,0.93888855,-0.52752686,0.62628174
1622,A,1149711703321269,-2.867157,-8.562317,1.1661072,1.7650146,-1.2311401,0.75076294
1622,A,1149711753675273,-5.094803,-10.495651,0.66908264,1.4629059,0.07501221,0.71466064
1622,A,1149711804029277,-4.857559,-10.588074,1.7177734,0.9824219,0.380188,1.4580688
1622,A,1149711854383280,-1.0909271,-12.587448,0.109802246,1.086792,-1.3327637,0.8165283
1622,A,1149711904737284,5.2330017,-13.581543,1.6122131,0.49848938,-2.0373383,0.05026245
1622,A,1149711955091288,2.9381714,-15.62001,2.0104218,-0.2536621,-1.4194641,-0.18299866
1622,A,1149712005445292,-1.2300415,-12.144684,1.3900604,-0.5601349,-1.0340271,0.0033416748
1622,A,1149712055799296,-0.29039,-7.2785034,-0.39175415,-0.68943787,-0.41279602,0.49586487
1622,A,1149712106153300,0.333313,-3.484024,0.2840271,-0.006591797,-0.5417328,0.83644104
1622,A,1149712156507304,-0.2091217,-2.6933746,2.0850372,0.37750244,0.31980896,0.45251465
1622,A,1149712206861308,-1.4219208,-4.4413757,0.53341675,-0.62442017,0.32180786,0.4567871
1622,A,1149712257215312,-1.2718353,-15.664612,4.969208,-0.13398743,0.374115,0.5206909
1622,A,1149712307569316,-0.44778442,-9.000824,10.520401,-0.27624512,-0.5030365,-0.72276306
1622,A,1149712357923320,-1.3226929,-4.7740784,3.7306213,-1.9040527,1.6664886,-1.7469482
1622,A,1149712408277323,-2.175415,-16.37262,-7.7322083,-1.0021515,1.1746216,-0.43721008
1622,A,1149712458631327,-0.83340454,-8.845352,-0.20628357,-1.2742615,0.37750244,-0.20956421
1622,A,1149712508985331,1.5442047,-1.3301086,-1.7728577,-0.74176025,0.73902893,-0.44615173
1622,A,1149712559339335,-1.1484222,-14.134842,4.9988403,-0.34358215,0.9057312,-0.92266846
1622,A,1149712609693339,-1.2339172,-8.4266205,-0.29309082,-0.28015137,0.8663025,-0.6190338
1622,A,1149712660047343,-0.9147949,-7.727783,-0.7928772,-0.50738525,0.024795532,-0.29599
1622,A,1149712710401347,-0.048080444,-8.353394,3.1897278,-0.23477173,-0.31874084,-0.07096863
1622,A,1149712760755351,-1.8807373,-8.140091,-1.1763611,0.95843506,-0.8756256,0.64372253
1622,A,1149712811109355,-3.6106262,-8.832825,0.60328674,1.462738,-1.0531311,0.72325134
1622,A,1149712861463359,-5.6302032,-10.380524,0.287735,1.4238281,0.37895203,0.8901062
1622,A,1149712911817363,-4.6598053,-10.627762,1.542923,1.3772583,0.47286987,1.2213745
1622,A,1149712962171366,1.5881042,-14.031815,-1.0153046,1.5658417,-1.139328,0.42980957
1622,A,1149713012525370,5.6200867,-13.190109,5.8887634,0.21736145,-1.6818848,0.11148071
1622,A,1149713062879374,3.646286,-15.813477,1.4698334,-0.26924133,-0.7309418,0.26617432
1622,A,1149713113233378,-2.516739,-10.907333,1.8821106,-0.19909668,-0.64271545,0.18049622
1622,A,1149713163587382,1.5633698,-5.8284607,-2.4184418,-1.2297668,-0.16220093,0.4356537
1622,A,1149713213941386,-0.30297852,-2.9073944,0.42797852,-0.17233276,-0.92245483,0.27545166
1622,A,1149713264295390,-1.2620087,-2.1972504,3.749405,0.6560364,0.73979187,0.39390564
1622,A,1149713314649394,-1.6659851,-5.026657,0.23857117,-1.7817535,1.0066223,0.5320282
1622,A,1149713365003398,-1.3178406,-14.074707,6.300171,0.2645874,0.03993225,-0.033416748
1622,A,1149713415357402,0.29614258,-7.6503754,8.232788,-1.0058594,0.6745453,-2.0861359
1622,A,1149713465711405,4.5390167,-11.344513,6.1627655,-0.4690094,1.4197388,-1.0450897
1622,A,1149713516065409,-4.7486267,-12.269806,5.0189056,-1.2317505,0.48161316,-0.25219727
1622,A,1149713566419413,-2.3707886,-7.788559,-4.3184357,-0.9724579,0.57476807,-0.56788635
1622,A,1149713616773417,1.9545898,-10.794296,-1.1991577,-0.28494263,1.3838348,-0.8006439
1622,A,1149713667127421,-3.4266968,-8.573883,2.3251343,-0.33332825,1.3841248,-0.6585541
1622,A,1149713717481425,2.0858154,-7.1507263,-4.566391,-0.15298462,0.61943054,-0.3164978
1622,A,1149713767835429,-0.2841797,-8.486786,2.311798,-0.30062866,-0.34210205,-0.02999878
1622,A,1149713818189433,0.47200012,-8.54039,0.52101135,0.38961792,-0.6671753,0.30827332
1622,A,1149713868543437,-3.809433,-8.523727,1.3015442,1.695404,-1.149704,0.7284546
1622,A,1149713918897441,-5.9339905,-8.95488,-1.0390472,2.1332855,-0.20985413,0.8188782
1622,A,1149713969251445,-5.2269897,-10.520676,0.9518585,1.484848,0.2828064,0.80281067
1622,A,1149714019605448,-0.3393402,-13.743301,-0.3081665,1.4013519,-0.5660858,0.89082336
1622,A,1149714069959452,4.7132263,-13.064102,-1.6901093,0.7917633,-2.0674896,0.65341187
1622,A,1149714120313456,6.0520477,-15.211502,1.2516785,-0.2644348,-1.6967773,0.455307
1622,A,1149714170667460,-3.039154,-13.816132,-0.044525146,-0.37805176,-0.84243774,0.116622925
1622,A,1149714221021464,-0.003326416,-8.637375,0.9997406,-0.47094727,-0.47909546,0.098861694
1622,A,1149714271375468,0.23617554,-5.045929,-0.77648926,0.15119934,-0.5549927,0.12211609
1622,A,1149714321729472,-0.76802063,-3.156372,1.6136322,0.91342163,0.621994,0.42160034
1622,A,1149714372083476,-0.75097656,-3.247345,2.97258,-0.75375366,1.4175568,0.64237976
1622,A,1149714422437480,-0.6301117,-9.413193,4.717209,-0.59651184,-0.0770874,-0.9811554
1622,A,1149714472791484,1.215332,-17.733047,8.505264,-1.2220917,0.743042,-1.7134857
1622,A,1149714523145488,1.5728912,-15.6848755,7.012024,-1.1326599,0.84217834,-0.47650146
1622,A,1149714573499491,0.02166748,-5.762024,-2.0026245,-0.808609,0.537323,-0.5825348
1622,A,1149714623853495,-0.45457458,-8.1458435,-4.705673,-1.2430267,0.14430237,-0.7268677
1622,A,1149714674207499,-2.937622,-12.356461,0.4150238,-0.5717621,-0.008239746,-0.82354736
1622,A,1149714724561503,-0.36798096,-7.335556,3.4651337,-0.62590027,0.2271576,-0.47068787
1622,A,1149714774915507,-0.67663574,-5.8618317,-1.2901459,-0.25959778,0.22105408,-0.12063599
1622,A,1149714825269511,-2.144333,-8.197769,-0.054733276,0.15037537,-0.02218628,0.17427063
1622,A,1149714875623515,-1.666626,-8.599121,1.4632263,0.7573242,-0.30030823,0.91534424
1622,A,1149714925977519,-2.7491302,-9.636719,1.076416,1.623169,-0.6474762,1.1708069
1622,A,1149714976331523,-3.6478271,-10.272812,0.05882263,2.01799,-0.54533386,0.87709045
1622,A,1149715026685527,-2.4355774,-12.464767,-1.5226135,1.6529388,-0.37979126,0.45439148
1622,A,1149715077039530,0.45887756,-13.581711,-0.5119324,1.3254242,-0.9107361,0.40501404
1622,A,1149715127393534,4.428314,-12.927307,1.6883087,0.68585205,-1.3099213,0.27566528
1622,A,1149715177747538,3.691925,-13.590179,1.6087646,-0.25816345,-1.3279266,0.0077209473
1622,A,1149715228101542,-1.8569489,-11.4153595,0.744339,-0.6941376,-0.81396484,0.20213318
1622,A,1149715278455546,-0.8104553,-6.5606384,-0.33598328,-0.5162811,-0.36843872,0.59552
1622,A,1149715328809550,0.71461487,-2.890564,0.48104858,-0.23841858,-0.3888092,0.31472778
1622,A,1149715379163554,-0.36695862,-2.5244904,2.0276031,-0.065093994,0.3976593,0.0748291
1622,A,1149715429517558,-1.7406769,-5.0614624,3.4274902,-1.227768,1.1160736,0.24513245
1622,A,1149715479871562,0.15026855,-12.262787,5.003647,-0.9199524,0.72761536,-0.08093262
1622,A,1149715530225566,2.002182,-11.531174,5.7582703,-0.32217407,0.9998932,-1.2781677
1622,A,1149715580579570,0.55960083,-8.617203,4.08342,-1.1512146,2.235077,-1.3647919
1622,A,1149715630933573,-1.5912933,-10.909927,1.2794342,-1.1834106,1.7306061,-0.3791809
1622,A,1149715681287577,-1.1309204,-8.900635,-0.6318817,-0.91308594,0.66470337,-0.2245636
1622,A,1149715731641581,3.6724243,-8.050156,0.34724426,-0.4994049,0.80955505,-0.45806885
1622,A,1149715781995585,-0.2931671,-8.405899,2.3219147,-0.3414917,0.8980713,-0.5549469
1622,A,1149715832349589,-2.7335358,-6.9493866,-0.5653839,-0.20007324,0.34994507,-0.36398315
1622,A,1149715882703593,-0.80337524,-8.15126,0.7955017,-0.13145447,-0.08654785,-0.07737732
1622,A,1149715933057597,-1.3876343,-8.482864,1.9372559,0.6207733,-0.4342041,0.46099854
1622,A,1149715983411601,-3.1125336,-8.358276,1.3968811,1.539917,-0.80033875,0.7278137
1622,A,1149716033752863,-4.218277,-9.127106,0.60658264,1.5953827,-0.15293884,0.73735046
1622,A,1149716084106867,-3.85878,-11.13121,-0.24168396,1.1044769,0.21609497,1.2289429
1622,A,1149716134460871,-1.2252197,-14.094925,-0.76701355,0.9940033,-1.401062,0.9724426
1622,A,1149716184814874,3.6779175,-13.198059,2.333847,0.6037903,-2.1661682,0.35713196
1622,A,1149716235168878,1.9054108,-13.91597,1.6854095,0.044952393,-1.5414581,0.04374695
1622,A,1149716285522882,-1.2063904,-12.424408,0.91889954,-0.38346863,-1.3034058,-0.0949707
1622,A,1149716335876886,-0.107055664,-7.331558,-0.91799927,-0.90231323,-0.46466064,0.21980286
1622,A,1149716386230890,0.1472168,-3.430252,0.74342346,-0.40699768,-0.51763916,0.4708557
1622,A,1149716436584894,0.26924133,-3.1654053,2.06604,0.22209167,0.04336548,0.5028076
1622,A,1149716486938898,-0.12033081,-4.5073547,1.0851593,-1.0876007,0.5525055,0.21035767
1622,A,1149716537292902,-1.139389,-11.274063,3.8640594,-0.09567261,0.54234314,0.067337036
1622,A,1149716587646906,-0.35404968,-10.43718,8.084351,-0.5142975,0.2883911,-1.1284637
1622,A,1149716638000910,0.44908142,-7.184387,6.363083,-0.97257996,1.257843,-1.4468079
1622,A,1149716688354913,-0.9640198,-14.836609,-0.21697998,-1.1705933,1.0964966,-0.22247314
1622,A,1149716738708917,-1.4322052,-10.272186,-2.6516876,-1.2546387,0.50042725,-0.23980713
1622,A,1149716789062921,6.078293,-3.8851929,-2.0236206,-0.49716187,0.8131256,-0.63845825
1622,A,1149716839416925,-1.4111023,-11.916702,5.935959,-0.575058,0.88316345,-0.79722595
1622,A,1149716889770929,0.18763733,-7.8774414,-1.8486633,-0.2894287,0.5491638,-0.5021515
1622,A,1149716940124933,-0.6514435,-8.036591,0.10513306,-0.28353882,-0.10031128,-0.32518005
1622,A,1149716990478937,-0.5990143,-8.14711,1.2993164,-0.012084961,-0.45765686,0.21606445
1622,A,1149717040832941,-2.4423523,-8.170349,1.09021,1.0705872,-0.9156952,1.0560455
1622,A,1149717091186945,-4.3325043,-9.377975,-0.27067566,1.8932648,-0.71138,1.075592
1622,A,1149717141540949,-4.994171,-10.584534,0.16653442,1.4957428,0.37957764,0.7280426
1622,A,1149717191894953,-2.6080627,-13.528183,-0.46855164,1.5208435,-0.06828308,1.0428009
1622,A,1149717242248956,1.1426697,-13.489197,-1.40625,1.1441345,-1.9634552,0.40371704
1622,A,1149717292602960,7.985779,-13.800171,1.9510345,0.20243835,-1.9712982,0.15898132
1622,A,1149717342956964,-1.4693909,-14.882233,0.4285736,-0.41290283,-1.021759,0.030670166
1622,A,1149717393310968,-1.0713806,-9.48764,0.66197205,-0.3739624,-0.60954285,0.21078491
1622,A,1149717443664972,1.4962158,-5.0289764,-1.79393,-0.408844,-0.71562195,0.6182251
1622,A,1149717494018976,0.24931335,-2.4954681,1.4239349,-0.28533936,-0.098464966,0.38134766
1622,A,1149717544372980,-0.25413513,-3.025528,3.3492584,0.8775177,1.4069824,0.52963257
1622,A,1149717594726984,-2.2215118,-7.122299,1.359375,-0.17973328,1.2626495,0.4002838
1622,A,1149717645080988,0.21939087,-16.04683,6.971222,-0.9239044,-0.07739258,-0.4323883
1622,A,1149717695434992,-0.3400116,-6.956543,8.65834,-1.614975,0.9075928,-1.8648987
1622,A,1149717745788996,7.454544,-18.919632,-10.124771,-1.043335,1.402771,-0.14115906
1622,A,1149717796142999,-0.4804535,-8.387039,0.121032715,-1.4517365,0.33937073,-0.22077942
1622,A,1149717846497003,2.0437775,-3.2707672,-5.6951447,-0.42304993,0.86924744,-0.5636444
1622,A,1149717896851007,-3.0272217,-17.995056,1.3827515,-0.41773987,0.49386597,-0.7621002
1622,A,1149717947205011,-0.5680542,-5.1536255,-2.003891,-0.3625946,0.3843689,-0.47991943
1622,A,1149717997559015,-0.4577484,-8.905472,0.5346527,-0.30381775,-0.0126953125,-0.27438354
1622,A,1149718047913019,-2.219818,-8.585098,2.2395935,-0.10006714,0.046554565,0.035369873
1622,A,1149718098267023,-3.0002594,-8.332245,0.058532715,0.9677124,-0.7081604,1.0113983
1622,A,1149718148621027,-3.631195,-9.310913,0.765152,1.7070007,-0.8292999,0.9114685
1622,A,1149718198975031,-3.540802,-10.538696,0.47181702,1.6838531,0.3071289,0.9211731
1622,A,1149718249329035,-2.699173,-12.504959,1.0026703,1.2847595,-0.15003967,1.1334686
1622,A,1149718299683038,1.1255188,-13.380096,0.24279785,1.0141754,-1.798706,0.2861786
1622,A,1149718350037042,5.788727,-12.901047,3.2842407,0.34187317,-1.5531464,0.014587402
1622,A,1149718400391046,-0.20121765,-15.263687,1.6285095,-0.11038208,-1.1943054,-0.14767456
1622,A,1149718450745050,-1.3724976,-10.213989,1.5740662,-0.51034546,-0.55210876,0.016601563
1622,A,1149718501099054,1.2736206,-5.5099792,-1.019165,-0.75253296,0.042785645,0.58695984
1622,A,1149718551453058,0.31848145,-1.8795776,0.71710205,0.16041565,-0.3314972,0.31562805
1622,A,1149718601807062,-0.6939392,-3.0570526,2.5459595,0.6201172,1.1224365,0.12934875
1622,A,1149718652161066,-1.5644836,-6.9470367,2.3136292,-0.93603516,1.3466797,0.29922485
1622,A,1149718702515070,-1.1814728,-13.148148,6.02446,-0.7684326,0.47642517,-0.5138092
1622,A,1149718752869074,0.98532104,-9.240952,6.3455963,-1.1250305,1.4875793,-1.888794
1622,A,1149718803223078,2.0504303,-16.596909,2.9597778,-0.8084259,1.2999573,-0.5292511
1622,A,1149718853577081,-1.3068695,-9.306137,-0.018661499,-1.2246704,1.0882568,-0.18257141
1622,A,1149718903931085,1.1316986,-6.8132935,-4.0147095,-0.9210968,0.95251465,-0.6131439
1622,A,1149718954285089,0.4220581,-10.233627,-2.1018677,-0.28408813,1.0591583,-0.888916
1622,A,1149719004639093,-2.0578308,-8.487625,-0.056381226,-0.49853516,0.7629547,-0.5292816
1622,A,1149719054993097,0.6664429,-6.7138367,-2.4378204,-0.07585144,0.19636536,-0.23272705
1622,A,1149719105347101,-1.296463,-9.07457,2.2146149,0.22659302,0.04425049,-0.013366699
1622,A,1149719155701105,-2.214798,-8.605759,0.43556213,1.0704346,-0.3508911,0.64160156
1622,A,1149719206055109,-4.430435,-9.407303,1.1179352,1.9126434,-1.1028748,0.90512085
1622,A,1149719256409113,-4.1314697,-10.910278,0.80903625,1.4347839,-0.45864868,0.95085144
1622,A,1149719306763117,-2.8074036,-11.404831,1.0804291,1.194809,-0.29492188,1.3358917
1622,A,1149719357117121,-0.12573242,-12.493637,-0.42619324,0.90786743,-1.4864044,0.49006653
1622,A,1149719407471124,2.8949432,-13.841492,-0.79322815,0.4514923,-1.8629761,-0.20933533
1622,A,1149719457825128,0.34481812,-16.253891,-0.030227661,0.10322571,-1.3394318,-0.3121338
1622,A,1149719508179132,-3.4034424,-11.925034,-2.2866974,-0.6641083,-0.63690186,0.23423767
1622,A,1149719558533136,1.4208984,-3.7729034,-1.1356506,-0.7454071,-0.22303772,0.6770477
1622,A,1149719608887140,0.53738403,-1.8309479,1.655838,0.5936432,0.024261475,0.40905762
1622,A,1149719659241144,-0.40829468,-4.163513,1.7836609,0.050872803,1.0795135,0.5578766
1622,A,1149719709595148,-1.063858,-9.106354,2.3925934,-1.0513,0.4586792,0.30012512
1622,A,1149719759949152,0.20239258,-9.6749115,7.212509,-0.71284485,0.23786926,-1.3568268
1622,A,1149719810303156,0.89479065,-11.450134,6.332138,-0.92552185,1.2549591,-1.5696716
1622,A,1149719860657160,1.0000305,-14.52565,3.8608398,-0.9571991,1.0772095,-0.27687073
1622,A,1149719911011163,0.97314453,-7.569351,1.1204987,-1.1065979,0.5036926,-0.2915039
1622,A,1149719961365167,-0.14492798,-10.02388,-4.658066,-0.5339203,0.6514282,-0.6842346
1622,A,1149720011719171,-1.614151,-10.722824,-2.7568207,-0.3065338,0.60739136,-0.6290436
1622,A,1149720062073175,-0.6067505,-6.552475,-1.3087006,-0.2862854,0.12815857,-0.1794281
1622,A,1149720112427179,0.1348114,-7.327133,-0.2586975,-0.07319641,0.016784668,0.26315308
1622,A,1149720162781183,-1.6082001,-8.612289,0.44926453,1.0406036,-0.1519928,0.76283264
1622,A,1149720213135187,-3.2153473,-8.942001,0.8340759,1.8902283,-0.42536926,0.7684784
1622,A,1149720263489191,-4.398514,-10.220795,1.4825592,1.7045746,0.21138,0.6795807
1622,A,1149720313843195,-3.5420532,-11.688171,-0.016159058,1.440628,0.11727905,0.71022034
1622,A,1149720364197199,0.8970947,-13.494736,-1.8881073,1.0831451,-1.0188904,0.16096497
1622,A,1149720414551203,6.263916,-14.344345,0.5822449,0.29244995,-1.6446228,-0.22167969
1622,A,1149720464905206,0.37548828,-15.977356,0.99624634,-0.5553589,-1.4101715,-0.20549011
1622,A,1149720515259210,-2.4899445,-10.863419,-0.364151,-0.45329285,-0.31835938,0.58047485
1622,A,1149720565613214,0.21861267,-3.8433838,-0.38879395,-0.3777771,-0.22537231,0.75849915
1622,A,1149720615967218,0.45602417,-1.3430328,0.5026398,0.39709473,0.19487,0.29403687
1622,A,1149720666321222,-1.6689148,-2.4609528,2.5752869,-0.72802734,1.3778381,0.44439697
1622,A,1149720716675226,-1.6445923,-9.252045,3.3912659,-0.7384949,0.70259094,0.03945923
1622,A,1149720767029230,2.2315826,-8.147446,5.9841003,-0.90148926,0.6565094,-1.4096985
1622,A,1149720817383234,6.76416,-11.629776,8.76683,-1.0091248,1.1865997,-1.2273254
1622,A,1149720867737238,1.4393616,-11.280197,2.7291412,-0.8970032,1.2883148,-0.33244324
1622,A,1149720918091242,-1.067627,-8.355988,-2.089035,-1.2342529,0.9489136,-0.36216736
1622,A,1149720968445246,2.0411987,-7.2721252,-2.9365692,-0.50109863,0.8711548,-0.65922546
1622,A,1149721018799249,-0.71707153,-9.909134,3.3358612,-0.54885864,0.68740845,-0.6481018
1622,A,1149721069153253,0.50187683,-7.119461,-1.6361084,-0.22535706,0.19177246,-0.3683319
1622,A,1149721119507257,-0.63664246,-8.079651,0.17002869,-0.04840088,0.029525757,-0.0521698
1622,A,1149721169861261,-1.5677948,-8.387497,0.82766724,0.58226013,-0.09277344,0.5150299
1622,A,1149721220215265,-3.3704834,-8.648041,1.5171814,1.573288,-0.67022705,0.75946045
1622,A,1149721270569269,-4.190048,-10.329666,0.30752563,1.6202545,-0.5547333,0.6023407
1622,A,1149721320923273,-3.3991394,-10.787796,1.5697937,1.0180664,-0.092803955,1.3340454
1622,A,1149721371277277,-0.3033905,-13.726044,-0.6638031,1.1125641,-1.1026459,0.6784973
1622,A,1149721421631281,4.4578857,-11.880936,0.40263367,0.6391754,-1.6789093,0.17977905
1622,A,1149721471985285,3.296692,-14.148407,1.2532349,0.27549744,-1.2932434,-0.09617615
1622,A,1149721522339288,-2.4986877,-13.985443,-0.1572876,-0.3519287,-0.683548,-0.18618774
1622,A,1149721572693292,0.7920685,-7.0191345,-1.566925,-1.0244598,0.1136322,0.57876587
1622,A,1149721623047296,1.0479279,-2.0223236,0.6359863,-0.08654785,-0.50149536,0.59921265
1622,A,1149721673401300,0.27189636,-2.5552979,2.3529816,0.8726196,0.86787415,0.47209167
1622,A,1149721723755304,-1.3995819,-6.821228,0.9761658,-1.435791,0.49467468,0.08782959
1622,A,1149721774109308,-1.4647522,-13.128494,5.608673,0.17514038,0.09286499,0.059936523
1622,A,1149721824463312,-0.13694763,-6.289612,7.4335785,-1.1835632,0.6847687,-1.9253998
1622,A,1149721874817316,7.480072,-11.535202,6.195404,-0.2752838,1.435379,-0.8491821
1622,A,1149721925171320,-1.2814484,-9.736755,8.417282,-1.5227051,0.65296936,-0.12297058
1622,A,1149721975525324,-1.9371948,-7.2049866,-2.8381958,-1.0403595,0.29896545,-0.5956421
1622,A,1149722025879328,3.9588623,-10.349533,-3.8980255,-0.32539368,0.8236389,-0.97561646
1622,A,1149722076233331,-4.0888977,-9.396896,0.40548706,-0.56985474,0.63204956,-0.43995667
1622,A,1149722126587335,1.2984772,-6.824539,-2.2979584,-0.16133118,-0.09791565,-0.06185913
1622,A,1149722176941339,-1.643631,-9.408691,1.7407684,-0.10267639,-0.14619446,0.1317749
1622,A,1149722227295343,-1.0258026,-7.3665314,-0.40885925,0.8894501,-0.65948486,0.80418396
1622,A,1149722277649347,-4.309143,-9.391388,2.1045837,1.8978882,-1.0228271,0.73106384
1622,A,1149722328003351,-4.0145416,-10.860931,-0.014511108,1.5831757,-0.37498474,0.5760498
1622,A,1149722378357355,-3.8128967,-11.998352,0.3032074,0.9915924,0.12736511,1.0830841
1622,A,1149722428711359,-0.4428711,-13.189072,-1.0928345,1.1633911,-1.154541,0.42861938
1622,A,1149722479065363,5.6747284,-10.529739,4.264557,0.43389893,-1.6213531,-0.013702393
1622,A,1149722529419367,3.1487427,-15.086624,1.2653351,-0.23008728,-1.3185883,-0.129776
1622,A,1149722579773371,-4.838867,-12.453232,0.8249817,-0.5056,-0.5512085,-0.10316467
1622,A,1149722630127374,1.6697845,-5.498871,-0.9448395,-0.6779938,0.19943237,0.5772095
1622,A,1149722680481378,0.91539,-1.799881,1.4837036,-0.030822754,-0.45046997,0.3944397
1622,A,1149722730835382,-0.4559784,-3.4973907,2.5910797,1.1288452,0.64727783,0.12814331
1622,A,1149722781189386,-1.4711914,-7.6708374,2.7138367,-0.6429138,0.8843689,-0.0854187
1622,A,1149722831543390,0.113098145,-13.828705,5.8078766,-0.6464081,0.28630066,-0.067611694
1622,A,1149722881897394,-0.797699,-7.705139,7.537613,-1.0815887,0.6470642,-1.7397461
1622,A,1149722932251398,-4.8651276,-18.218323,0.29833984,-0.67840576,0.7223816,-0.5164795
1622,A,1149722982605402,-2.7173615,-10.357468,4.3483124,-1.255722,0.3859558,-0.039627075
1622,A,1149723032959406,-0.21827698,-7.440689,-3.3950653,-0.77511597,0.4686432,-0.6088257
1622,A,1149723083313410,0.8313446,-9.935928,-3.4678192,-0.348938,0.5712738,-0.7979889
1622,A,1149723133667413,-2.7583466,-8.920486,0.88072205,-0.5826721,0.41007996,-0.4828949
1622,A,1149723184021417,0.97953796,-6.9483337,-1.2642975,-0.16947937,-0.14309692,-0.1083374
1622,A,1149723234375421,-0.9396515,-9.139755,1.6399078,0.3033142,-0.26870728,0.24038696
1622,A,1149723284729425,-1.6486511,-8.1371155,-0.065093994,1.3529205,-0.79945374,0.8549042
1622,A,1149723335083429,-3.9797668,-9.204086,1.2026062,1.6639404,-0.3274994,0.82629395
1622,A,1149723385437433,-4.1146545,-11.407669,0.3338623,1.3392639,0.455307,1.0857239
1622,A,1149723435791437,-2.8038177,-13.030548,-0.10447693,1.070816,-0.35585022,0.9459686
1622,A,1149723486145441,2.4229584,-13.951462,0.044174194,0.91433716,-2.0663605,-0.012634277
1622,A,1149723536499445,5.0963287,-12.054672,2.234375,0.3577881,-1.6103516,-0.28964233
1622,A,1149723586853449,0.4942932,-13.383194,0.8888092,-0.47003174,-0.95588684,-0.039474487
1622,A,1149723637207453,-1.3325195,-9.476913,-0.27729797,-0.88264465,-0.28855896,0.3949585
1622,A,1149723687561456,0.3453827,-3.376007,-0.19361877,-0.44659424,0.10813904,0.68562317
1622,A,1149723737915460,-0.11201477,-2.0091248,2.2530975,0.5131073,-0.29162598,0.41714478
1622,A,1149723788269464,-0.67900085,-5.1265106,3.172699,0.65930176,0.68911743,0.021362305
1622,A,1149723838623468,-0.82614136,-9.70163,3.9306946,-0.54437256,0.800766,-0.1550293
1622,A,1149723888977472,-0.013320923,-11.944763,5.6551514,-0.989975,0.7306366,-0.68148804
1622,A,1149723939331476,-0.5901489,-11.662033,6.1263733,-1.2460938,1.2214966,-1.3352356
1622,A,1149723989685480,-2.0660858,-15.2704315,2.3655853,-0.91563416,0.7496643,-0.57011414
1622,A,1149724040039484,-1.6049957,-8.74118,1.3872528,-1.2771606,0.46748352,-0.43327332
1622,A,1149724090393488,-0.54945374,-9.783752,-3.5147705,-0.62916565,0.622345,-0.6166992
1622,A,1149724140747492,-0.32894897,-9.82811,-2.6677246,-0.37924194,0.614563,-0.52082825
1622,A,1149724191101496,-1.3963623,-7.204941,-1.7812958,-0.24133301,0.13392639,-0.21832275
1622,A,1149724241455499,0.051239014,-7.673462,0.17707825,-0.021972656,-0.216568,0.03538513
1622,A,1149724291809503,-1.8388214,-9.181885,1.6563416,0.605072,-0.4402771,0.51545715
1622,A,1149724342163507,-3.0058136,-9.190079,0.16842651,1.6526642,-0.86032104,0.74082947
1622,A,1149724392517511,-3.7181244,-10.063904,1.2616882,1.6183624,-0.39031982,0.6409607
1622,A,1149724442871515,-3.127365,-12.344452,0.64134216,1.0918732,0.40014648,0.9502106
1622,A,1149724493225519,-1.1342926,-13.582581,-0.05671692,0.91296387,-0.63597107,0.7966614
1622,A,1149724543579523,3.6898499,-12.368622,0.8091736,0.6172333,-1.7289734,0.17778015
1622,A,1149724593933527,3.1723022,-13.606018,3.1264343,-0.022918701,-1.3839111,-0.17816162
1622,A,1149724644287531,-0.7341461,-12.575928,1.1351929,-0.45173645,-0.719223,-0.08538818
1622,A,1149724694641535,-0.058242798,-6.569153,-1.3614502,-0.71473694,-0.19010925,0.40464783
1622,A,1149724744995538,0.786438,-2.0366058,0.04536438,-0.0342865,-0.1651001,0.6048126
1622,A,1149724795349542,0.37860107,-2.632904,2.2500763,0.7774811,0.68115234,0.44784546
1622,A,1149724845703546,-0.95240784,-7.863922,2.6270142,0.22058105,1.1397095,0.15686035
1622,A,1149724896057550,0.74198914,-13.856064,4.672058,-0.6381378,0.2059784,-0.093826294
1622,A,1149724946411554,0.039138794,-9.590424,7.8207855,-1.4226837,0.42791748,-1.2117004
1622,A,1149724996765558,3.316803,-13.487717,-2.6035004,-1.1621704,0.88616943,-0.88160706
1622,A,1149725047119562,1.0951538,-13.753357,-2.9163055,-1.3948212,0.6004181,-0.34375
1622,A,1149725097473566,-0.7772217,-6.583893,-1.8279724,-1.0849152,0.58047485,-0.59884644
1622,A,1149725147827570,0.045181274,-10.396027,-0.7521515,-0.60787964,0.660202,-0.8074646
1622,A,1149725198181574,-1.0348053,-9.784592,-1.0778961,-0.3341217,0.6005249,-0.47851563
1622,A,1149725248535578,-0.1817627,-7.644989,-1.0421143,0.030075073,0.26332092,-0.031845093
1622,A,1149725298889581,-0.5189972,-8.025269,1.8110046,0.61091614,-0.050094604,0.5138397
1622,A,1149725349243585,-2.1373138,-8.404465,0.10697937,1.8839874,-0.87693787,0.98295593
1622,A,1149725399597589,-4.0651093,-10.192825,0.75439453,1.5832367,-0.41326904,0.64045715
1622,A,1149725449951593,-4.2901,-10.893005,1.4524841,0.9676666,0.37471008,1.5392609
1622,A,1149725500305597,-1.7163849,-12.979187,0.0823822,1.0219574,-1.0972748,0.9726105
1622,A,1149725550659601,3.9938507,-13.380112,-0.031158447,0.5171509,-1.9255829,0.1078949
1622,A,1149725601013605,4.5091095,-15.1219635,2.415619,0.01991272,-1.4311066,-0.28819275
1622,A,1149725651367609,-4.772064,-14.850754,-1.6231232,-0.42211914,-0.6343994,-0.29774475
1622,A,1149725701721613,-0.6554718,-7.7796936,-2.4654388,-0.6270447,-0.114608765,0.07368469
1622,A,1149725752075617,1.1040955,-2.5103607,0.5473633,-0.4665985,-0.5834503,0.41888428
1622,A,1149725802429621,0.5698395,-3.0767517,2.5275574,1.598114,0.47576904,0.2531891
1622,A,1149725852783624,-0.15847778,-5.1654053,1.4928436,-0.1179657,0.66345215,-0.40914917
1622,A,1149725903137628,-2.0281525,-12.529251,2.698227,-0.72909546,0.43034363,-0.04182434
1622,A,1149725953491632,-2.1617432,-10.520813,9.601624,-1.6912689,1.1804047,-1.5994263
1622,A,1149726003855577,-3.9007263,-17.628937,3.7113647,-0.66433716,1.7165833,-0.6320648
1622,A,1149726054209581,-1.8317566,-9.927765,5.6109924,-1.2903442,0.55096436,-0.36947632
1622,A,1149726104563585,-2.0343475,-8.4002075,-3.147293,-1.0820007,0.8340759,-0.5576782
1622,A,1149726154917589,2.277832,-12.801285,-3.5713959,-0.430542,0.70874023,-0.8227844
1622,A,1149726205271593,-1.6183167,-7.2213745,-2.434967,-0.41290283,0.5773468,-0.45037842
1622,A,1149726255625597,0.6322632,-6.1515656,-2.813324,0.14498901,-0.11843872,0.05155945
1622,A,1149726305979601,-1.6905212,-8.825012,2.6204376,0.5593262,-0.3504486,0.66600037
1622,A,1149726356333604,-2.580536,-8.800812,-0.034423828,1.7223969,-0.5861206,0.81900024
1622,A,1149726406687608,-4.5034485,-9.780319,2.0850983,1.3946838,0.14665222,0.53315735
1622,A,1149726457041612,-4.227005,-10.406342,0.6221771,1.1907043,0.49899292,0.74931335
1622,A,1149726507395616,-1.2180786,-13.821518,-1.8651428,1.3672485,-0.3534546,0.4777832
1622,A,1149726557749620,5.7613373,-12.769379,1.1212616,0.6341095,-1.5557861,0.24107361
1622,A,1149726608103624,5.6688232,-13.684998,2.2519684,-0.028137207,-1.5529785,0.14007568
1622,A,1149726658457628,-4.8858643,-14.819656,1.0844727,-0.71165466,-0.6142578,-0.09857178
1622,A,1149726708811632,0.7591858,-6.3087006,-1.1141815,-0.6327667,-0.19779968,0.4609375
1622,A,1149726759165636,0.17207336,-4.333954,0.19241333,-0.23046875,-0.6181183,0.45954895
1622,A,1149726809519640,-0.88171387,-0.7121277,1.7690125,0.31488037,0.5649109,0.4163208
1622,A,1149726859873644,-0.4897766,-4.598892,2.69516,-0.23069763,0.1696167,-0.2271576
1622,A,1149726910227647,-0.9905853,-12.848663,4.14447,-0.28889465,0.9155731,0.5216675
1622,A,1149726960581651,0.18258667,-9.26738,7.7109985,-1.3261261,-0.39544678,-0.4133911
1622,A,1149727010935655,-0.6802368,-3.7841797,1.7720337,-1.640976,1.0874634,-1.3479004
1622,A,1149727061289659,8.727783,-18.72084,-11.284973,-1.2333221,1.3088684,-0.13667297
1622,A,1149727111643663,-0.8283844,-7.5517273,0.57203674,-1.192276,0.52604675,-0.6510925
1622,A,1149727161997667,2.7616272,-2.0027313,-3.9722137,-0.55477905,0.9686127,-0.7510834
1622,A,1149727212351671,-1.443985,-17.102371,7.087555,-0.5685272,0.6904602,-0.6682129
1622,A,1149727262705675,0.5495453,-6.9268036,-3.9770355,-0.06440735,0.39518738,-0.16905212
1622,A,1149727313059679,-1.1355591,-8.689682,-0.66845703,0.11428833,0.17855835,0.10688782
1622,A,1149727363413683,-0.8545227,-7.295883,3.3093262,1.2812653,-0.15475464,0.8412628
1622,A,1149727413767687,-3.3263397,-7.5186768,-0.41662598,1.8827515,-0.25454712,0.9730835
1622,A,1149727464121690,-4.419052,-11.046951,-0.24801636,1.5530243,0.41992188,1.1418304
1622,A,1149727514475694,-3.3220825,-13.030731,-0.90563965,0.92658997,0.1299591,1.6312714
1622,A,1149727564829698,2.4393158,-14.399078,1.4400787,0.9262085,-1.6957855,0.31506348
1622,A,1149727615183702,5.0260315,-10.68782,6.8440704,0.3448639,-1.2771606,-0.11778259
1622,A,1149727665537706,0.99993896,-15.138672,1.801178,-0.38833618,-0.9489136,-0.24308777
1622,A,1149727715891710,-1.1152344,-10.218185,0.9287262,-0.758255,-0.6670532,0.23617554
1622,A,1149727766245714,0.97554016,-1.753479,-0.8278351,-0.38578796,-0.6813812,0.7255707
1622,A,1149727816599718,0.93904114,-1.5659943,1.7827759,0.25697327,-0.83406067,0.40725708
1622,A,1149727866953722,-0.84687805,-3.3236084,2.4974518,-0.08685303,-0.23826599,0.25971985
1622,A,1149727917307726,-3.088623,-9.040421,2.6873322,-0.9115906,0.6660919,0.34777832
1622,A,1149727967661729,-3.917038,-15.213394,5.941498,0.27111816,0.46546936,-0.71440125
1622,A,1149728018015733,0.90567017,-6.993881,7.796402,-1.0815582,0.63679504,-1.329773
1622,A,1149728068369737,1.2556152,-9.144394,4.2821045,-2.1061401,1.3338318,-0.5004883
1622,A,1149728118723741,0.40257263,-10.510239,1.5923309,-1.033081,0.6516876,-0.19166565
1622,A,1149728169077745,0.023269653,-9.321457,-1.7859192,-1.0705872,0.22817993,-0.82922363
1622,A,1149728219431749,0.16113281,-9.1588745,0.5758209,-0.7259674,0.32092285,-1.0547333
1622,A,1149728269785753,-2.026245,-11.617126,2.995514,-0.5802002,0.438797,-0.7071686
1622,A,1149728320139757,-0.9611206,-7.41185,-0.11454773,-0.3651886,0.24937439,-0.19210815
1622,A,1149728370493761,0.0597229,-7.3548737,0.5903168,-0.08988953,-0.13070679,-0.07362366
1622,A,1149728420847765,-1.4180145,-7.1532135,2.293167,0.46855164,-0.4944458,0.54837036
1622,A,1149728471201769,-3.0463104,-8.883987,0.17503357,1.568924,-0.90567017,0.94470215
1622,A,1149728521555772,-4.263748,-10.638489,0.4340515,1.701477,-0.38690186,0.7490387
1622,A,1149728571909776,-4.048065,-11.845779,0.18885803,1.2545624,0.27912903,0.89971924
1622,A,1149728622263780,-1.56427,-12.790543,-0.16972351,1.1926422,-0.6368103,0.86083984
1622,A,1149728672617784,4.372574,-12.447632,1.271698,0.77282715,-1.6410675,0.23353577
1622,A,1149728722971788,5.4972534,-13.280365,3.898529,-0.075927734,-1.327713,0.007461548
1622,A,1149728773325792,-0.6754761,-12.873779,1.7480469,-0.47801208,-0.70170593,-0.031295776
1622,A,1149728823679796,-0.7066345,-8.316177,-0.13342285,-0.45428467,-0.2531433,0.35699463
1622,A,1149728874033800,1.453537,-3.4479523,0.13066101,-0.2649231,-0.27267456,0.5809326
1622,A,1149728924387804,0.3473816,-1.7245789,2.1869812,0.21984863,1.2344513,0.41722107
1622,A,1149728974741808,-1.0838623,-5.4769287,2.881134,0.3824463,1.7425232,0.2210846
1622,A,1149729025095812,0.048690796,-12.970993,4.040207,-0.5034485,0.4203949,-0.25656128
1622,A,1149729075449815,0.060546875,-10.379257,7.4006042,-1.557724,0.71902466,-1.1003723
1622,A,1149729125803819,4.6957855,-11.931702,-4.9678802,-1.3230438,1.1176147,-0.8682251
1622,A,1149729176157823,3.1849518,-14.259415,-8.361633,-1.3032684,0.6941376,-0.3762207
1622,A,1149729226511827,-1.1788025,-5.3454285,-2.2395172,-1.0437927,0.7651367,-0.6128845
1622,A,1149729276865831,-0.7202759,-9.276138,1.0201874,-0.5765991,0.78422546,-0.7898865
1622,A,1149729327219835,-1.0432434,-10.360687,1.2796173,-0.29252625,0.5326538,-0.4957428
1622,A,1149729377573839,0.111846924,-7.2786255,-1.579773,-0.0079193115,0.10597229,-0.14387512
1622,A,1149729427927843,-0.5970001,-8.405487,1.8157806,0.48516846,-0.3284912,0.43981934
1622,A,1149729478281847,-2.7044525,-8.359589,1.1499329,1.3986664,-0.47265625,0.8169098
1622,A,1149729528635851,-4.263397,-9.780792,0.3708954,1.6141357,-0.07058716,0.65379333
1622,A,1149729578989854,-4.562851,-10.852753,0.0677948,1.3435364,0.27345276,0.7382965
1622,A,1149729629343858,-1.8097992,-13.358887,-1.1462708,1.3413696,-0.25956726,0.63227844
1622,A,1149729679697862,4.096298,-12.067688,1.448349,0.7696533,-1.3747559,0.46896362
1622,A,1149729730051866,5.6089783,-12.641129,2.1981049,-0.016677856,-1.7252655,0.3236084
1622,A,1149729780405870,-2.0705872,-14.047913,1.3534698,-0.52885437,-1.1538239,0.057174683
1622,A,1149729830759874,-1.0487366,-8.526413,-0.7367859,-0.5255432,-0.36314392,0.57437134
1622,A,1149729881113878,0.9802704,-3.7499084,0.011657715,-0.32951355,-0.44354248,0.40168762
1622,A,1149729931467882,-0.6664734,-1.6853027,1.7666931,1.028595,1.3302917,0.5075073
1622,A,1149729981821886,-1.9575195,-4.6990356,2.526947,0.75146484,1.1301727,0.09754944
1622,A,1149730032175890,0.14833069,-13.3159485,4.4414215,-1.1344604,-0.03213501,-0.5047302
1622,A,1149730082529894,1.403183,-8.621582,8.243103,-1.6367035,0.15232849,-0.9192352
1622,A,1149730132883897,4.1171875,-15.921158,-8.9965515,-1.121872,0.6055908,-0.37236023
1622,A,1149730183237901,0.22012329,-11.941757,-4.159439,-1.4827423,0.565094,-0.40786743
1622,A,1149730233591905,0.6403351,-5.332077,-3.94841,-0.97343445,0.5634155,-0.8019409
1622,A,1149730283945909,-0.6802063,-13.380371,3.36174,-0.6648865,0.50442505,-0.8802948
1622,A,1149730334299913,0.5784302,-8.315338,1.2127228,-0.5379181,0.68078613,-0.37197876
1622,A,1149730384653917,0.6522064,-7.0995026,-2.3167267,0.060913086,0.04710388,-0.08103943
1622,A,1149730435007921,-0.44526672,-8.245956,2.426712,0.4646759,-0.09379578,0.4006958
1622,A,1149730485361925,-2.270172,-8.202225,0.35427856,1.5981598,-0.69311523,1.145462
1622,A,1149730535715929,-4.0428314,-10.245651,0.98153687,2.0532684,-0.32081604,0.8077698
1622,A,1149730586069933,-3.8164368,-10.703629,0.6124573,1.5250244,0.43563843,0.68266296
1622,A,1149730636423937,-2.039154,-14.253296,-1.83107,1.5222931,0.06695557,0.79722595
1622,A,1149730686777940,2.5470428,-12.690613,0.6816406,0.8445282,-1.580246,0.51553345
1622,A,1149730737131944,8.68309,-14.403641,-0.7420807,0.07041931,-1.621521,0.30181885
1622,A,1149730787485948,-3.4116516,-14.924393,0.6105957,-0.53453064,-1.0092468,-0.03224182
1622,A,1149730837839952,0.14382935,-7.9144745,0.53170776,-0.73828125,0.12974548,0.080215454
1622,A,1149730888193956,0.47883606,-3.7734833,-1.1015472,-0.27967834,-0.7660675,0.13827515
1622,A,1149730938547960,-0.92974854,-2.147049,2.0707703,0.37832642,0.42552185,0.58517456
1622,A,1149730988901964,-1.1963348,-3.9296875,2.0262146,-0.2255249,1.5710907,0.6539612
1622,A,1149731039255968,0.42185974,-9.973938,3.2642365,-0.38830566,0.5775757,-0.45095825
1622,A,1149731089609972,0.8589325,-11.176102,5.1927795,-0.11514282,0.2480011,-1.3057709
1622,A,1149731139963976,-2.2414093,-11.421951,5.6746826,-2.5859222,1.638092,-1.0150604
1622,A,1149731190317979,1.5085449,-19.187225,-6.798111,-0.7326813,0.9010773,-0.14691162
1622,A,1149731240671983,0.6616974,-7.5505066,1.9859161,-1.3471069,0.08773804,-0.4825592
1622,A,1149731291025987,3.0582886,-3.5544891,0.20095825,-0.6461029,0.4112091,-0.7314606
1622,A,1149731341379991,-3.7144928,-13.575226,3.7661285,-0.486557,0.45384216,-0.8295593
1622,A,1149731391733995,-2.2401733,-6.6650085,-2.2493286,-0.3154297,0.07521057,-0.23800659
1622,A,1149731442087999,-0.85380554,-8.090897,2.5406647,0.10317993,-0.5699463,0.2813568
1622,A,1149731492442003,-1.3628082,-8.502823,2.342575,0.5871124,-0.009552002,0.75305176
1622,A,1149731542796007,-3.015686,-8.2773285,-0.22650146,1.68396,0.0084991455,1.2055817
1622,A,1149731593150011,-4.6514587,-9.594437,0.22595215,1.7293396,0.29084778,0.34899902
1622,A,1149731643504015,-2.7048035,-14.455582,-1.9364166,1.2711029,0.054901123,0.17689514
1622,A,1149731693858019,1.8208923,-14.484772,2.2938843,1.2049866,-0.3060913,0.37942505
1622,A,1149731744212022,4.770447,-10.913696,1.3351898,0.26826477,-1.1374512,0.064575195
1622,A,1149731794566026,2.562378,-12.648987,-0.13490295,-0.70677185,-1.3809967,-0.018554688
1622,A,1149731844920030,-2.553299,-12.427643,1.6950226,-0.6911011,-0.66026306,0.14433289
1622,A,1149731895274034,0.03465271,-5.4750214,0.056015015,-0.00819397,0.36495972,0.8121338
1622,A,1149731945628038,0.32611084,-1.6838074,0.23968506,0.21644592,-0.15301514,0.37405396
1622,A,1149731995982042,-1.5749664,-2.471283,1.5792847,0.9469147,0.78186035,-0.2548828
1622,A,1149732046336046,-2.0362854,-8.135712,5.413498,-0.49028015,1.0636444,-0.17880249
1622,A,1149732096690050,2.0179138,-15.45752,5.8441772,-0.4225464,-0.063812256,-0.41833496
1622,A,1149732147044054,1.5121765,-7.5972595,6.6135406,-1.1789856,0.9430237,-1.8344269
1622,A,1149732197398058,2.619751,-16.780487,3.0314178,-0.71539307,1.4639282,-0.48179626
1622,A,1149732247752062,-3.1859436,-11.667038,-0.2920227,-1.4060059,0.57321167,-0.4968109
1622,A,1149732298106065,0.38130188,-7.2247314,-4.806732,-0.7778015,0.7819824,-0.7012634
1622,A,1149732348460069,1.6931915,-11.795364,-2.6786804,-0.3840332,0.8973236,-0.6571655
1622,A,1149732398814073,-1.1321716,-6.5226746,-2.2081451,-0.075653076,0.54255676,-0.18104553
1622,A,1149732449168077,0.020935059,-7.579666,-0.38897705,0.68273926,-0.13166809,0.33587646
1622,A,1149732499522081,-1.3412933,-7.6868896,1.984848,1.5784607,-0.74617004,1.0052643
1622,A,1149732549876085,-3.6320496,-7.8124847,-0.2468872,2.0019836,-0.37838745,0.7595062
1622,A,1149732600230089,-5.025177,-11.57341,2.5169067,1.1681366,0.48376465,0.7671356
1622,A,1149732650584093,-3.4392548,-12.56517,-0.41929626,1.0441742,-0.13618469,1.1644745
1622,A,1149732700938097,2.4590302,-14.012573,0.93782043,0.57411194,-1.9202881,0.59228516
1622,A,1149732751292101,5.5319977,-12.894272,4.306839,-0.10139465,-2.3128052,0.13887024
1622,A,1149732801646104,-0.997406,-13.520081,1.962143,-0.60531616,-1.8223419,0.03781128
1622,A,1149732852000108,-2.590805,-8.212021,-0.44369507,-0.63505554,-0.83984375,0.4889984
1622,A,1149732902354112,1.3228607,-2.7244415,-0.8031769,-0.092041016,-0.5925751,0.844574
1622,A,1149732952708116,-0.03704834,-1.5133972,1.0894775,0.4230194,-0.18934631,0.57232666
1622,A,1149733003062120,-1.6896515,-4.7467194,2.7099762,-0.056991577,1.0895233,0.07052612
1622,A,1149733053416124,-0.016571045,-12.914978,3.9507751,-0.7458801,0.79875183,-0.44612122
1622,A,1149733103770128,3.366623,-13.264008,6.0999756,-1.0462646,0.5426636,-0.9986267
1622,A,1149733154124132,2.6028442,-10.62265,7.104706,-1.5980377,1.5647125,-0.92755127
1622,A,1149733204478136,3.288681,-14.367416,3.531723,-1.0520172,1.0814209,-0.42512512
1622,A,1149733254832140,2.2425995,-6.48909,0.34402466,-0.9134979,0.61135864,-0.5825348
1622,A,1149733305186144,-0.2922516,-11.559952,-1.6755371,-0.62861633,0.9764557,-0.49769592
1622,A,1149733355540147,-1.6744537,-13.187607,-2.2694397,-0.4725647,0.66116333,-0.529953
1622,A,1149733405894151,-0.6387024,-7.0233917,-1.579956,-0.14074707,0.05117798,-0.46832275
1622,A,1149733456248155,-0.90345764,-8.40593,1.5165405,0.21508789,-0.16329956,-0.043319702
1622,A,1149733506602159,-2.0861206,-8.0993805,1.2679596,1.0344086,-0.49978638,0.74295044
1622,A,1149733556956163,-3.5336914,-8.86882,0.6444397,2.0102692,-0.61338806,1.0653534
1622,A,1149733607310167,-3.7104492,-10.606689,1.2475433,1.7162628,0.057022095,0.86239624
1622,A,1149733657664171,-2.2535706,-13.477539,-0.18157959,1.2816925,0.26512146,1.0219727
1622,A,1149733708018175,0.63871765,-13.761673,-1.2359314,0.9441681,-1.114624,0.9867554
1622,A,1149733758372179,6.227768,-12.33609,0.64230347,0.38804626,-2.0090027,0.47088623
1622,A,1149733808726183,2.027359,-14.050049,1.3627625,-0.011978149,-1.5518494,0.085510254
1622,A,1149733859080187,-2.9061432,-11.890701,0.36906433,-0.57003784,-0.9064331,0.124694824
1622,A,1149733909434190,-0.18370056,-6.062683,-0.97029114,-0.50491333,-0.6794739,0.24502563
1622,A,1149733959788194,0.52194214,-2.7760773,0.9144287,0.2843933,-0.38900757,0.32925415
1622,A,1149734010142198,-0.4815216,-2.5956268,1.9228668,0.45887756,0.8917999,0.3063202
1622,A,1149734060496202,-0.6639557,-5.3402405,1.0903625,-0.7188721,0.62323,-0.2616577
1622,A,1149734110850206,2.5892792,-14.658951,3.39888,-0.3171997,0.057861328,-0.54125977
1622,A,1149734161204210,2.0248566,-11.414597,8.35611,-0.84983826,0.76856995,-1.2556915
1622,A,1149734211558214,1.2054901,-10.630417,1.4648743,-1.4132996,1.2173157,-0.53648376
1622,A,1149734261912218,-0.69314575,-12.752777,0.68177795,-1.2151642,0.6160736,-0.1926117
1622,A,1149734312266222,-0.3274231,-8.895309,0.6367798,-0.78938293,0.2993164,-0.6214447
1622,A,1149734362620226,-0.15885925,-12.2743225,-3.0576477,-0.585022,0.59851074,-0.8183136
1622,A,1149734412974229,-2.0623016,-10.731857,-0.039535522,-0.5254669,0.50930786,-0.55796814
1622,A,1149734463328233,0.5776367,-7.0299377,0.52349854,-0.19628906,-0.034591675,-0.31825256
1622,A,1149734513682237,-0.20394897,-8.133972,0.49743652,0.15722656,-0.35705566,0.11216736
1622,A,1149734564036241,-1.3718109,-8.035767,1.2875977,1.0101013,-0.5174866,0.7907562
1622,A,1149734614390245,-3.1030426,-8.747574,1.1061401,1.9694977,-0.46238708,0.9554901
1622,A,1149734664744249,-4.0696106,-9.926315,0.4140625,1.4349518,0.21562195,0.6195526
1622,A,1149734715098253,-2.3415375,-14.367233,-0.51426697,1.3179016,0.2970581,0.83361816
1622,A,1149734765452257,0.7390137,-13.3452,0.63223267,1.0620575,-1.4172211,0.70791626
1622,A,1149734815806261,7.307663,-11.811722,2.669098,0.16970825,-2.1444397,0.511322
1622,A,1149734866160265,0.97869873,-13.550674,1.9183655,-0.51361084,-1.6675262,0.36894226
1622,A,1149734916514269,-2.9687958,-10.715607,0.29597473,-0.69937134,-0.6443329,0.30749512
1622,A,1149734966868272,0.46731567,-6.5420837,-1.6781464,-0.36325073,-0.13586426,0.67237854
1622,A,1149735017222276,-0.16029358,-2.8628235,1.3712769,0.1949768,-0.4705963,0.7657013
1622,A,1149735067576280,-0.23347473,-3.0331116,2.2669373,0.7444916,-0.15367126,0.22605896
1622,A,1149735117930284,-0.66104126,-7.2418365,3.1604614,-1.1994934,0.85432434,0.451828
1622,A,1149735168284288,0.8065796,-15.53064,4.3815155,0.3414154,-0.4373474,-0.116622925
1622,A,1149735218638292,-0.22773743,-7.4937897,7.8906097,-0.9552002,0.20272827,-1.694046
1622,A,1149735268992296,-1.0330353,-14.764175,2.7551575,-0.651947,0.33287048,-1.3949738
1622,A,1149735319346300,1.6352997,-7.9822235,4.5594788,-1.3060455,0.2626648,0.23997498
1622,A,1149735369700304,-0.54196167,-7.701523,-3.0401306,-1.4501038,-0.050964355,-0.048553467
1622,A,1149735420054308,0.7846832,-9.153732,-4.8149414,-0.76789856,0.18743896,-0.6181793
1622,A,1149735470408312,-1.818573,-11.915039,5.419647,-0.7310333,0.1552887,-0.9855194
1622,A,1149735520762315,0.2566681,-7.182831,-2.5091705,-0.2960968,-0.07887268,-0.32809448
1622,A,1149735571116319,0.15437317,-8.318375,0.542572,0.09121704,-0.06362915,-0.25476074
1622,A,1149735621470323,-0.5271759,-8.427048,2.7775726,0.54525757,-0.103881836,0.35362244
1622,A,1149735671824327,-3.3112335,-8.34343,-0.6392822,1.8221436,-0.94506836,1.1476746
1622,A,1149735722178331,-3.3370972,-10.111862,1.3700104,2.1283722,-0.4197235,0.54777527
1622,A,1149735772532335,-2.4617004,-10.668777,0.8254242,1.2318573,0.76734924,0.7184601
1622,A,1149735822886339,-0.96092224,-14.545059,-1.6834564,1.522232,-0.06562805,1.2011414
