Subject-Id,Activity Label,Time stamp,Accel_x,Accel_y,Accel_z,Gyro_x,Gyro_y,Gyro_z
1634,A,77923858222407,-2.667221,-7.5071106,-0.52967834,2.58844,-1.6897583,0.20280457
1634,A,77923908576411,-2.8750763,-7.520111,-0.48384094,2.54747,-1.3552551,0.81069946
1634,A,77923958930415,-3.0585632,-9.0469055,1.5241699,1.5012665,-1.1154938,1.2386932
1634,A,77924009284418,-5.714081,-14.510544,1.9184113,0.9701233,-1.6155243,1.391571
1634,A,77924059638422,-1.0065765,-17.633575,-0.7775879,0.40612793,-2.3032227,0.6522522
1634,A,77924109992426,-0.04536438,-18.417404,-0.7634125,-0.52381897,-1.8543243,0.37911987
1634,A,77924160346430,-1.2986298,-13.919418,-0.8551483,-1.1815796,-0.94366455,0.5452118
1634,A,77924210700434,0.16751099,-8.295364,-2.9016113,-0.5519562,-0.36193848,0.56129456
1634,A,77924261054438,-0.6077881,-4.4410553,-2.4308167,0.09259033,-0.13911438,0.38587952
1634,A,77924311408442,1.7462769,-2.9696198,-1.4162445,-0.60176086,1.095047,0.036193848
1634,A,77924361762446,1.1091309,-6.737976,1.2200012,-0.27182007,1.0823364,-0.46420288
1634,A,77924412116450,-0.17237854,-12.541718,6.296097,-1.1156464,0.14888,-0.70973206
1634,A,77924462470454,1.6530304,-10.927567,5.055298,-1.4514618,1.1417542,-0.06225586
1634,A,77924512824458,0.8378906,-11.907898,0.4320526,-0.52433777,1.037735,0.0816803
1634,A,77924563178461,-1.4644928,-8.793488,-0.55674744,-0.37208557,0.36413574,-0.17745972
1634,A,77924613532465,-4.4324493,-8.027023,-2.8240814,-0.77690125,0.54977417,-0.20603943
1634,A,77924663886469,-3.2471924,-11.806427,0.4789276,-1.1667633,0.51020813,-0.42218018
1634,A,77924714240473,-0.46894836,-9.182114,0.12338257,-1.2320099,0.86987305,-0.541275
1634,A,77924764594477,-1.3352203,-8.595978,-1.3084564,-0.4675598,1.2055664,-0.4545288
1634,A,77924814948481,-1.369812,-7.831299,-2.0326996,0.30314636,0.64878845,-0.34384155
1634,A,77924865302485,-0.59010315,-8.312424,-1.648468,1.5280914,-0.7428589,-0.070388794
1634,A,77924915656489,-1.2575531,-9.364075,-1.1647339,2.984085,-2.4935913,0.3876953
1634,A,77924966010493,-2.7802277,-11.777466,-0.14830017,2.4726715,-0.26715088,0.9742737
1634,A,77925016364497,-3.5262756,-12.524506,1.635315,1.5408478,-1.7406158,1.8380585
1634,A,77925066718501,-4.1649017,-10.930466,2.7523956,1.4283905,-2.309021,1.5769501
1634,A,77925117072504,-4.2139587,-11.6953125,-1.2342529,0.5804138,-2.8734589,0.9968109
1634,A,77925167426508,-1.0279083,-15.371033,-5.0989227,-0.29890442,-1.8249054,0.3756256
1634,A,77925217780512,-1.9336548,-11.323471,-0.6203003,-1.090332,-0.8937988,-0.049453735
1634,A,77925268134516,-2.7151184,-6.7542877,-1.3063049,-1.3806,-0.16140747,-0.2865448
1634,A,77925318488520,1.0653076,-4.729126,-1.349472,-0.56077576,0.81573486,0.4043274
1634,A,77925368842524,2.166504,-4.4650726,-1.5589447,-0.3730774,-0.36001587,0.37028503
1634,A,77925419196528,3.0251617,-3.9381866,-0.59480286,-1.76828,2.082901,-0.18711853
1634,A,77925469550532,-1.2243347,-9.2825775,3.522293,-0.23356628,-0.018234253,-1.343689
1634,A,77925519904536,-4.849167,-17.762787,6.8396606,-0.9549713,1.1814117,-0.20817566
1634,A,77925570258540,-0.3760376,-9.309738,4.30336,-0.62257385,1.7206421,0.42440796
1634,A,77925620612543,-0.7557068,-11.720108,0.30770874,-0.16856384,0.9477234,-0.33641052
1634,A,77925670966547,-3.2562256,-5.6279907,-6.81398,-0.5350189,1.4258423,-0.05973816
1634,A,77925721320551,-3.2965393,-11.127319,-0.5321045,-1.0652771,0.7463684,-0.26559448
1634,A,77925771674555,0.24353027,-8.867737,-3.262848,-1.3270874,0.73231506,-0.65101624
1634,A,77925822031312,-0.78897095,-9.215729,-1.9492493,-1.0993652,0.7203522,-0.78497314
1634,A,77925872385316,-1.0868073,-9.087784,-2.145172,-0.10255432,0.8133545,-0.4385376
1634,A,77925922739320,-1.2065887,-8.473343,-2.3051453,0.89138794,-0.23883057,-0.025299072
1634,A,77925973093324,-0.982666,-8.945587,-1.4290466,2.4494019,-1.7316895,0.34378052
1634,A,77926023447328,-3.3848114,-10.99704,1.1533356,3.193222,-1.5618744,0.7154236
1634,A,77926073801332,-3.660019,-12.330673,-0.8788147,2.0997925,-0.3347473,1.127533
1634,A,77926124155336,-4.617096,-14.676315,1.1119843,2.0705872,-1.4088593,1.0557709
1634,A,77926174509339,-1.8235779,-12.810196,0.022476196,1.6219788,-1.8702087,0.6969757
1634,A,77926224863343,0.50260925,-14.774094,-0.22879028,0.71466064,-1.7681427,0.450531
1634,A,77926275217347,1.3278198,-15.036331,-6.0392456,-0.9107361,-0.33094788,0.11129761
1634,A,77926325571351,-1.6416473,-8.873062,-2.8465576,-1.5697021,0.4884796,0.05921936
1634,A,77926375925355,1.0852814,-6.1942596,-1.9767914,-1.4421844,-0.12826538,0.49861145
1634,A,77926426279359,0.8210449,-3.3370972,-1.6960297,-0.26402283,-0.32901,0.41539
1634,A,77926476633363,0.60098267,-3.0309296,0.2975464,-0.9803314,1.2209473,0.07017517
1634,A,77926526987367,-0.092041016,-5.521057,2.5771027,0.49653625,0.2809143,-0.58872986
1634,A,77926577341371,-3.5271606,-15.427994,9.738876,-1.5981293,1.0475769,-0.56295776
1634,A,77926627695375,-1.233139,-10.554825,4.443741,-1.0296326,1.9730835,0.22167969
1634,A,77926678049379,0.21708679,-10.071274,-4.756607,-0.7156067,0.92344666,-0.36901855
1634,A,77926728403382,3.0499115,-8.196075,1.9412994,-0.46440125,0.7732239,-0.49632263
1634,A,77926778757386,-5.246811,-8.349274,-2.3998108,-1.0718994,0.61079407,-0.41809082
1634,A,77926829111390,-4.7629547,-11.842957,0.117370605,-1.1744232,0.43989563,-0.6783447
1634,A,77926879465394,1.4775391,-8.357742,-1.0870819,-0.78541565,0.78523254,-0.6644745
1634,A,77926929819398,-2.4927826,-9.541626,-2.2309113,0.06188965,0.4848175,-0.43844604
1634,A,77926980173402,-1.6215668,-7.8815613,-2.219452,0.93266296,-0.6465912,-0.020050049
1634,A,77927030527406,-1.0547333,-9.100403,-0.63220215,2.3641205,-1.7450562,0.3745575
1634,A,77927080881410,-1.9652557,-10.485931,0.9894562,2.7957153,-1.5924072,0.85809326
1634,A,77927131235414,-5.4882813,-12.259811,-0.9038849,2.063095,-0.85461426,1.114563
1634,A,77927181589418,-3.5671082,-13.837906,0.08337402,1.884964,-1.8969574,1.1512909
1634,A,77927231943421,-1.3298645,-12.048981,-0.14840698,1.2008362,-2.0789185,0.8313904
1634,A,77927282297425,-0.3764801,-13.642395,-0.75564575,0.32232666,-1.8138275,0.25726318
1634,A,77927332651429,0.69755554,-12.46402,-4.293442,-0.49391174,-0.8314667,0.20756531
1634,A,77927383005433,-1.3842773,-8.96402,-1.2484741,-1.1981964,-0.25952148,0.5247803
1634,A,77927433359437,0.5027313,-6.633957,-1.8287811,-1.2724457,0.009857178,0.73475647
1634,A,77927483713441,0.93707275,-5.1875305,-1.381607,-0.22471619,0.09062195,0.47598267
1634,A,77927534067445,-0.039001465,-4.1834564,0.10992432,-0.64460754,0.94563293,0.19876099
1634,A,77927584421449,-0.0019836426,-5.6843414,1.59021,-0.9944,2.233963,-0.50079346
1634,A,77927634775453,-2.2415314,-12.035461,6.026428,-0.79896545,0.87405396,-0.7252197
1634,A,77927685129457,-1.2145844,-13.927185,6.336029,-1.2980194,2.022049,0.0032958984
1634,A,77927735483461,1.9921265,-13.119858,3.486023,-0.8410492,1.3380737,0.124572754
1634,A,77927785837464,1.6837311,-10.827789,-2.1283264,-0.5245209,1.2728424,-0.4039154
1634,A,77927836191468,-3.1933746,-5.774994,-4.5647736,-0.92497253,1.0855255,-0.39093018
1634,A,77927886545472,-4.150421,-11.827484,-0.817276,-1.4182892,0.8014374,-0.5977936
1634,A,77927936899476,-0.0071105957,-7.328842,-1.6308899,-1.0946503,0.8879547,-0.74453735
1634,A,77927987253480,-1.0966339,-9.060684,-1.4743347,-0.20475769,0.738327,-0.52441406
1634,A,77928037607484,-1.494339,-8.547592,-2.440094,0.51768494,0.06451416,-0.14790344
1634,A,77928087961488,-2.4296265,-8.680908,-1.2369385,1.7867126,-1.3087463,0.18971252
1634,A,77928138315492,-1.9969482,-10.530533,0.5670471,2.8661804,-1.7169952,0.6352844
1634,A,77928188669496,-3.6288147,-11.842667,0.66233826,2.3630981,-1.306076,1.1961212
1634,A,77928239023500,-4.5392,-12.453751,0.47325134,1.8782196,-1.4443054,1.1970978
1634,A,77928289377504,-2.7470093,-12.635956,1.5647278,1.727478,-1.6992645,0.75587463
1634,A,77928339731507,-1.0314789,-13.596176,0.48529053,0.8412323,-1.9560242,0.25086975
1634,A,77928390085511,0.4396515,-15.255493,-1.3602142,-0.22538757,-0.93977356,0.035125732
1634,A,77928440439515,0.33558655,-11.195663,-2.8585663,-1.1286163,0.43296814,0.37226868
1634,A,77928490793519,0.18890381,-6.9027557,-2.4690094,-1.3007202,1.0213165,0.41789246
1634,A,77928541147523,0.8017731,-4.716385,-2.3270264,-0.6385193,0.6218109,0.19216919
1634,A,77928591501527,1.061615,-3.0594635,-0.31549072,-0.4623413,1.2298279,-0.33314514
1634,A,77928641855531,-0.4870453,-4.1714325,2.315033,-0.80636597,1.8382263,-0.53616333
1634,A,77928692209535,-1.9988251,-11.086853,6.589508,-1.1932068,1.2926941,-0.46743774
1634,A,77928742563539,-1.2041168,-15.472977,8.008133,-1.2358093,1.4446716,-0.14561462
1634,A,77928792917543,0.08616638,-15.709122,1.7157593,-0.77586365,1.3717499,-0.37036133
1634,A,77928843271546,0.33407593,-4.407547,-6.0094147,-0.76742554,1.091629,-0.4385376
1634,A,77928893625550,-4.038574,-7.554062,-3.517273,-1.0350037,0.6769409,-0.4779663
1634,A,77928943979554,-0.6926575,-8.843765,-1.5457306,-1.0745544,0.5232544,-0.7491913
1634,A,77928994333558,-1.1685486,-8.2625885,-1.760788,-0.80381775,0.54992676,-0.68699646
1634,A,77929044687562,-1.6866302,-9.694717,-2.3175201,-0.118637085,0.44195557,-0.47998047
1634,A,77929095041566,-0.8619232,-8.170685,-1.9193878,0.87615967,-0.1778717,-0.14512634
1634,A,77929145395570,-1.8277283,-8.587997,-1.035141,2.3867188,-1.7949524,0.25279236
1634,A,77929195749574,-2.4898834,-10.113388,0.6210022,2.9559784,-1.8410797,0.8736725
1634,A,77929246103578,-3.8513794,-11.992798,-0.23828125,2.015564,-1.5867615,1.5425568
1634,A,77929296457582,-4.6985626,-13.13533,1.1193237,1.8355103,-1.8556671,1.5094604
1634,A,77929346811586,-3.8061066,-12.742081,0.036453247,1.4819489,-1.8423767,1.2184753
1634,A,77929397165589,-1.2837982,-14.834549,0.50831604,0.6327362,-1.8634491,0.6779022
1634,A,77929447519593,-0.38571167,-14.303452,-2.500183,-0.5349884,-0.8831787,0.33442688
1634,A,77929497873597,-0.34597778,-10.480148,-2.4891205,-1.5483246,-0.060638428,0.0048980713
1634,A,77929548227601,-0.18318176,-7.162781,-1.5472412,-1.3882751,0.30929565,0.35899353
1634,A,77929598581605,1.4909363,-4.6041565,-1.2415619,-0.47453308,0.41345215,0.5329895
1634,A,77929648935609,1.3990936,-3.1224823,-0.38346863,-1.1261139,1.8574829,0.15007019
1634,A,77929699289613,-0.13677979,-5.4948425,1.2288971,0.3640747,-0.46305847,-0.5803375
1634,A,77929749643617,-3.301056,-12.255493,8.053345,-1.3564911,1.679718,-0.7203827
1634,A,77929799997621,-1.5624695,-10.957611,5.4861145,-1.3366852,1.7441406,0.278656
1634,A,77929850351625,0.55036926,-9.369858,-3.373825,-0.56022644,1.1279297,-0.34788513
1634,A,77929900705629,0.48866272,-4.0343933,-4.1007843,-0.39590454,1.3372345,-0.38708496
1634,A,77929951059632,-4.204193,-10.937973,-3.8884277,-0.90496826,0.7350464,-0.2783203
1634,A,77930001413636,-2.9489746,-9.563217,-1.3566895,-1.1679535,0.5388794,-0.6988678
1634,A,77930051767640,0.0894928,-8.815933,0.1742096,-0.9573059,0.53479004,-0.8112488
1634,A,77930102121644,-2.233368,-9.112167,-2.7302246,-0.23651123,0.7088928,-0.48788452
1634,A,77930152475648,-1.5989838,-7.326828,-2.649292,0.6484833,0.20643616,-0.19761658
1634,A,77930202829652,-1.3856659,-8.50798,-1.0096893,2.095581,-0.96221924,0.33312988
1634,A,77930253183656,-3.0828552,-10.469513,-0.10206604,3.1481934,-2.2682953,0.84809875
1634,A,77930303537660,-3.9718323,-12.179855,-0.25602722,2.121048,-0.31925964,1.0079498
1634,A,77930353891664,-5.357727,-13.582397,0.25990295,1.9858246,-1.4367523,0.8824768
1634,A,77930404245668,-1.4490051,-12.565002,2.539032,1.5368805,-1.4470062,0.57899475
1634,A,77930454599671,-0.95295715,-12.681961,-3.253952,0.42311096,-1.866272,0.21307373
1634,A,77930504953675,0.8778839,-15.444641,-4.7031097,-0.8826294,-0.68536377,0.13650513
1634,A,77930555307679,-0.02772522,-8.343277,-1.499176,-1.4022217,0.11975098,0.100250244
1634,A,77930605661683,-1.880127,-8.076416,-2.060089,-0.9907532,0.28204346,0.38446045
1634,A,77930656015687,1.5791321,-2.7317963,-1.7177277,0.2447052,-0.72488403,0.44943237
1634,A,77930706369691,-0.29411316,-4.48291,0.90701294,0.045135498,1.1164551,-0.14926147
1634,A,77930756723695,0.23735046,-5.546875,2.229309,0.19961548,0.29753113,-0.9849243
1634,A,77930807077699,-3.879837,-15.477173,9.966675,-1.8139038,1.3019867,0.22106934
1634,A,77930857431703,0.1708374,-10.419662,4.145218,-1.7910156,0.8780823,-0.41722107
1634,A,77930907785707,0.1872406,-12.981781,-2.5802765,-1.3718262,1.846756,-0.8517914
1634,A,77930958139711,-2.8759003,-2.935089,-5.3572693,-1.4003906,0.9279785,-0.44444275
1634,A,77931008493714,-5.679352,-13.8741455,-2.9261932,-1.111618,0.28338623,-0.41192627
1634,A,77931058847718,3.2699127,-7.644577,-0.816803,-0.9107361,0.65779114,-0.57496643
1634,A,77931109201722,-2.4259033,-9.777069,-3.598709,-0.42808533,0.53559875,-0.5800934
1634,A,77931159555726,-2.4101868,-8.431488,-0.5492859,0.25117493,0.3829193,-0.23150635
1634,A,77931209909730,-1.540268,-8.881607,-1.0493164,1.3948364,-0.9377594,0.07006836
1634,A,77931260263734,-0.59243774,-9.38121,-0.016052246,2.9063568,-2.079071,0.27597046
1634,A,77931310617738,-3.2953644,-11.508011,1.1878662,2.6949158,-1.2788696,0.79255676
1634,A,77931360971742,-3.3618011,-12.845245,-0.41352844,1.9493408,-1.2765198,1.2814789
1634,A,77931411325746,-3.9677734,-12.884827,1.515213,1.8142242,-1.5370789,1.3160858
1634,A,77931461679750,-1.4886017,-13.277023,-0.49749756,0.99983215,-1.663147,0.97680664
1634,A,77931512033754,-0.26467896,-14.688568,-0.5321045,-0.14770508,-1.6717987,0.5777588
1634,A,77931562387757,-0.023834229,-12.763809,-4.3268127,-1.2528839,-0.5284729,0.19023132
1634,A,77931612741761,-1.0697937,-9.170517,-1.6199799,-1.6448212,0.5453186,-0.13163757
1634,A,77931663095765,-0.5473175,-6.683243,-2.2558136,-0.730423,0.04118347,0.3790741
1634,A,77931713449769,1.3120117,-3.7172852,-1.3474579,-0.4520874,0.3111725,0.3691101
1634,A,77931763803773,1.3204803,-3.0167236,0.63391113,-0.9094391,1.4591675,-0.2542572
1634,A,77931814157777,-1.3141174,-8.188782,3.6919098,0.036849976,-0.03678894,-0.4640503
1634,A,77931864511781,-4.700424,-14.258972,8.174927,-1.4802856,1.4136658,-0.29940796
1634,A,77931914865785,0.9575348,-7.346054,0.45124817,-0.8489685,2.2208252,0.100860596
1634,A,77931965219789,0.45610046,-10.102432,-3.2772522,-0.42066956,1.3081818,-0.2749939
1634,A,77932015573793,-1.277832,-7.944153,0.28375244,-0.7183533,1.4661255,-0.438385
1634,A,77932065927796,-2.3986664,-9.744385,-3.0068054,-1.0270996,0.9539032,-0.56918335
1634,A,77932116281800,-1.289154,-9.511688,-1.6022797,-0.91166687,0.85520935,-0.69096375
1634,A,77932166635804,0.32398987,-8.490799,-1.5718079,-0.34735107,0.76545715,-0.55444336
1634,A,77932216989808,-2.0694275,-8.269974,-2.4049072,0.5556183,0.06512451,-0.23805237
1634,A,77932267343812,-1.965332,-8.017334,-1.5801697,1.8491058,-1.2555695,0.28616333
1634,A,77932317697816,-2.1550598,-9.910446,0.029067993,2.94487,-1.6529694,0.72216797
1634,A,77932368051820,-4.0795135,-11.169983,0.9229889,2.4530487,-1.3847504,1.2156067
1634,A,77932418405824,-5.0746613,-13.017181,0.48262024,1.8330536,-1.806366,1.371933
1634,A,77932468759828,-2.9241333,-13.466507,0.7746887,1.6096649,-2.0001068,0.922699
1634,A,77932519113832,-0.216568,-13.958923,-0.41555786,0.8462677,-2.0266724,0.60710144
1634,A,77932569467836,-0.20941162,-15.028931,-1.6622314,-0.13516235,-1.1325684,0.44335938
1634,A,77932619821839,-0.39401245,-10.966888,-2.7712708,-1.2130585,0.14657593,0.27908325
1634,A,77932670175843,0.12965393,-6.889221,-2.3904266,-1.521286,0.5232239,0.30334473
1634,A,77932720529847,0.4526825,-5.5731964,-1.7275085,-0.6867676,0.33006287,0.5601196
1634,A,77932770883851,1.1061707,-3.5466156,-0.45355225,-0.5663605,1.08461,0.1875
1634,A,77932821237855,0.36538696,-3.5862122,0.6690216,-0.24385071,0.64826965,-0.6261902
1634,A,77932871591859,-2.2876434,-10.556793,6.3510895,-0.7108917,1.0601807,-0.6850586
1634,A,77932921945863,-2.3611603,-13.822815,7.935669,-1.4717102,1.9001923,0.025482178
1634,A,77932972299867,-0.10079956,-11.528549,0.047851563,-1.0075226,1.2654877,-0.17021179
1634,A,77933022653871,1.9427032,-6.59169,-5.2514954,-0.574646,1.3112335,-0.5612488
1634,A,77933073007875,-2.4053955,-7.485916,-3.6967773,-0.85728455,1.0597534,-0.43084717
1634,A,77933123361879,-3.6643524,-9.339905,-1.2715759,-1.1609192,0.703598,-0.59594727
1634,A,77933173715882,-0.21977234,-8.034882,-0.42071533,-0.9145813,0.69070435,-0.7802124
1634,A,77933224069886,-0.9444275,-9.109604,-1.365448,-0.19807434,0.65167236,-0.47790527
1634,A,77933274423890,-2.2167816,-8.5985565,-2.020462,0.66412354,-0.19342041,0.01852417
1634,A,77933324777894,-1.5511932,-8.547485,-1.4497375,2.337677,-1.3563843,0.2861786
1634,A,77933375131898,-2.5520782,-10.034485,0.274292,3.050705,-1.4210968,0.65615845
1634,A,77933425485902,-4.444214,-11.891235,0.08068848,2.3613434,-1.6786957,1.1168518
1634,A,77933475839906,-3.938919,-13.497101,1.339386,2.0172577,-1.7737427,1.0494843
1634,A,77933526193910,-1.6107025,-12.47496,0.3684845,1.4499054,-2.0062103,0.8220978
1634,A,77933576547914,-0.69755554,-14.116013,0.4857483,0.4342804,-1.8439636,0.37678528
1634,A,77933626901918,-0.4641266,-14.28093,-2.49086,-0.6065216,-0.3806305,0.20585632
1634,A,77933677255921,-0.27703857,-9.93605,-2.6734009,-1.4812775,0.7424927,0.39456177
1634,A,77933727609925,0.150177,-6.433716,-3.3709717,-0.8634491,0.8318329,0.48646545
1634,A,77933777963929,1.07341,-3.9025726,-1.7631531,-0.31607056,0.1776886,0.5456848
1634,A,77933828317933,1.6750336,-2.5531464,0.18315125,-1.3767548,2.3878326,-0.3394165
1634,A,77933878671937,-0.67108154,-6.750778,2.2134857,-0.4717102,0.36653137,-0.7901306
1634,A,77933929025941,-4.985672,-14.57077,7.3006744,-1.3320313,1.4024963,-0.46862793
1634,A,77933979379945,-0.84103394,-9.459763,6.8346405,-1.3815155,1.4154816,0.10064697
1634,A,77934029733949,2.500946,-15.213562,-2.2415009,-0.50209045,0.91033936,-0.3847351
1634,A,77934080087953,1.1121979,-3.4001465,-6.0685425,-0.5246887,0.83833313,-0.336792
1634,A,77934130441957,-6.8621063,-11.871567,-3.0603027,-1.212326,0.5467682,-0.4003601
1634,A,77934180795961,0.18551636,-8.2196045,-2.422226,-1.2963562,0.25428772,-0.77890015
1634,A,77934231149964,-0.87098694,-8.443985,-0.4558258,-0.6375122,0.5661316,-0.7359009
1634,A,77934281503968,-2.6631317,-8.608719,-2.173294,0.05908203,0.57214355,-0.3219757
1634,A,77934331857972,-1.3224335,-7.321594,-2.5818481,1.2021179,-0.2325592,0.048065186
1634,A,77934382211976,-1.4029541,-10.284409,-0.0370636,3.1437378,-1.7849426,0.22174072
1634,A,77934432565980,-2.1061249,-11.493561,0.30116272,2.805252,-0.9498749,0.75675964
1634,A,77934482919984,-3.286148,-12.993851,-0.39297485,2.0828705,-2.2711792,1.4106445
1634,A,77934533273988,-3.1967926,-13.405685,2.1724854,2.023056,-1.336792,0.7488861
1634,A,77934583627992,-3.033661,-11.558228,-1.3780975,1.1752167,-1.929306,0.77290344
1634,A,77934633981996,-1.2443695,-15.69368,-0.24525452,0.22212219,-0.9242401,0.24388123
1634,A,77934684336000,-0.61047363,-10.596436,0.18017578,-0.9817352,-0.083480835,0.3168335
1634,A,77934734690004,-1.0343018,-8.519928,-3.5523834,-2.1267395,0.42295837,0.17582703
1634,A,77934785044007,0.6548004,-4.275833,-2.7286072,-0.82221985,0.63249207,0.48358154
1634,A,77934835398011,1.5668182,-3.2608185,-0.97761536,-0.16516113,-1.3501892,0.21655273
1634,A,77934885752015,0.6628113,-3.5661926,1.0557709,-0.5079346,1.3197937,-1.0122223
1634,A,77934936106019,-2.319275,-7.8748627,4.796509,-1.7720947,0.74076843,-0.6700897
1634,A,77934986460023,-6.2643585,-19.365189,9.810928,-1.539856,2.6003113,0.41149902
1634,A,77935036814027,-1.1631775,-9.437988,3.7898102,-0.9985504,0.9945984,-0.34378052
1634,A,77935087168031,5.780258,-17.369736,0.92607117,-0.28907776,1.3098755,-0.7590027
1634,A,77935137522035,-5.45932,-3.7385712,-4.7660217,-1.2799072,0.63479614,-0.30448914
1634,A,77935187876039,-5.255493,-11.840424,-0.18533325,-1.3325348,0.5919037,-0.6139984
1634,A,77935238230043,5.0606384,-6.734192,-0.045135498,-0.9697418,0.69737244,-0.8497162
1634,A,77935288584046,-4.88002,-10.208374,-2.037033,0.020965576,0.7814636,-0.4732666
1634,A,77935338938050,-1.6044159,-7.9187927,-3.2348633,0.95866394,-0.26106262,0.098739624
1634,A,77935389292054,-0.37120056,-8.957474,-0.6287842,2.5366669,-1.4316559,0.4966278
1634,A,77935439646058,-2.4458923,-10.456863,0.58743286,2.933487,-0.90071106,0.7540436
1634,A,77935490000062,-4.1825867,-11.749878,-0.08531189,2.1393585,-0.5807495,1.191864
1634,A,77935540354066,-4.4822235,-14.459061,-0.1426239,1.9565582,-1.2864685,1.0556793
1634,A,77935590708070,0.80178833,-13.397903,1.2185822,1.2687683,-1.6339264,0.8712616
1634,A,77935641062074,-0.1771698,-14.085297,-0.92329407,0.08026123,-1.3178253,0.45568848
1634,A,77935691416078,2.2920685,-13.191742,-3.9322968,-0.99490356,-0.46907043,0.47799683
1634,A,77935741770082,-1.5723419,-8.710495,-1.0913849,-1.5059509,0.25134277,0.3098297
1634,A,77935792134879,-0.39263916,-6.198517,-2.5727997,-0.7618408,0.014404297,0.35417175
1634,A,77935842488882,0.6383362,-3.28273,-0.9084778,-0.02243042,0.04777527,0.38589478
1634,A,77935892842886,0.07173157,-4.2543945,0.29551697,-0.37937927,1.3958435,-0.33895874
1634,A,77935943196890,-0.05595398,-7.255005,5.111267,0.062149048,0.44529724,-1.0768585
1634,A,77935993550894,-2.7045135,-15.567032,9.549408,-1.5704956,1.6667175,0.2432251
1634,A,77936043904898,0.07173157,-9.356964,2.119995,-1.270874,1.1757355,-0.27685547
1634,A,77936094258902,1.9138336,-9.166077,-3.1003265,-0.82940674,2.03714,-0.7700653
1634,A,77936144612906,-1.9899292,-5.795227,-3.7792053,-1.0675049,1.0567932,-0.4945984
1634,A,77936194966910,-5.9853363,-12.69664,-1.078125,-1.1873169,0.65882874,-0.5289917
1634,A,77936245320914,3.1927948,-7.343979,0.46507263,-1.0091553,0.4943695,-0.7345886
1634,A,77936295674918,-1.9420319,-8.9543,-2.7309265,-0.40005493,0.45783997,-0.59306335
1634,A,77936346028922,-2.6044312,-9.1528015,-1.2513428,0.33621216,0.2116394,-0.23777771
1634,A,77936396382925,-1.5872345,-8.162445,-1.006485,1.5553436,-0.8413086,0.047439575
1634,A,77936446736929,-1.9897156,-9.752808,0.093673706,2.9891968,-1.4376831,0.42578125
1634,A,77936497090933,-2.7910614,-11.626144,0.34802246,2.75766,-1.1192627,0.89253235
1634,A,77936547444937,-4.170883,-13.249908,-0.30664063,1.8691406,-1.0187225,1.153305
1634,A,77936597798941,-2.4300842,-12.967621,0.96325684,1.5397949,-1.5048065,1.0570374
1634,A,77936648152945,0.05517578,-12.664246,-0.23457336,0.82733154,-1.5575104,0.7009125
1634,A,77936698506949,-0.029891968,-14.92009,-1.1855774,-0.18299866,-1.063858,0.39009094
1634,A,77936748860953,-0.79776,-11.6445465,-3.5379333,-1.1815491,0.07505798,0.29380798
1634,A,77936799214957,-0.2623291,-7.6300354,-1.5363312,-1.3517456,0.69226074,0.36437988
1634,A,77936849568961,0.26461792,-5.92128,-1.5614929,-0.48513794,0.2472992,0.5382538
1634,A,77936899922964,1.4130859,-4.064575,-0.48191833,-0.5935211,0.9328766,0.2032013
1634,A,77936950276968,0.6078491,-4.5848236,0.9847412,-0.5428314,0.9526367,-0.5891876
1634,A,77937000630972,-1.857193,-10.953613,6.1180573,-0.42860413,0.63905334,-0.7683716
1634,A,77937050984976,-2.9349518,-13.439789,8.008575,-1.4567261,1.7984314,-0.040283203
1634,A,77937101338980,0.5112152,-9.593185,0.47859192,-0.993927,1.3797302,-0.1375122
1634,A,77937151692984,2.2152863,-6.6374664,-4.2590485,-0.4703369,1.2177124,-0.6547241
1634,A,77937202046988,-3.2046509,-7.2478027,-3.1128235,-0.850296,0.92626953,-0.4815216
1634,A,77937252400992,-4.1900635,-10.471497,-1.5243225,-1.2065887,0.43688965,-0.590683
1634,A,77937302754996,0.64852905,-7.735367,-0.42445374,-0.9161377,0.38978577,-0.7596588
1634,A,77937353109000,-1.269455,-8.930191,-1.169342,-0.18882751,0.4880371,-0.54878235
1634,A,77937403463004,-2.7376862,-8.708801,-2.0473785,0.5937195,-0.14680481,-0.1430664
1634,A,77937453817007,-1.8720093,-8.953735,-0.82902527,1.9598541,-1.162262,0.21258545
1634,A,77937504171011,-1.4619446,-10.467575,0.7670593,2.8338623,-1.3487701,0.60289
1634,A,77937554525015,-3.379547,-11.830994,-0.016220093,2.3502197,-0.9890747,1.0079956
1634,A,77937604879019,-4.4652557,-12.941177,-0.24754333,1.9277039,-1.0836945,1.0666351
1634,A,77937655233023,-1.6166382,-11.951355,-0.85769653,1.6299438,-1.6268768,0.81188965
1634,A,77937705587027,0.18585205,-13.522842,0.35562134,0.83992004,-1.9733429,0.30303955
1634,A,77937755941031,0.67933655,-14.580551,-2.682724,-0.24674988,-1.0631561,0.21434021
1634,A,77937806295035,0.19973755,-9.993179,-3.3082275,-1.2252197,0.17967224,0.4896698
1634,A,77937856649039,-0.026672363,-6.692337,-2.1190033,-1.529129,0.76049805,0.50320435
1634,A,77937907003043,0.6040497,-5.1597443,-1.2673035,-0.3945923,0.25601196,0.3943329
1634,A,77937957357047,0.54252625,-4.3759003,0.70999146,-0.6549988,1.168396,-0.0036773682
1634,A,77938007711050,0.79071045,-4.694092,2.3260498,0.050216675,0.7826996,-0.52259827
1634,A,77938058065054,-0.82336426,-11.809113,7.882416,-0.880188,1.3210297,-0.52915955
1634,A,77938108419058,-0.82203674,-11.615723,7.359329,-1.3255768,1.8403473,0.25332642
1634,A,77938158773062,0.4419098,-10.421967,-1.1582489,-0.9989166,1.20018,-0.41531372
1634,A,77938209127066,0.5829468,-6.1084595,-3.2438965,-0.703598,1.33815,-0.6233673
1634,A,77938259481070,-3.2578125,-8.468613,-2.9706268,-1.0392151,0.8506317,-0.49053955
1634,A,77938309835074,-2.9812012,-8.856979,-1.3426056,-1.3021545,0.58413696,-0.6420746
1634,A,77938360189078,0.5357361,-8.471817,0.16589355,-0.98046875,0.51779175,-0.81088257
1634,A,77938410543082,-1.6883392,-9.119064,-1.0740967,-0.18991089,0.5151367,-0.47511292
1634,A,77938460897086,-2.752472,-8.720917,-1.8069458,0.68836975,-0.58148193,0.003768921
1634,A,77938511251089,-1.6452637,-9.413574,-0.45773315,2.3772583,-1.6641235,0.27856445
1634,A,77938561605093,-2.8119507,-10.235199,0.35783386,2.8566132,-1.3473816,0.53463745
1634,A,77938611959097,-3.5717926,-11.737076,0.33850098,2.3154602,-1.0784912,0.84184265
1634,A,77938662313101,-3.6012878,-12.796478,1.6973724,1.8645477,-1.4974518,1.0002441
1634,A,77938712667105,0.17578125,-13.345505,1.9144745,1.1507263,-1.5891266,0.8616791
1634,A,77938763021109,-0.09428406,-14.03801,0.39897156,0.16574097,-1.293457,0.4625702
1634,A,77938813375113,0.5933075,-14.1718445,-2.5762024,-0.8868103,-0.65486145,0.42201233
1634,A,77938863729117,-1.5052185,-9.406357,-1.6681061,-1.3505249,-0.2280426,0.25282288
1634,A,77938914083121,0.07437134,-5.6562347,-2.1373444,-0.03201294,-0.19343567,0.28240967
1634,A,77938964437125,0.32102966,-3.3840637,-1.0464172,0.20518494,-0.8109894,0.39794922
1634,A,77939014791129,1.3288116,-3.188324,0.16389465,-0.26927185,0.8961792,-0.548645
1634,A,77939065145132,-1.3536072,-9.259842,8.076019,-0.8465271,1.5554504,-1.0191345
1634,A,77939115499136,-2.8331757,-15.405594,6.564865,-1.6833038,1.6537018,0.84347534
1634,A,77939165853140,-1.697403,-11.661606,6.0275116,-1.6972656,1.1799927,-0.33865356
1634,A,77939216207144,7.375839,-12.102158,-0.016281128,-1.2355652,1.7807007,-0.6344147
1634,A,77939266561148,-6.7928925,-6.7322083,-3.8342133,-1.3044891,1.5202179,-0.269989
1634,A,77939316915152,-3.3487701,-11.325409,-2.7867584,-1.3322296,0.7417755,-0.39631653
1634,A,77939367269156,1.6408997,-7.584442,-0.5706787,-1.1937408,0.8404083,-0.6329498
1634,A,77939417623160,-3.817749,-10.00737,-2.6722565,-0.59169006,0.8985901,-0.6613922
1634,A,77939467977164,-0.5189514,-8.595764,-0.9088898,0.104904175,0.68940735,-0.25083923
1634,A,77939518331168,-1.5489197,-8.204803,-1.5732422,1.1469269,-0.32637024,0.03929138
1634,A,77939568685172,-1.3510437,-9.949234,-0.27612305,3.0729065,-1.6165619,0.25878906
1634,A,77939619039175,-2.7848969,-11.15033,0.92767334,3.1362457,-1.2267609,0.6876068
1634,A,77939669393179,-3.8295288,-13.120285,-0.43579102,2.0623932,-1.5084534,1.1501465
1634,A,77939719747183,-2.920929,-12.756821,1.8547211,1.9953156,-1.100174,0.63993835
1634,A,77939770101187,-0.6933441,-13.262573,0.19692993,1.1016693,-1.2719879,0.52804565
1634,A,77939820455191,-0.7600708,-14.870117,-1.6952667,-0.25079346,-1.11203,0.07165527
1634,A,77939870809195,1.3700256,-14.416336,-3.724289,-1.1401978,-0.01399231,0.29081726
1634,A,77939921163199,-0.8753052,-7.627762,-2.43013,-1.3509369,0.3257141,0.555603
1634,A,77939971517203,0.8880005,-4.654602,-2.4402313,0.1414032,-0.18016052,0.39698792
1634,A,77940021871207,0.76390076,-3.1296844,-0.8102112,-0.12913513,-0.07493591,0.34916687
1634,A,77940072225211,-0.051879883,-4.569748,1.8409119,-0.57740784,1.4528503,-0.5751343
1634,A,77940122579214,-1.9697113,-9.251083,4.5835114,-1.1505585,1.2548218,-1.0295105
1634,A,77940172933218,-2.6371307,-17.57431,5.8042297,-1.4420929,1.511734,0.4364624
1634,A,77940223287222,1.2557831,-10.000076,3.609497,-1.266098,1.2739716,-0.44673157
1634,A,77940273641226,3.9704285,-13.537872,0.025268555,-0.94944763,1.7310333,-0.62342834
1634,A,77940323995230,-5.2158966,-6.144562,-4.7957153,-1.0886078,0.8957825,-0.25256348
1634,A,77940374349234,-3.0831146,-10.359192,-2.4125366,-1.1743927,0.47114563,-0.4171753
1634,A,77940424703238,2.0575256,-7.8428955,0.26011658,-1.0648346,0.47306824,-0.7644806
1634,A,77940475057242,-3.7698975,-10.050186,-2.4217224,-0.5658722,0.47528076,-0.7036743
1634,A,77940525411246,-2.4082794,-8.930115,-1.0568695,0.117507935,0.15545654,-0.31584167
1634,A,77940575765250,-1.0102997,-7.9845123,-1.5875702,1.1677246,-0.846405,-0.020141602
1634,A,77940626119254,-1.0862579,-9.5576935,-0.008483887,2.669159,-1.7617798,0.33776855
1634,A,77940676473257,-3.4066162,-11.432007,0.5978241,2.9204712,-1.6345062,0.70903015
1634,A,77940726827261,-4.299408,-12.949265,-0.647171,2.0330658,-0.6961975,1.1287842
1634,A,77940777181265,-3.7042847,-13.33493,1.0057831,1.7683563,-1.5862122,1.2908325
1634,A,77940827535269,-0.89959717,-12.212936,0.77168274,1.1563873,-1.8312073,1.0588531
1634,A,77940877889273,-0.7395325,-14.04187,-1.6554718,0.12373352,-1.4764099,0.72569275
1634,A,77940928243277,0.7998657,-11.964783,-3.3921661,-0.8993988,-0.42199707,0.34725952
1634,A,77940978597281,-1.708664,-8.905441,-0.5061035,-1.6063538,0.17488098,0.25624084
1634,A,77941028951285,-0.522171,-6.5494537,-1.9091339,-1.1520538,0.42660522,0.6271057
1634,A,77941079305289,1.394165,-4.572876,-1.0140381,-0.24360657,0.46473694,0.5462189
1634,A,77941129659293,0.7844696,-3.9225311,-0.0927124,-0.5078888,0.6886749,-0.08880615
1634,A,77941180013297,-0.57066345,-7.399582,4.8252716,-0.8161011,1.2999115,-0.8777008
1634,A,77941230367300,-3.0780334,-13.335556,7.4633026,-1.2666321,1.1498413,-0.54499817
1634,A,77941280721304,-3.8280792,-12.572617,3.8266907,-1.028305,1.5826263,0.032989502
1634,A,77941331075308,0.24557495,-13.451279,4.1756134,-0.5840454,1.2822571,-0.39048767
1634,A,77941381429312,1.814209,-13.345932,1.0601196,-0.31558228,1.319458,-0.45735168
1634,A,77941431783316,-4.5930176,-8.742523,-3.0239258,-0.7948456,1.0259094,-0.36372375
1634,A,77941482137320,-2.6613617,-11.447632,-0.27319336,-1.1726074,0.78616333,-0.6555023
1634,A,77941532491324,1.2220612,-9.030319,-1.1672974,-1.004776,0.79730225,-0.82522583
1634,A,77941582845328,-2.2466125,-9.310623,-2.3796234,-0.30430603,0.8254547,-0.5413666
1634,A,77941633199332,-1.5639343,-7.803665,-2.382492,0.3816223,0.29745483,-0.07841492
1634,A,77941683553336,-1.2198029,-7.764282,-1.5345001,1.6783295,-0.6901398,0.19606018
1634,A,77941733907339,-2.0391693,-10.138138,-0.30862427,2.769455,-1.2278595,0.42466736
1634,A,77941784261343,-3.5339203,-11.847824,0.1499176,2.4742126,-0.9029541,0.7789154
1634,A,77941834615347,-3.8672943,-13.272461,0.7814789,2.059021,-0.93556213,0.91519165
1634,A,77941884969351,-1.8212891,-12.617538,1.3854828,1.6926575,-1.3077545,0.845047
1634,A,77941935323355,-0.8865967,-12.620682,0.6681366,0.8874512,-1.4349823,0.49325562
1634,A,77941985677359,0.81292725,-13.591187,-2.0960388,-0.07972717,-0.8186188,0.21009827
1634,A,77942036031363,0.3630371,-11.350586,-1.3867798,-0.98635864,-0.028823853,0.34725952
1634,A,77942086385367,-1.1365662,-8.575485,-0.5992584,-1.4468842,0.4220276,0.5014496
1634,A,77942136739371,0.57237244,-5.3261414,-1.091919,-0.60350037,0.24458313,0.44599915
1634,A,77942187093375,0.5757599,-3.8187103,-0.68995667,-0.3287506,0.3453827,0.30278015
1634,A,77942237447379,0.30285645,-4.212845,0.9654846,-0.2895813,1.4931641,-0.20227051
1634,A,77942287801382,-0.52308655,-8.505524,7.173111,-0.77589417,1.1691742,-1.0905457
1634,A,77942338155386,-2.8134308,-14.062988,7.333359,-1.0950012,1.470459,-0.4235077
1634,A,77942388509390,-2.7620697,-12.573715,4.204544,-1.1120911,1.3531036,-0.12020874
1634,A,77942438863394,2.0072174,-10.846069,4.4661865,-0.6081848,1.1907349,-0.5006561
1634,A,77942489217398,0.058395386,-8.424438,-0.49673462,-0.6613922,0.9786835,-0.37519836
1634,A,77942539571402,-6.031021,-10.888168,-1.4273834,-1.1087036,0.62239075,-0.4604187
1634,A,77942589925406,0.19248962,-9.048904,-1.1004944,-1.2208862,0.3601532,-0.8950653
1634,A,77942640279410,-1.1685181,-9.015854,-0.86828613,-0.5832672,0.333786,-0.880661
1634,A,77942690633414,-2.2025452,-9.0646515,-1.6990967,0.051757813,0.27275085,-0.4862213
1634,A,77942740987418,-1.1038971,-8.188232,-1.5782776,1.2647095,-0.61772156,-0.05970764
1634,A,77942791341422,-1.7293549,-9.276276,0.069366455,2.8380737,-2.214325,0.5194702
1634,A,77942841695425,-3.1455383,-11.0271,0.29763794,2.539734,-0.60346985,0.9787903
1634,A,77942892049429,-3.2120972,-11.845154,0.43865967,1.7625122,-1.8217926,1.6454773
1634,A,77942942403433,-3.0285034,-12.724274,2.9812927,1.659317,-2.1719666,1.3842468
1634,A,77942992757437,-4.18898,-11.028992,-2.1320496,1.048523,-2.3442688,1.0890198
1634,A,77943043111441,0.07217407,-14.029999,-1.3679504,0.14416504,-1.7662811,0.5961914
1634,A,77943093465445,-0.10133362,-11.262894,-0.59065247,-0.85583496,-1.0416412,0.27978516
1634,A,77943143819449,-1.4873352,-9.387604,-2.4312134,-1.7074738,-0.21362305,0.02394104
1634,A,77943194173453,0.31903076,-6.680649,-2.3088837,-0.725708,0.22146606,0.3374939
1634,A,77943244527457,1.0713501,-4.1851196,-0.93533325,-0.14199829,-0.63998413,0.48336792
1634,A,77943294881461,1.7611389,-2.809021,-0.35328674,-1.4403229,2.3842773,-0.3173523
1634,A,77943345235464,-1.9618683,-7.0737457,3.3504333,-0.35447693,-0.5580597,-0.8314514
1634,A,77943395589468,-5.84935,-15.859634,8.355804,-1.2662201,2.2339172,-0.13311768
1634,A,77943445943472,-0.9672394,-11.50235,6.374954,-1.5271606,1.6469269,-0.016784668
1634,A,77943496297476,2.8108215,-16.206131,-0.20314026,-0.6674347,1.424469,-0.7416229
1634,A,77943546651480,-1.1773682,-1.8522034,-6.919998,-0.9156647,1.2469788,-0.346344
1634,A,77943597005484,-6.1790466,-12.372604,-1.9312439,-1.1381073,0.64945984,-0.4156189
1634,A,77943647359488,2.896881,-7.163727,-3.789795,-1.1426392,0.6755371,-0.848938
1634,A,77943697713492,-2.363739,-9.484879,-1.6552124,-0.3399048,0.7985077,-0.7094116
1634,A,77943748067496,-2.5181885,-9.01062,-2.624237,0.35072327,0.41049194,-0.18811035
1634,A,77943798421500,-1.4773407,-8.403183,-0.9798584,1.4927826,-0.6843872,0.052825928
1634,A,77943848775504,-1.072815,-9.303848,0.3765869,3.5482483,-2.0445404,0.49082947
1634,A,77943899129507,-3.3361664,-10.907074,1.8689728,2.5541687,0.3524933,1.1071777
1634,A,77943949483511,-4.040283,-12.338287,-0.21461487,2.1460571,-2.2535553,1.4242859
1634,A,77943999837515,-1.7098236,-13.312866,1.0035095,2.0526123,-1.7294159,0.66448975
1634,A,77944050191519,-3.207672,-11.86705,-2.5868988,0.9264221,-2.0836487,0.6107788
1634,A,77944100545523,0.5651703,-15.998901,-4.0117035,-0.2056427,-0.8792877,0.22718811
1634,A,77944150899527,0.04298401,-8.799896,0.5071411,-1.3321991,0.10169983,0.3183136
1634,A,77944201253531,-0.84814453,-7.1625214,-1.4799194,-2.006836,0.64042664,0.45056152
1634,A,77944251607535,1.3712006,-4.812546,-2.814331,-0.106155396,0.32260132,0.5950165
1634,A,77944301961539,1.0228577,-3.5870056,-0.9435272,-0.29100037,-0.19526672,0.18664551
1634,A,77944352315543,1.0337067,-3.0424042,1.5279541,-0.7614746,1.9942627,-0.70584106
1634,A,77944402669547,-1.798233,-10.935715,5.7756195,-1.4547577,1.0398102,-0.8127136
1634,A,77944453023550,-5.6270294,-17.04216,6.339203,-1.2608948,2.0527496,-0.04586792
1634,A,77944503377554,-0.7927704,-10.239258,4.721817,-1.2005005,0.95925903,-0.13739014
1634,A,77944553731558,1.4511871,-17.357925,3.0349731,-0.5632019,1.089325,-0.64538574
1634,A,77944604085562,-0.5982361,-2.9595337,-5.950989,-1.1404114,0.96751404,-0.34358215
1634,A,77944654439566,-7.9649963,-14.090836,0.6978302,-1.2576447,0.5597992,-0.5749512
1634,A,77944704793570,3.0502167,-6.4849854,-2.5834808,-0.9488678,0.5322113,-0.8271942
1634,A,77944755147574,-2.8243713,-9.917892,-1.1261749,-0.08934021,0.68063354,-0.46290588
1634,A,77944805501578,-2.2510223,-8.37854,-2.960968,0.860199,0.113220215,-0.08534241
1634,A,77944855855582,-1.2133789,-8.656036,-0.28527832,2.5009613,-1.3020172,0.40386963
1634,A,77944906209586,-2.3628387,-9.983734,-0.08248901,3.2827606,-1.7632141,0.82936096
1634,A,77944956563589,-2.1634521,-11.365067,1.4187775,2.201706,0.22180176,1.1494293
1634,A,77945006917593,-2.8400269,-11.89151,1.6924591,1.763031,-1.8250275,1.5014801
1634,A,77945057271597,-2.1378784,-12.031403,1.6846771,1.3318176,-1.7413635,0.97465515
1634,A,77945107625601,-2.1151123,-14.019196,-4.4490356,0.40940857,-1.7665253,0.6088104
1634,A,77945157979605,-0.46183777,-15.275879,-3.1124268,-0.6889801,-0.7344971,0.25816345
1634,A,77945208333609,-1.2579651,-9.090805,-0.5695343,-1.472992,-0.15359497,0.040252686
1634,A,77945258687613,-0.9967804,-6.3466034,-2.5198517,-1.4001465,0.20646667,0.2645111
1634,A,77945309041617,0.9463043,-3.915863,-2.6734772,-0.5678711,0.4222412,0.39834595
1634,A,77945359395621,1.2576294,-3.3452606,-0.8865051,-0.8474426,0.58506775,-0.03274536
1634,A,77945409749625,-0.017456055,-5.574173,3.2022552,-1.1343079,1.6630096,-0.9172363
1634,A,77945460103629,-4.933426,-12.778763,7.8763733,-0.83288574,0.7773285,-0.8158417
1634,A,77945510457632,-5.5917053,-14.414398,6.077301,-1.0849915,1.7978973,0.035003662
1634,A,77945560811636,-0.26817322,-13.11203,5.190735,-0.70040894,1.0534515,-0.3938141
1634,A,77945611165640,2.7980652,-13.474518,0.07421875,-0.4261322,1.1897125,-0.67640686
1634,A,77945661519644,-4.2681885,-6.449478,-4.1276245,-1.0190277,0.7296753,-0.44091797
1634,A,77945711873648,-4.7014465,-11.931595,-1.2291412,-1.1705933,0.48265076,-0.65060425
1634,A,77945762227652,2.9095764,-8.513824,-1.7289429,-0.727005,0.586792,-0.8121338
1634,A,77945812580422,-2.8072205,-9.488327,-2.9437103,0.020599365,0.4973755,-0.47769165
1634,A,77945862934426,-2.2996063,-8.547913,-2.51062,1.0954132,-0.4113617,0.09098816
1634,A,77945913288430,-1.1464844,-8.270035,-0.5187073,2.7417297,-1.9127502,0.6044464
1634,A,77945963642434,-2.650467,-10.33638,0.45031738,3.0993042,-1.2393646,0.8768921
1634,A,77946013996438,-3.6138153,-12.137711,1.0566559,2.2662811,-0.5226593,1.304779
1634,A,77946064350441,-3.7756348,-12.573807,1.825119,1.7980499,-1.728302,1.4024963
1634,A,77946114704445,-2.9425964,-12.213562,-0.18489075,1.2915802,-1.9985504,0.78941345
1634,A,77946165058449,-0.48757935,-14.03685,-2.4060974,0.36242676,-1.7230835,0.39248657
1634,A,77946215412453,-0.27870178,-12.43988,0.45204163,-0.70332336,-0.6743469,0.30628967
1634,A,77946265766457,-1.7649841,-8.09996,-0.15084839,-1.7502289,0.42193604,0.24845886
1634,A,77946316120461,0.14561462,-5.470688,-1.6222534,-1.6907654,1.1726837,0.33190918
1634,A,77946366474465,1.0040588,-4.2123413,-0.61842346,-0.5536194,0.58432007,0.3493805
1634,A,77946416828469,0.49057007,-3.7769318,0.6092682,-0.5777283,0.9698334,-0.36302185
1634,A,77946467182473,-0.11273193,-5.6675262,2.0102081,-1.0600128,1.2293091,-1.0162811
1634,A,77946517536477,-3.342102,-14.041458,6.1430206,-1.0884094,1.5640106,-0.43281555
1634,A,77946567890480,-3.1246643,-14.874817,7.8212433,-1.115036,1.5669098,-0.15180969
1634,A,77946618244484,1.3756866,-15.830734,5.407257,-0.66386414,1.2536011,-0.5234833
1634,A,77946668598488,0.16755676,-11.03302,-2.6994476,-0.6684723,1.2232056,-0.48260498
1634,A,77946718952492,-4.94841,-9.163864,-3.3955078,-0.99279785,0.975296,-0.48962402
1634,A,77946769306496,-1.0459595,-9.589294,-0.98568726,-1.0844269,0.85505676,-0.7800598
1634,A,77946819660500,-0.4310913,-8.779816,-1.6938477,-0.5857239,0.8336334,-0.80033875
1634,A,77946870014504,-2.3509064,-9.322937,-2.5803528,0.041625977,0.5046692,-0.44252014
1634,A,77946920368508,-1.4962158,-8.491928,-2.335022,1.10495,-0.44070435,0.0023956299
1634,A,77946970722512,-1.8344879,-9.104767,-0.918808,2.7593384,-1.5251923,0.37039185
1634,A,77947021076516,-3.034546,-10.741501,0.48332214,2.9020233,-0.40875244,0.7884369
1634,A,77947071430520,-4.460846,-12.774155,0.1743927,2.3339539,-1.6277313,1.1348419
1634,A,77947121784523,-3.7825623,-13.188141,0.8540039,2.1172638,-1.776947,0.8843384
1634,A,77947172138527,-1.9914551,-11.793945,-1.5149994,1.3538208,-1.7429504,0.49319458
1634,A,77947222492531,0.72346497,-14.158356,-2.007965,0.1940918,-1.3155518,0.08924866
1634,A,77947272846535,-0.92648315,-11.792923,-0.22038269,-0.9508667,0.030395508,0.36068726
1634,A,77947323200539,0.1787262,-8.352676,-1.6858368,-1.8507843,0.9034424,0.5233154
1634,A,77947373554543,1.1403809,-5.1445313,-2.2078857,-0.7744446,0.66000366,0.37982178
1634,A,77947423908547,0.86161804,-4.068863,-1.1863556,-0.029464722,0.04925537,0.25505066
1634,A,77947474262551,0.7879181,-3.7109222,0.63775635,-0.72076416,2.0479736,-0.75479126
1634,A,77947524616555,-0.5396881,-7.4199677,2.6261597,-1.2233887,1.8166656,-0.97943115
1634,A,77947574970559,-5.3758698,-16.950638,8.060577,-1.3791656,2.0118866,-0.011734009
1634,A,77947625324563,-0.8229828,-10.143845,6.330826,-1.2378235,1.3397064,-0.0715332
1634,A,77947675678566,0.6724243,-16.98967,3.5126343,-0.3640442,1.2319183,-0.5809021
1634,A,77947726032570,-0.51556396,-4.0519867,-6.894272,-0.7055664,1.0830841,-0.41079712
1634,A,77947776386574,-6.363266,-11.785797,-0.3232422,-1.0277863,0.5491791,-0.49645996
1634,A,77947826740578,1.7067261,-8.353561,-0.9660797,-1.0756836,0.5946655,-0.8403168
1634,A,77947877094582,-2.1502838,-9.357178,-0.2089386,-0.5371399,0.5178833,-0.70835876
1634,A,77947927448586,-1.8203583,-8.455673,-2.3174744,0.2612152,0.45315552,-0.43649292
1634,A,77947977802590,-1.098175,-8.643784,-0.9358978,1.4910126,-0.7718353,-0.07316589
1634,A,77948028156594,-1.9489288,-9.371582,-0.76828,3.4065857,-2.030243,0.33807373
1634,A,77948078510598,-3.0536041,-11.236694,0.963089,2.7819977,-0.3999939,0.9524994
1634,A,77948128864602,-3.5453644,-12.835297,-0.2935791,2.234146,-2.1105652,1.3187561
1634,A,77948179218605,-3.9290009,-13.2174225,1.1939545,1.9476624,-1.3114014,1.0343018
1634,A,77948229572609,-3.8466187,-11.3211975,-3.0139923,0.9713898,-1.5037842,0.86834717
1634,A,77948279926613,0.78863525,-14.332001,-1.7091827,-0.33067322,-0.9655304,0.22621155
1634,A,77948330280617,-0.42156982,-11.109009,0.076797485,-1.3888702,-0.2992401,0.26286316
1634,A,77948380634621,0.54148865,-6.716919,-1.9763641,-2.0007782,-0.1262207,0.59898376
1634,A,77948430988625,1.5683746,-4.3898926,-1.4515991,-0.4148407,0.45072937,0.72602844
1634,A,77948481342629,1.1372833,-3.9470215,-1.0768585,-0.4036255,-0.70755005,0.37057495
1634,A,77948531696633,0.43688965,-4.383362,1.9921875,-1.266861,1.5963593,-0.91874695
1634,A,77948582050637,-3.4996948,-11.049149,6.394516,-0.53967285,-1.1726074,-1.3127136
1634,A,77948632404641,-5.4401703,-16.334732,5.7621,-1.5611115,1.686966,0.18151855
1634,A,77948682758645,-0.37850952,-9.642456,3.4633026,-1.0885773,1.0041199,0.35635376
1634,A,77948733112648,4.770996,-14.127548,4.268936,-0.7976532,0.7046509,-0.39808655
1634,A,77948783466652,-4.4801025,-8.309341,-6.34079,-0.88191223,0.88513184,-0.19090271
1634,A,77948833820656,-2.3666382,-10.665131,1.494873,-1.1275635,0.57380676,-0.36180115
1634,A,77948884174660,1.0904236,-6.562851,-1.6058502,-1.0063171,0.71099854,-0.5532074
1634,A,77948934528664,-1.1753693,-9.23436,0.45457458,-0.49360657,0.77864075,-0.4091797
1634,A,77948984882668,-2.796173,-8.929916,-0.59721375,0.36016846,0.46237183,-0.19406128
1634,A,77949035236672,-1.8420105,-8.566681,-1.4383087,1.6034088,-0.5086975,0.10769653
1634,A,77949085590676,-1.5637054,-10.495651,0.5161896,3.0807037,-1.9951324,0.344635
1634,A,77949135944680,-1.9502869,-10.858353,-0.23597717,2.6598053,-0.84739685,0.6716461
1634,A,77949186298684,-2.8832245,-12.711121,0.7735138,2.1773834,-1.9185791,0.68826294
1634,A,77949236652688,-3.6047974,-12.922379,1.7467499,1.9401398,-1.3168945,0.17741394
1634,A,77949287006691,-2.7928314,-12.260666,-1.5319366,0.8877411,-0.76123047,0.28904724
1634,A,77949337360695,0.9777832,-14.203629,0.25990295,-0.47843933,-0.116744995,0.24183655
1634,A,77949387714699,0.86354065,-10.326096,-0.036254883,-1.6821747,0.55384827,0.50431824
1634,A,77949438068703,0.7774658,-7.7977448,-0.08166504,-1.6046295,0.41627502,0.532547
1634,A,77949488422707,0.26759338,-5.1035614,-0.81492615,-0.14219666,0.18386841,0.39413452
1634,A,77949538776711,0.48550415,-4.2137604,0.35273743,-0.6802521,0.4840088,0.10038757
1634,A,77949589130715,-0.19073486,-5.934677,3.5578766,-1.4940796,1.9177856,-0.87364197
1634,A,77949639484719,-1.4183044,-11.014877,7.720337,-1.805069,1.5610809,-0.6747284
1634,A,77949689838723,-2.997635,-12.334686,6.0746765,-1.2605743,1.9740295,0.034988403
1634,A,77949740192727,-1.591095,-9.388733,2.7392883,-0.6060486,1.5830841,-0.13375854
1634,A,77949790546730,1.4569855,-14.757919,1.6753998,-0.36883545,1.2094879,-0.40663147
1634,A,77949840900734,-1.5366364,-5.090866,-4.172043,-0.8317566,0.906662,-0.41516113
1634,A,77949891254738,-4.8171844,-13.445923,2.0877838,-1.0196991,0.5751343,-0.6577301
1634,A,77949941608742,1.5132751,-8.437653,-1.6444702,-0.75335693,0.49957275,-0.79597473
1634,A,77949991962746,-2.2667694,-9.183121,-1.8631134,-0.1512909,0.559021,-0.5031738
1634,A,77950042316750,-2.2580566,-7.998123,-1.8299408,0.5965729,-0.019302368,-0.14318848
1634,A,77950092670754,-1.2874756,-9.153793,-0.84321594,2.0054932,-1.4890137,0.19999695
1634,A,77950143024758,-1.7892303,-10.365494,-0.38624573,3.1655731,-1.6169586,0.5150757
1634,A,77950193378762,-3.0903778,-11.107819,0.83755493,2.6412354,-1.1078033,1.084198
1634,A,77950243732766,-3.9359589,-12.323135,0.8689728,1.9194183,-1.976181,1.4990387
1634,A,77950294086770,-2.8368378,-12.454926,0.6308441,1.5453491,-2.0297241,1.2970886
1634,A,77950344440773,-0.73291016,-13.021057,-0.94107056,0.70495605,-2.1866455,0.9988098
1634,A,77950394794777,-0.24124146,-13.716431,-0.36845398,-0.35835266,-1.3379974,0.58639526
1634,A,77950445148781,-1.6210175,-10.229858,-1.1147766,-1.5894318,-0.116607666,0.2464447
1634,A,77950495502785,-0.3325653,-7.1110687,-1.5363464,-1.6253815,0.6921997,0.18641663
1634,A,77950545856789,1.564682,-5.3609924,-1.4967499,-0.4399109,0.38702393,0.30517578
1634,A,77950596210793,1.96521,-3.9026794,-0.61499023,-0.63731384,1.0276184,-0.15641785
1634,A,77950646564797,0.64268494,-4.7350006,1.1169281,-0.8195038,1.3769531,-0.7181244
1634,A,77950696918801,-2.1173859,-12.064178,6.6784973,-0.66192627,0.78045654,-0.57774353
1634,A,77950747272805,-1.8058319,-13.958466,8.152084,-1.229248,1.2506866,-0.01739502
1634,A,77950797626809,1.054779,-11.52272,1.6367493,-0.9590454,1.0964661,-0.22732544
1634,A,77950847980813,-0.15542603,-7.8361664,-4.0483093,-0.8093109,1.0040741,-0.42477417
1634,A,77950898334816,-4.12088,-7.0703278,-2.9637146,-0.9263916,0.7113495,-0.3418579
1634,A,77950948688820,-1.9982452,-9.299896,0.10897827,-0.89889526,0.618927,-0.69281006
1634,A,77950999042824,-0.17337036,-7.7989807,-0.6625061,-0.66482544,0.6856384,-0.7850342
1634,A,77951049396828,-1.9057617,-9.339447,-1.3455658,-0.18244934,0.541214,-0.4509735
1634,A,77951099750832,-1.0936737,-9.132904,-1.3389282,0.86361694,-0.00730896,-0.03413391
1634,A,77951150104836,-1.2149963,-9.741745,-1.2471619,2.5502777,-1.2545624,0.1912384
1634,A,77951200458840,-2.0725708,-10.181854,-0.15750122,3.1147308,-0.87535095,0.48809814
1634,A,77951250812844,-3.0431976,-11.776352,-0.35401917,2.388382,-0.8372803,0.9368286
1634,A,77951301166848,-3.6166382,-12.84314,1.6869202,1.789566,-1.4176025,1.075592
1634,A,77951351520852,-2.338623,-12.295013,0.7513733,1.181961,-1.7398071,1.0225525
1634,A,77951401874855,0.059799194,-14.040939,-0.24032593,0.32484436,-1.4384766,0.75917053
1634,A,77951452228859,-1.2988129,-12.495178,-0.4049225,-0.6176605,-0.32966614,0.4925995
1634,A,77951502582863,-0.86660767,-8.346024,-1.3046112,-1.6309357,0.57821655,0.39811707
1634,A,77951552936867,0.8358002,-6.164795,-1.1885834,-1.1788025,0.8227844,0.62145996
1634,A,77951603290871,1.0960541,-5.2802124,-0.2252655,-0.16268921,0.09008789,0.45002747
1634,A,77951653644875,0.729599,-4.4772034,0.5148468,-0.84198,1.3920135,-0.19998169
1634,A,77951703998879,-1.208847,-6.340805,2.4805756,-0.34780884,1.6839142,-0.68603516
1634,A,77951754352883,-2.2082825,-13.373337,8.61348,-1.1697998,1.9403687,-0.4806671
1634,A,77951804706887,0.19728088,-12.648529,5.857147,-1.497406,1.5977783,-0.08114624
1634,A,77951855060891,1.8115234,-11.489883,-1.2552032,-0.7249298,1.874588,-0.26504517
1634,A,77951905414895,0.8699951,-3.703186,-5.498413,-0.12574768,1.8013916,-0.41558838
1634,A,77951955768898,-6.399109,-9.728668,-2.6453094,-0.5268707,1.4315186,-0.33818054
1634,A,77952006122902,-0.11669922,-8.167999,-3.4274597,-0.84606934,0.8656311,-0.6095123
1634,A,77952056476906,0.33673096,-8.488632,-1.4244232,-0.9370117,0.64450073,-0.9190979
1634,A,77952106830910,-2.2448883,-9.755829,-2.7666473,-0.44615173,0.816803,-0.6280823
1634,A,77952157184914,-1.9575653,-8.298782,-2.8724365,0.11366272,0.6541443,-0.33790588
1634,A,77952207538918,-0.7678833,-8.776627,-1.1380157,1.0412445,-0.7619934,0.16296387
1634,A,77952257892922,-1.9166107,-9.91275,-1.3249512,3.0464172,-1.2472229,0.21827698
1634,A,77952308246926,-2.0416565,-10.961014,0.7371521,2.9832458,-0.42149353,0.8156738
1634,A,77952358600930,-4.7223816,-13.579514,-0.74360657,2.2673187,-1.5904388,1.315155
1634,A,77952408954934,-2.5718994,-14.064606,1.76857,1.9094086,-2.0074768,1.4568329
1634,A,77952459308938,-2.0093079,-11.890915,-1.4121246,1.2527313,-2.1028595,1.3209534
1634,A,77952509662941,0.9306793,-14.582535,-1.821991,0.5486603,-2.0809479,0.41452026
1634,A,77952560016945,-2.5892944,-10.575104,-0.027053833,-0.65812683,-0.5461731,0.26985168
1634,A,77952610370949,-0.83891296,-9.076828,-2.0705109,-1.7678528,0.23423767,0.23825073
1634,A,77952660724953,0.8156433,-4.7467194,-0.54785156,-0.97665405,0.5980072,0.3896942
1634,A,77952711078957,2.1788635,-4.472,-0.64219666,-0.08731079,-0.14523315,0.27243042
1634,A,77952761432961,0.9255066,-4.2368317,0.5000763,-1.4272308,2.4886322,-0.37875366
1634,A,77952811786965,-2.6356964,-6.3096313,3.4031525,0.4302826,0.333786,-0.7392273
1634,A,77952862140969,-1.9192505,-15.281464,9.141449,-1.3764191,1.5385437,-0.27211
1634,A,77952912494973,2.0641937,-8.580521,5.610504,-1.4026337,1.7755585,0.56277466
1634,A,77952962848977,1.6779785,-10.339081,-6.4553986,-0.720871,1.1352692,-0.43380737
1634,A,77953013202980,-1.3252258,-3.4121246,-3.7042084,-0.622879,1.8744965,-0.37905884
1634,A,77953063556984,-4.7608795,-10.349457,-0.5128784,-1.0491943,1.0063629,-0.40464783
1634,A,77953113910988,-0.3196869,-6.305008,-2.201416,-1.272583,1.0924835,-0.72232056
1634,A,77953164264992,1.2613068,-7.938156,0.2328949,-0.44883728,1.0593872,-0.7281647
1634,A,77953214618996,-2.2608032,-9.242218,-2.247635,0.2186737,0.76908875,-0.38468933
1634,A,77953264973000,-2.2532349,-8.856216,-1.388443,1.2597046,-0.43807983,0.09828186
1634,A,77953315327004,-1.2484894,-9.857162,-0.73257446,3.1837006,-1.2906952,0.3699646
1634,A,77953365681008,-2.9162903,-11.418549,0.8082428,2.9812622,-0.673172,0.77153015
1634,A,77953416035012,-4.4835663,-12.435196,-0.5409088,2.089096,-1.2110596,1.1842346
1634,A,77953466389016,-3.1637878,-13.891586,2.83107,2.0006561,-1.3480682,0.79670715
1634,A,77953516743020,-0.5421295,-11.128815,-1.4644165,1.0810547,-1.7363739,0.5659485
1634,A,77953567097023,1.4371643,-14.445801,0.538147,-0.25134277,-0.8465576,0.24150085
1634,A,77953617451027,-0.5713501,-11.5572815,-1.6321106,-1.5729218,0.07759094,0.45291138
1634,A,77953667805031,-0.72358704,-7.7391357,-1.6158295,-2.0517426,0.5798645,0.30566406
1634,A,77953718159035,1.0904694,-5.2892,-1.6492004,-0.15408325,0.42907715,0.38134766
1634,A,77953768513039,0.00793457,-4.3842926,-0.10935974,-0.049743652,0.4960785,0.12573242
1634,A,77953818867043,0.27046204,-4.1854553,2.1859283,-0.7879181,1.9736328,-0.8756561
1634,A,77953869221047,-2.0490417,-10.964722,5.4625854,-1.5900574,1.1456757,-0.5696411
1634,A,77953919575051,-4.0717926,-16.286667,6.811676,-1.4151154,2.1632843,0.2611084
1634,A,77953969929055,1.3188171,-9.012772,2.2587433,-1.0263824,0.9733124,-0.34158325
1634,A,77954020283059,1.8694763,-16.874374,2.2242737,-0.48025513,1.3031311,-0.52630615
1634,A,77954070637063,-5.13501,-5.5704193,-4.6467133,-1.0809631,0.9407654,-0.3565979
1634,A,77954120991066,-3.9586182,-10.304535,0.5446472,-1.0824585,0.84002686,-0.73487854
1634,A,77954171345070,2.413086,-8.723434,-0.12591553,-0.6488037,0.6925659,-0.7368622
1634,A,77954221699074,-2.9874115,-9.403091,-1.704483,0.12008667,0.1713562,-0.28578186
1634,A,77954272053078,-1.9815521,-8.299057,-1.9322052,1.1640625,-1.129715,0.19973755
1634,A,77954322407082,-1.1617584,-10.060226,-0.7759247,2.9758606,-1.3508759,0.469635
1634,A,77954372761086,-3.7978058,-11.275299,-0.75564575,3.1354675,-1.8023682,0.848526
1634,A,77954423115090,-4.9575806,-13.976379,-0.8868408,2.4977264,-1.8325195,0.7250366
1634,A,77954473469094,-2.353241,-14.2243805,1.7780914,1.9551392,-1.4269562,0.32351685
1634,A,77954523823098,0.37467957,-12.696106,1.1588287,0.6924896,-1.0995331,0.18666077
1634,A,77954574177102,0.9494629,-13.212189,-1.4897156,-0.94325256,-0.20466614,-0.0037231445
1634,A,77954624531105,0.76119995,-11.247879,-0.69747925,-1.4783783,0.13061523,-0.104400635
1634,A,77954674885109,-0.6240845,-7.044113,-1.6717682,-0.24739075,-0.040924072,7.171631E-4
1634,A,77954725239113,0.8735199,-3.5394745,-1.6754303,0.24241638,0.33694458,0.18943787
1634,A,77954775593117,0.85739136,-3.3096619,1.4064636,-0.077804565,0.97761536,-0.22349548
1634,A,77954825947121,-0.66108704,-9.409607,6.4392548,-0.7270355,0.6459198,-0.20179749
1634,A,77954876301125,-0.04460144,-13.550995,7.8863983,-1.4773254,0.933197,0.1295166
1634,A,77954926655129,0.46835327,-9.596527,1.1959534,-1.4377747,1.6433563,-0.3841095
1634,A,77954977009133,0.44934082,-7.4379272,-5.1451263,-1.3942413,1.2214355,-0.5313263
1634,A,77955027363137,-2.5881958,-6.8563385,-2.783249,-1.428421,0.8899231,-0.41004944
1634,A,77955077717141,-2.3128967,-10.772598,-0.14331055,-1.2039948,0.81311035,-0.513443
1634,A,77955128071145,0.30064392,-8.271866,-1.8482056,-0.86457825,0.6896057,-0.57922363
1634,A,77955178425148,-1.731247,-8.901337,-1.9935303,-0.3742981,0.5828705,-0.42158508
1634,A,77955228779152,-1.8752441,-9.445084,-0.6814575,0.38694763,0.13404846,-0.18719482
1634,A,77955279133156,-1.488266,-9.549408,-0.93788147,1.7452393,-0.69692993,0.23200989
1634,A,77955329487160,-1.8538971,-10.365128,-0.13258362,2.9081573,-1.4502411,0.6799469
1634,A,77955379841164,-2.930893,-11.79921,0.14085388,2.5738068,-1.1765594,1.0134125
1634,A,77955430195168,-4.376175,-13.181961,0.88142395,1.8439178,-1.0471649,1.2543182
1634,A,77955480549172,-2.946167,-12.264252,-0.06213379,1.5658722,-1.8449249,1.1828918
1634,A,77955530903176,-0.29634094,-13.533905,-0.6582947,0.9281006,-2.020172,0.89097595
1634,A,77955581257180,-0.124420166,-14.530914,-1.9490814,0.025756836,-1.2037659,0.5971832
1634,A,77955631611184,-0.8840637,-10.360809,-2.7401428,-0.96336365,-0.17243958,0.28434753
1634,A,77955681965188,-1.095993,-7.188614,-1.1156769,-1.7254639,0.578537,0.3083954
1634,A,77955732319191,0.67578125,-5.852478,-0.7003174,-1.0140076,0.8331604,0.5463562
1634,A,77955782676957,0.8514252,-4.429077,0.08468628,-0.61875916,0.60232544,0.29489136
1634,A,77955833030961,0.5448761,-4.2588654,1.3249359,-0.9880066,1.2994385,-0.39668274
1634,A,77955883384965,-0.54281616,-9.219696,5.659851,-1.1459656,1.1171265,-0.959671
1634,A,77955933738969,-4.7669983,-13.052948,7.1593475,-1.1572876,1.948288,-0.25723267
1634,A,77955984092973,-2.7529907,-12.088165,4.366745,-1.0921936,1.8343048,0.031692505
1634,A,77956034446977,1.9956818,-16.2621,3.802719,-0.500824,1.5820465,-0.3287964
1634,A,77956084800981,0.15541077,-10.51799,-1.6571198,-0.4731903,1.4352875,-0.26272583
1634,A,77956135154985,-4.533127,-9.451706,-1.6753998,-0.79159546,1.0065308,-0.33737183
1634,A,77956185508989,0.17437744,-8.938217,-0.041900635,-0.9203949,0.8177185,-0.71588135
1634,A,77956235862992,-0.5708618,-8.596725,-0.100997925,-0.577301,1.015274,-0.59280396
1634,A,77956286216996,-2.9009705,-8.923309,-1.5380859,0.00730896,1.2322388,-0.30007935
1634,A,77956336571000,-0.70384216,-8.595139,-1.3956451,1.0149384,0.23747253,0.058807373
1634,A,77956386925004,-1.7151031,-9.653244,-1.0250092,2.7530823,-1.1771088,0.4487915
1634,A,77956437279008,-2.40802,-11.359161,0.077178955,3.280655,-0.49160767,0.7292328
1634,A,77956487633012,-2.9109344,-13.018921,-0.08705139,2.1743774,-1.0410461,1.2882538
1634,A,77956537987016,-5.134796,-13.087433,0.48435974,1.8874359,-1.2520905,0.9516144
1634,A,77956588341020,-1.7359161,-12.121735,-0.46731567,1.4818726,-1.5800018,0.44078064
1634,A,77956638695024,0.111953735,-14.921265,0.04611206,0.43199158,-1.1659393,-0.25930786
1634,A,77956689049028,-1.7115479,-11.737747,0.11376953,-0.59780884,0.19857788,-0.13461304
1634,A,77956739403032,1.1649017,-7.8013,-0.8065491,-1.4138336,0.6457367,0.20277405
1634,A,77956789757035,1.4438019,-5.6229095,-1.008728,-1.1566467,0.4921112,0.2208252
1634,A,77956840111039,0.87594604,-4.371994,0.6208954,-0.10523987,0.070755005,0.30718994
1634,A,77956890465043,-1.0377502,-5.2760773,2.3914337,-0.9503784,1.3929596,-0.115997314
1634,A,77956940819047,0.34036255,-5.471878,2.5437317,0.18640137,0.26501465,-0.77412415
1634,A,77956991173051,-2.5944672,-14.358444,8.629303,-1.5521545,1.1270142,-0.5523529
1634,A,77957041527055,0.40423584,-8.834396,4.8950653,-1.4319153,1.8970032,0.31402588
1634,A,77957091881059,0.7033081,-8.060669,-3.4788513,-0.57366943,1.3127747,-0.36709595
1634,A,77957142235063,-0.9611206,-7.665222,-0.101242065,-0.5666046,1.281723,-0.37420654
1634,A,77957192589067,-2.631012,-9.736237,-3.2513428,-0.8592682,0.53414917,-0.21141052
1634,A,77957242943071,-2.2124786,-9.270782,-0.36453247,-0.9622345,0.7434845,-0.55596924
1634,A,77957293297075,0.7220001,-8.428757,0.5224304,-0.83914185,0.7531738,-0.7206421
1634,A,77957343651078,-3.540329,-9.417038,-1.2237396,-0.24295044,0.96780396,-0.59602356
1634,A,77957394005082,-2.237091,-8.386917,-1.0741119,0.4506073,0.0708313,-0.15826416
1634,A,77957444359086,0.044555664,-8.817596,-1.3855438,2.043335,-1.0670929,0.35725403
1634,A,77957494713090,-2.437317,-10.138428,0.3283844,3.2958374,-1.8528748,0.6713867
1634,A,77957545067094,-3.9185944,-11.102188,-0.63165283,2.238037,-0.19689941,0.8192749
1634,A,77957595421098,-4.495529,-14.657715,0.7043915,1.941742,-1.5060883,1.237915
1634,A,77957645775102,-1.2804871,-13.00824,1.7298279,1.6054535,-1.5460205,0.99516296
1634,A,77957696129106,-0.5104828,-11.76741,-0.5288391,0.73461914,-1.5787048,0.7029877
1634,A,77957746483110,1.3540802,-12.567505,-2.2071838,-0.24021912,-0.6469116,0.3155365
1634,A,77957796837114,-1.7707062,-9.212936,0.24368286,-1.3517151,-0.18318176,0.32489014
1634,A,77957847191117,-0.4872589,-6.938797,-0.91796875,-1.9536743,0.41870117,0.15396118
1634,A,77957897545121,1.3609924,-4.9226227,-0.17941284,-0.34710693,0.21942139,0.40142822
1634,A,77957947899125,0.6606293,-4.014023,0.15548706,-0.4430542,-0.21910095,0.04963684
1634,A,77957998253129,0.5470886,-3.4161987,1.0406494,-0.9297638,2.2489166,-0.60839844
1634,A,77958048607133,-2.8095245,-11.324631,6.3285065,-0.91101074,0.77557373,-1.0868225
1634,A,77958098961137,-5.1881256,-14.993347,8.002457,-1.2116089,2.099945,0.16326904
1634,A,77958149315141,0.8415375,-11.835678,4.3396454,-1.2350311,1.771698,0.21717834
1634,A,77958199669145,3.1724548,-15.326736,2.0551453,-0.58833313,1.3051147,-0.44769287
1634,A,77958250023149,-3.8163147,-5.5341644,-6.4119873,-0.63005066,1.319046,-0.21820068
1634,A,77958300377153,-4.4803467,-12.417221,1.7080078,-0.85331726,0.81881714,-0.2441864
1634,A,77958350731157,1.6504211,-5.609497,-1.8680878,-0.94343567,0.73165894,-0.5208435
1634,A,77958401085160,-1.901062,-9.8198395,0.2024231,-0.5366974,0.7420807,-0.57936096
1634,A,77958451439164,-2.6274872,-8.590729,-1.5101013,0.1940918,1.0265808,-0.44465637
1634,A,77958501793168,-1.6408844,-8.218262,-0.5656891,1.3922882,0.028198242,0.1832428
1634,A,77958552147172,-1.6797028,-10.1241,-0.53370667,3.2248383,-0.75097656,0.5585022
1634,A,77958602501176,-1.8423309,-12.067154,0.41352844,3.1996613,-1.2839355,1.1181335
1634,A,77958652855180,-4.514221,-13.144684,-0.82502747,2.0075073,-0.9156952,1.1724701
1634,A,77958703209184,-3.8420868,-13.301422,1.2065887,2.0773773,-0.89912415,0.7110138
1634,A,77958753563188,0.28067017,-12.104187,0.4224701,1.2959442,-1.1757965,0.2315216
1634,A,77958803917192,-0.6153412,-15.401733,-0.40289307,-0.02822876,-0.72428894,-0.26887512
1634,A,77958854271196,0.41677856,-12.59227,-2.294571,-0.9987488,0.21774292,-0.14361572
1634,A,77958904625200,1.9477539,-6.96846,-0.9567261,-0.982666,0.585022,0.27516174
1634,A,77958954979203,0.44682312,-5.534439,-0.8694,-0.2626648,0.07595825,0.2987671
1634,A,77959005333207,0.9498749,-3.8993988,1.1177368,-0.5691223,0.63145447,0.18708801
1634,A,77959055687211,-1.5731659,-5.96904,3.2290955,-0.9427643,1.9655762,-0.09573364
1634,A,77959106041215,-2.027588,-9.524307,6.420395,-0.6184387,1.5892639,-0.7744446
1634,A,77959156395219,-3.0937653,-13.5634,6.8355103,-1.3607635,1.6621094,-0.50167847
1634,A,77959206749223,1.3269501,-9.612915,1.9866638,-0.9660034,1.7199249,0.08091736
1634,A,77959257103227,-0.11079407,-9.19072,-2.2719421,-0.6651459,1.4266052,-0.35282898
1634,A,77959307457231,-0.3054657,-6.5928497,-2.0238647,-0.47010803,1.6050873,-0.45881653
1634,A,77959357811235,-3.5095673,-9.220642,-0.4577484,-0.53967285,1.3189087,-0.3397827
1634,A,77959408165239,-2.387619,-9.52771,-0.054367065,-0.72584534,1.1458435,-0.4498291
1634,A,77959458519242,0.123062134,-7.8932343,-0.01876831,-0.97817993,0.91270447,-0.5461731
1634,A,77959508873246,-2.2893524,-9.295837,-0.30747986,-0.6825104,0.9011688,-0.56307983
1634,A,77959559227250,-1.9010925,-8.761642,-0.4369049,-0.17236328,0.6658325,-0.46418762
1634,A,77959609581254,-2.0151062,-8.540146,-0.8068085,0.20840454,0.04852295,-0.23283386
1634,A,77959659935258,-2.1379852,-9.133774,-0.87864685,1.4469299,-0.9249115,0.030334473
1634,A,77959710289262,-2.919754,-11.352509,-0.5673218,2.7221985,-1.3634033,0.49562073
1634,A,77959760643266,-3.2495575,-12.666229,-1.8759918,2.5282288,-1.1272125,0.9479065
1634,A,77959810997270,-3.169632,-13.062836,-0.37591553,1.9553833,-1.1591492,1.118927
1634,A,77959861351274,-2.9929047,-11.975998,1.382019,1.6564636,-1.5056915,1.0068512
1634,A,77959911705278,-1.1326141,-12.217346,0.41734314,1.0590515,-1.8616028,0.44029236
1634,A,77959962059282,0.2737732,-13.628586,-1.4258423,0.11242676,-1.2434845,0.08251953
1634,A,77960012413285,-0.07583618,-10.432114,-0.93330383,-0.9317169,-0.16088867,0.19984436
1634,A,77960062767289,-0.1728363,-7.194275,-0.41236877,-1.4013062,0.2541809,0.40841675
1634,A,77960113121293,1.2784119,-4.817856,-1.0134125,-0.5476227,0.0974884,0.2768402
1634,A,77960163475297,1.0045624,-4.1986237,-0.025283813,-0.19993591,-0.12602234,0.076812744
1634,A,77960213829301,-0.029251099,-4.65184,1.8671417,-1.1059875,1.2762146,-0.43751526
1634,A,77960264183305,-0.8706207,-8.612457,7.131729,-0.8690338,2.1739502,-0.52119446
1634,A,77960314537309,-1.0660248,-14.023972,7.398697,-1.1226654,1.2111359,-0.008880615
1634,A,77960364891313,1.256607,-9.789978,3.2806244,-1.5701904,1.4590759,-0.013549805
1634,A,77960415245317,3.1626892,-11.118027,-1.4806976,-0.9213104,1.9204712,-0.36437988
1634,A,77960465599321,0.9768677,-7.0171967,-6.6448975,-0.6079407,1.4105225,-0.30596924
1634,A,77960515953325,-3.8773346,-7.627716,-2.5249176,-0.87338257,0.9472809,-0.39138794
1634,A,77960566307328,-1.4153595,-11.132645,0.27145386,-1.1672058,0.7682648,-0.68252563
1634,A,77960616661332,-0.23272705,-9.4453125,-1.3973236,-0.8331299,0.5901184,-0.5797119
1634,A,77960667015336,-2.0265198,-9.01207,-1.1511841,-0.2040863,0.6237335,-0.41973877
1634,A,77960717369340,-1.4131622,-8.055542,-1.5596161,0.6275177,-0.05026245,-0.12538147
1634,A,77960767723344,-2.1827087,-8.732956,-1.6259613,2.127182,-1.2603455,0.3798828
1634,A,77960818077348,-1.9453735,-10.607193,0.41081238,3.116867,-1.5879059,0.7601166
1634,A,77960868431352,-3.0717926,-11.886566,-0.5897064,2.5677185,-1.2154388,0.9513092
1634,A,77960918785356,-5.1566772,-12.779358,0.7270355,2.1610565,-1.3174438,1.0644073
1634,A,77960969139360,-2.65448,-12.240387,-0.30760193,1.6825104,-1.7965698,0.70970154
1634,A,77961019493364,0.28996277,-13.989853,-0.6885681,0.7062988,-1.8653259,0.25280762
1634,A,77961069847367,1.0204773,-14.637054,-3.1661682,-0.6064453,-0.8061218,0.31092834
1634,A,77961120201371,-0.3653412,-9.504715,-2.0546265,-1.7833557,0.46340942,0.33625793
1634,A,77961170555375,0.13949585,-6.133423,-1.673172,-1.0800171,0.85417175,0.054367065
1634,A,77961220909379,1.0021057,-4.0365143,-1.4034576,-0.12426758,0.23130798,0.12826538
1634,A,77961271263383,0.36854553,-3.9955902,-0.6812744,-0.58847046,1.5809326,-0.41362
1634,A,77961321617387,1.3415833,-5.2378387,2.41333,-0.8039856,1.3093872,-0.6291046
1634,A,77961371971391,-0.13650513,-16.262573,7.1897125,-1.0316315,0.7258148,-0.21205139
1634,A,77961422325395,-0.37850952,-13.319366,6.5535126,-1.007721,0.96199036,0.03652954
1634,A,77961472679399,0.6672516,-12.933105,1.4541931,-0.6428375,0.89001465,-0.7060089
1634,A,77961523033403,-2.4121857,-3.1252747,-4.8724976,-1.1851349,0.57102966,-0.50009155
1634,A,77961573387407,-5.599457,-12.28241,-0.32777405,-1.259079,0.036849976,-0.47595215
1634,A,77961623741410,2.6054382,-7.0288544,-0.8890991,-1.087143,0.3286438,-0.71102905
1634,A,77961674095414,-3.4898834,-10.266296,-1.7301483,-0.6873474,0.3639679,-0.6365051
1634,A,77961724449418,-2.0319214,-9.135941,-2.3625488,-0.025772095,0.1260376,-0.47592163
1634,A,77961774803422,-1.4904938,-7.9355164,-1.0009918,1.1616364,-1.000412,0.027877808
1634,A,77961825157426,-1.197815,-9.921539,-0.70739746,2.618637,-2.8969727,0.56611633
1634,A,77961875511430,-1.6066132,-9.996246,1.1678162,2.2519684,-0.11260986,1.0561676
1634,A,77961925865434,-4.424362,-12.007736,-0.3183136,1.3340607,-1.9131317,1.8658142
1634,A,77961976219438,-5.239197,-11.29744,2.888153,1.417038,-1.5045776,1.3446045
1634,A,77962026573442,-2.775589,-11.625702,-1.3736572,0.9252167,-2.1435394,0.6872711
1634,A,77962076927446,1.6006317,-16.844955,-2.2947693,0.09274292,-1.5540771,0.11456299
1634,A,77962127281450,0.6074219,-11.883118,-0.5882721,-0.7988434,-0.6105194,0.15151978
1634,A,77962177635453,0.24356079,-7.499359,-1.8540802,-1.5575409,0.16680908,0.044296265
1634,A,77962227989457,1.5603943,-4.938202,-2.3141632,-0.16567993,0.6329956,0.4320984
1634,A,77962278343461,0.81773376,-3.5138702,-1.413559,-0.19674683,-0.108062744,0.2874756
1634,A,77962328697465,0.27690125,-3.3722687,1.0660858,-1.2081757,2.8217926,-0.88497925
1634,A,77962379051469,-2.0540466,-11.4756775,5.396576,-0.6424103,0.029327393,-0.81947327
1634,A,77962429405473,-4.5071564,-16.498428,6.754318,-1.1763153,2.0182953,-0.04084778
1634,A,77962479759477,-0.15258789,-8.493683,4.8901215,-1.1454926,1.5191956,0.25460815
1634,A,77962530113481,2.4924011,-19.299576,-0.9251404,-0.5970764,0.8312073,-0.72291565
1634,A,77962580467485,-2.1560822,0.113479614,-5.697983,-1.0249023,1.2092896,-0.25157166
1634,A,77962630821489,-7.5317535,-14.934128,0.8186798,-1.2119141,0.6414795,-0.5246277
1634,A,77962681175492,2.9701233,-5.2747955,-2.226822,-0.95329285,1.0253143,-0.84877014
1634,A,77962731529496,-2.242813,-9.101715,-0.24028015,-0.23338318,0.8911896,-0.64660645
1634,A,77962781883500,-1.1201935,-8.964981,-2.3452148,0.5931244,0.27616882,-0.19715881
1634,A,77962832237504,-0.7957001,-8.462173,-1.3006439,1.9960327,-1.0401764,0.255661
1634,A,77962882591508,-2.618042,-9.601227,0.61976624,3.1165314,-2.0057373,0.9639435
1634,A,77962932945512,-3.6326752,-10.980072,0.72566223,2.1024628,0.6707916,1.2057037
1634,A,77962983299516,-3.6137543,-13.105698,0.16381836,1.8751526,-1.6523285,1.6312408
1634,A,77963033653520,-4.3618927,-11.556,0.91767883,1.401062,-1.682724,0.9523926
1634,A,77963084007524,-0.7584686,-12.243301,-2.2209015,0.412735,-1.5794983,0.5458374
1634,A,77963134361528,0.94963074,-14.917435,-2.4332275,-0.78567505,-0.421875,0.14872742
1634,A,77963184715532,-1.6986694,-9.053009,-0.13079834,-1.6259766,0.020874023,0.037963867
1634,A,77963235069535,-0.23431396,-6.7212067,-1.3123779,-1.5072327,-0.21461487,0.27835083
1634,A,77963285423539,1.2697906,-4.2291565,-1.8295746,-0.043136597,-0.093322754,0.46749878
1634,A,77963335777543,0.55599976,-2.7044067,-0.5514679,-0.13116455,-0.4487915,-0.21592712
1634,A,77963386131547,-0.8617554,-3.8856812,3.0659332,0.25888062,-0.48236084,-0.7489166
1634,A,77963436485551,-5.547409,-13.8511505,10.345627,-1.5409546,1.3636627,-0.2854004
1634,A,77963486839555,-3.3808136,-13.986588,4.2878113,-1.1744843,1.6697083,0.1947174
1634,A,77963537193559,-0.14839172,-10.622345,3.8424683,-0.96043396,1.8253784,-0.7640228
1634,A,77963587547563,-2.41951,-9.695145,0.94029236,-1.1648102,1.3739929,-0.5822296
1634,A,77963637901567,-6.4570923,-12.889435,-4.1208954,-1.4488068,0.79963684,-0.43089294
1634,A,77963688255571,2.6625671,-7.978775,-1.5077362,-1.0781403,0.8913269,-0.698822
1634,A,77963738609575,-0.3712616,-7.842636,-1.6875916,-0.44662476,0.91171265,-0.7358093
1634,A,77963788963578,-3.640213,-8.895325,-2.9701996,0.40460205,0.4375763,-0.4303589
1634,A,77963839317582,-1.173645,-8.171448,-1.1656494,1.6503906,-0.50257874,-0.024291992
1634,A,77963889671586,-0.94548035,-9.732452,0.030670166,2.9253387,-1.0703583,0.4966278
1634,A,77963940025590,-3.7292633,-11.262054,0.7214813,2.531845,-0.76390076,1.1575775
1634,A,77963990379594,-5.408737,-13.059647,0.14782715,1.7490387,-0.8355255,1.3800507
1634,A,77964040733598,-2.9214478,-13.517334,0.91477966,1.6163483,-1.5188904,1.2402191
1634,A,77964091087602,-0.62135315,-13.099289,-0.38856506,0.82333374,-1.7138367,0.9607239
1634,A,77964141441606,-0.6553345,-15.167328,-2.8945618,-0.28103638,-1.3597717,0.5433655
1634,A,77964191795610,-0.6225891,-11.943161,-5.2929077,-1.3314209,-0.47575378,0.23143005
1634,A,77964242149614,-1.0203705,-8.197144,-1.9800568,-1.6201477,-0.06111145,0.1625824
1634,A,77964292503617,-0.34983826,-5.8796844,-1.5773315,-0.7639618,-0.15266418,0.46936035
1634,A,77964342857621,1.0761108,-3.275711,-0.8272095,-0.91300964,0.6939087,0.15315247
1634,A,77964393211625,0.20237732,-3.689392,0.82170105,-0.83018494,0.3990326,-0.4764557
1634,A,77964443565629,-2.1567688,-9.973526,6.9004974,-0.25938416,-0.29768372,-0.4756012
1634,A,77964493919633,-2.607193,-13.311478,9.542007,-1.3454285,1.5267944,-0.027313232
1634,A,77964544273637,0.7496338,-9.446915,0.43756104,-0.90885925,1.3814697,-0.0262146
1634,A,77964594627641,1.440033,-7.132263,-3.4744415,-0.5871582,1.2291412,-0.4365387
1634,A,77964644981645,-1.8173828,-7.3142395,-2.5355377,-0.8494415,1.1023712,-0.37832642
1634,A,77964695335649,-2.3625488,-10.973389,-2.7852173,-0.99479675,0.8045807,-0.51690674
1634,A,77964745689653,0.04585266,-8.700333,-1.2237396,-0.6980438,1.0905609,-0.6807556
1634,A,77964796043657,-1.2362213,-8.753876,-1.3274994,-0.112457275,1.1385345,-0.42562866
1634,A,77964846397660,-2.1559906,-8.464966,-1.9924316,0.84973145,0.29386902,-0.021087646
1634,A,77964896751664,-0.9045563,-9.005447,-0.90737915,2.5573425,-1.1180573,0.3202057
1634,A,77964947105668,-1.7275848,-10.316681,0.36016846,3.2296295,-0.6663971,0.7104645
1634,A,77964997459672,-3.72641,-11.125107,0.78549194,2.585678,-0.93496704,1.2437439
1634,A,77965047813676,-2.5722046,-12.653656,1.4359436,2.1865387,-1.3471069,1.0428162
1634,A,77965098167680,-1.7016296,-13.466141,0.063827515,1.5191498,-1.2346497,0.58174133
1634,A,77965148521684,0.14865112,-14.809341,-1.1323547,0.10910034,-0.90519714,0.12634277
1634,A,77965198875688,0.8049774,-13.483475,-0.9885254,-1.3374634,-0.18644714,-0.004501343
1634,A,77965249229692,-0.01184082,-8.609863,-1.2323761,-2.3022766,0.2340393,0.22671509
1634,A,77965299583696,1.0797272,-4.4318085,-1.9342194,-0.87301636,0.5593567,0.5736084
1634,A,77965349937700,0.5191345,-3.3165588,-1.4529724,-0.15124512,0.379364,0.41053772
1634,A,77965400291703,0.3463745,-3.0591888,0.9102783,-0.007522583,0.5918579,-0.6585388
1634,A,77965450645707,-2.4042816,-9.985962,5.7560577,-0.96266174,0.97158813,-0.9678345
1634,A,77965500999711,-4.3644714,-15.335861,4.5019836,-1.2849121,1.40625,0.2094574
1634,A,77965551353715,0.87924194,-10.693283,-0.08482361,-1.0779419,1.0058289,-0.080581665
1634,A,77965601707719,3.8845367,-9.700378,1.7245789,-0.65049744,0.81347656,-0.66249084
1634,A,77965652061723,-3.3613129,-9.496231,-2.679428,-0.94511414,0.8183441,-0.3789673
1634,A,77965702415727,-4.73172,-9.799866,-0.05937195,-1.0876465,0.4811859,-0.54953
1634,A,77965752769731,1.7336426,-7.5682983,-0.15435791,-0.91474915,0.7159424,-0.7357483
1634,A,77965803097717,-1.4843292,-8.858078,-1.2828217,-0.21975708,0.7720337,-0.67375183
1634,A,77965853451721,-2.57135,-8.787109,-2.048462,0.3269348,-0.5066986,-0.05833435
1634,A,77965903805724,-1.0106506,-9.014633,-0.8394165,1.8805084,-1.2675323,0.23364258
1634,A,77965954159728,-1.4569397,-9.578384,0.44950867,2.9339447,-1.3261414,0.57592773
1634,A,77966004513732,-3.8722382,-11.017685,-0.36637878,2.3034515,-1.3633423,0.9690552
1634,A,77966054867736,-4.190674,-13.921204,0.90940857,2.010666,-1.4675598,1.07341
1634,A,77966105221740,-0.269104,-13.074646,0.8508301,1.4240265,-1.738327,1.011795
1634,A,77966155575744,0.5984955,-13.088058,0.18678284,0.45140076,-1.8668671,0.71647644
1634,A,77966205929748,-0.02418518,-12.815567,-3.5042267,-0.69776917,-0.6097107,0.6461792
1634,A,77966256283752,-1.0997162,-10.065323,-1.5972748,-1.7094116,0.4713745,0.22595215
1634,A,77966306637756,-0.4670105,-6.9402466,-1.6247711,-0.9247589,0.43676758,0.26078796
1634,A,77966356991760,1.0645752,-4.911209,-1.2485352,0.07795715,-0.4313202,0.23924255
1634,A,77966407345764,0.93344116,-3.9187927,0.14299011,-1.0300446,1.9720154,-0.49505615
1634,A,77966457699767,-0.11206055,-5.291641,1.7692871,-0.16705322,-0.07609558,-0.6175537
1634,A,77966508053771,-0.62524414,-15.547119,9.632675,-1.5328674,1.7232971,-0.2457428
1634,A,77966558407775,1.5068359,-9.744522,3.4387054,-1.611557,2.057785,0.33917236
1634,A,77966608761779,1.0147705,-17.619812,-2.4515991,-0.41677856,1.0936584,-0.4384613
1634,A,77966659115783,-0.5523224,0.17990112,-4.7962646,-0.3093109,1.4143677,-0.47550964
1634,A,77966709469787,-8.183441,-14.40506,-2.4425354,-0.8418579,0.24031067,-0.30847168
1634,A,77966759823791,2.164154,-7.891693,-2.9443512,-0.8519745,0.43185425,-0.75045776
1634,A,77966810177795,-1.1950073,-9.891296,0.58055115,-0.55604553,0.48069763,-0.57743835
1634,A,77966860531799,-2.3664093,-9.558044,-2.6747742,0.34365845,0.7095337,-0.6103058
1634,A,77966910885803,-0.8710022,-8.014816,-0.1885376,1.3223572,-0.1828003,-0.18275452
1634,A,77966961239807,-2.0277863,-8.686874,-1.6330566,3.2645416,-2.0240173,0.101119995
1634,A,77967011593810,-2.4725952,-10.986786,0.2629547,3.1444244,-1.1853027,0.8825226
1634,A,77967061947814,-5.2006073,-11.992233,-1.9748535,1.3196259,-1.5068665,1.8258667
1634,A,77967112301818,-2.9984283,-12.3703,1.8347931,1.4599915,-2.079483,1.5311279
1634,A,77967162655822,-2.8895416,-12.17981,-2.1235657,0.91204834,-1.6444397,1.1330109
1634,A,77967213009826,0.24739075,-17.3694,1.0452576,0.28974915,-1.8636017,0.7298584
1634,A,77967263363830,-1.4758911,-13.18866,-3.8728638,-0.7692261,-0.1874237,0.2675171
1634,A,77967313717834,0.2726593,-7.8452606,-1.5399323,-1.6569824,0.11326599,0.025543213
1634,A,77967364071838,0.1081543,-6.9774323,-1.3466034,-1.6920013,0.63972473,0.65708923
1634,A,77967414425842,1.9095001,-3.921402,-0.23979187,-0.6664734,0.40325928,0.44926453
1634,A,77967464779846,1.3428497,-3.441513,0.31648254,-0.9237976,0.9132843,-0.09347534
1634,A,77967515133849,-1.1881256,-5.7106476,1.8205872,-0.12870789,-0.028045654,-0.6400757
1634,A,77967565487853,-2.994751,-11.706299,11.127441,-1.5139313,1.2137299,-0.54545593
1634,A,77967615841857,-5.014572,-13.213287,5.155411,-1.1340637,2.1576233,0.4905243
1634,A,77967666195861,0.94296265,-11.291061,0.46713257,-0.5908661,1.40271,-0.23666382
1634,A,77967716549865,-0.2836609,-12.842468,5.288513,-0.43717957,1.2622375,-0.4345398
1634,A,77967766903869,-4.053009,-9.669891,-4.3533173,-0.88597107,0.6921387,-0.37612915
1634,A,77967817257873,-0.87631226,-8.965317,-1.3074951,-1.0826874,0.6134949,-0.8462677
1634,A,77967867611877,0.53126526,-8.506668,-0.41659546,-0.7519989,0.4296112,-0.83374023
1634,A,77967917965881,-3.6606445,-9.077148,-1.7011108,0.20613098,0.78778076,-0.3622589
1634,A,77967968319885,-2.4372253,-7.6551514,-0.930542,1.3209839,-0.46009827,0.120147705
1634,A,77968018673889,-0.57691956,-8.822586,-1.3928528,3.0271606,-1.5515747,0.41911316
1634,A,77968069027892,-3.7211914,-10.98056,0.23867798,3.050949,-1.6404266,1.0552216
1634,A,77968119381896,-3.032074,-12.27211,-0.6181488,1.7886963,-1.8447876,1.5245514
1634,A,77968169735900,-3.8675537,-14.606354,0.75743103,2.0189514,-1.6165619,0.8257904
1634,A,77968220089904,-1.3864594,-13.976105,1.8804932,1.0941925,-1.9844971,0.4355774
1634,A,77968270443908,-0.95610046,-16.148117,-1.8076172,-0.1365509,-1.5280304,0.09649658
1634,A,77968320797912,0.3007202,-13.993378,-1.8855286,-1.4888153,0.14422607,0.1683197
1634,A,77968371151916,1.2276001,-5.4470367,3.8499298,-1.7440033,0.8698273,0.079559326
1634,A,77968421505920,0.19134521,-4.4684753,-3.4883118,-0.16571045,0.6631317,0.101119995
1634,A,77968471859924,1.5479889,-3.138382,-1.3729248,-0.20721436,0.68692017,-0.09388733
1634,A,77968522213928,0.7108154,-4.5846863,1.371872,-1.0306091,1.8588715,-0.6008911
1634,A,77968572567932,-2.2358398,-10.35228,5.188385,-0.66915894,0.633255,-0.43196106
1634,A,77968622921935,-2.5002594,-15.293259,8.088074,-1.308075,1.4182892,-0.050964355
1634,A,77968673275939,2.2386627,-9.794983,2.9728394,-0.7281189,1.4835052,-0.08786011
1634,A,77968723629943,-1.0422516,-12.314636,-3.1413574,-0.4958191,0.6982727,-0.5045471
1634,A,77968773983947,-3.5327759,-5.856781,-4.4055176,-1.0213013,0.6259155,-0.3589325
1634,A,77968824337951,-2.69812,-11.171738,0.23545837,-1.3112946,0.46540833,-0.61035156
1634,A,77968874691955,-0.74980164,-8.24353,-1.0643463,-1.097168,0.60375977,-0.7715454
1634,A,77968925045959,-1.5786133,-8.637772,-1.583374,-0.35430908,0.5632782,-0.53448486
1634,A,77968975399963,-1.5017548,-8.228546,-1.2163696,0.59680176,-0.13343811,-0.1083374
1634,A,77969025753967,-1.4402924,-8.599411,-0.87031555,2.036316,-1.4864349,0.37687683
1634,A,77969076107971,-1.5799408,-10.0863495,0.4860382,3.0189972,-1.1444092,0.7036133
1634,A,77969126461974,-3.2367706,-11.603241,0.73347473,2.4715881,-1.0935211,1.2899323
1634,A,77969176815978,-5.1486816,-12.832382,0.33795166,1.9172974,-1.8092651,1.3230743
1634,A,77969227169982,-2.4589539,-12.008667,0.78544617,1.4216156,-1.8622742,0.7370453
1634,A,77969277523986,0.3787079,-13.773605,-0.5074463,0.30233765,-1.7812653,0.30781555
1634,A,77969327877990,0.43484497,-14.514374,0.25767517,-0.9568176,-0.6481476,0.26837158
1634,A,77969378231994,-0.5062561,-9.618698,-0.8231964,-1.6811981,0.6261749,0.36636353
1634,A,77969428585998,0.90174866,-5.018051,-2.490219,-1.156601,0.59817505,0.1441803
1634,A,77969478940002,1.6975098,-3.3300629,-2.4003448,-0.37347412,0.19554138,-0.14175415
1634,A,77969529294006,0.20976257,-3.2355347,1.7543945,0.29312134,0.16970825,-0.31680298
1634,A,77969579648010,-0.4810028,-6.3282013,6.847046,-0.3735962,0.54577637,-0.4032898
1634,A,77969630002014,-0.81721497,-14.290268,7.92128,-1.3548584,1.234436,0.22427368
1634,A,77969680356017,0.022979736,-14.875671,4.4082336,-1.321701,1.8493958,-0.08753967
1634,A,77969730710021,0.7507324,-7.5389404,1.0673523,-1.2844238,1.9129944,-0.44078064
1634,A,77969781064025,-5.5718536,-9.126083,-3.7757874,-1.1414795,1.5544586,-0.31582642
1634,A,77969831418029,-2.0880127,-9.862335,-3.4849548,-1.0325928,1.0003662,-0.43447876
1634,A,77969881772033,0.92007446,-7.9736176,-1.6608276,-0.84625244,0.9077606,-0.661438
1634,A,77969932126037,-1.295227,-8.498138,-2.9578094,-0.29727173,0.76348877,-0.5196991
1634,A,77969982480041,-1.8700714,-9.141556,-2.1638336,0.3952484,0.4524994,-0.24584961
1634,A,77970032834045,-2.243866,-9.42276,-0.6358795,1.6001892,-0.5036926,-0.12013245
1634,A,77970083188049,-2.7930145,-9.8294525,0.35050964,2.8783112,-1.7134094,0.3359375
1634,A,77970133542053,-3.2032623,-10.097031,0.118133545,2.6080933,-0.1784668,0.82250977
1634,A,77970183896057,-2.8162537,-12.858353,0.1278534,2.06633,-1.2559967,1.4060211
1634,A,77970234250060,-3.289734,-12.179047,1.0262909,1.7038574,-1.8848114,1.3424072
1634,A,77970284604064,-1.7686768,-12.206451,-0.05847168,0.8401947,-1.9666901,1.0405731
1634,A,77970334958068,0.7569275,-13.96756,-3.8802948,-0.32911682,-1.4148407,0.649765
1634,A,77970385312072,-1.3875732,-11.097092,-1.3557434,-1.4020844,-0.3863678,0.095199585
1634,A,77970435666076,-1.5263214,-8.2421875,-0.9262543,-1.8392487,-0.24119568,0.14854431
1634,A,77970486020080,0.60110474,-5.484833,-1.6313934,-0.74513245,0.0030975342,0.419281
1634,A,77970536374084,1.2840729,-3.6902313,-0.81314087,-0.60235596,0.55007935,-0.06414795
1634,A,77970586728088,1.1664734,-3.1493988,0.89701843,-0.34339905,-0.6370392,-0.5752106
1634,A,77970637082092,-4.059662,-10.044952,7.3092804,-1.1904907,0.16513062,-0.39035034
1634,A,77970687436096,-2.3095856,-14.34169,4.357437,-1.2597046,0.9593811,0.11062622
1634,A,77970737790099,-0.65774536,-13.805817,-0.6966095,-0.6622772,0.6496277,-0.49189758
1634,A,77970788144103,0.08073425,-2.8370209,-1.0106964,-0.980896,0.4829712,-0.3112793
1634,A,77970838498107,-5.3523865,-11.869766,-3.0847626,-1.2377167,0.5439911,-0.269104
1634,A,77970888852111,2.063507,-8.800995,-1.9190979,-1.086853,0.50878906,-0.51634216
1634,A,77970939206115,-2.1666718,-9.811005,-1.7449188,-0.8687897,0.7830658,-0.618454
1634,A,77970989560119,-1.5997467,-9.315857,-1.9645844,-0.08918762,0.776886,-0.37783813
1634,A,77971039914123,-1.0631561,-7.8706665,-2.1061096,0.74861145,0.008026123,0.065338135
1634,A,77971090268127,-0.49464417,-8.706207,-0.78582764,2.4597473,-1.0926971,0.38793945
1634,A,77971140622131,-3.2767792,-9.927078,-0.1351471,3.1912537,-0.62008667,0.79689026
1634,A,77971190976135,-3.7019043,-11.814377,0.2421112,1.9945679,-1.0524597,1.3135071
1634,A,77971241330139,-2.7074585,-14.030029,0.98446655,1.9836884,-1.3289642,0.8983154
1634,A,77971291684142,-0.5982971,-13.158768,1.2591248,1.4500275,-1.3472595,0.5794525
1634,A,77971342038146,-0.6465454,-15.249878,0.80311584,0.30499268,-1.4249725,0.093429565
1634,A,77971392392150,0.33636475,-14.154205,-6.2812347,-0.98812866,0.019332886,0.28915405
1634,A,77971442746154,-0.875,-8.865829,-1.1947021,-1.9665375,1.0922852,0.41886902
1634,A,77971493100158,0.049545288,-6.417038,-1.9427643,-0.76182556,0.29058838,0.4507141
1634,A,77971543454162,0.70254517,-3.556137,-1.5180664,0.2114563,-0.87750244,0.25491333
1634,A,77971593808166,0.42132568,-3.2293396,0.08343506,-0.63394165,1.5164185,-0.66186523
1634,A,77971644162170,0.571167,-5.650299,3.1316376,-1.2280884,1.8748322,-0.69599915
1634,A,77971694516174,-7.2438965,-19.0074,11.6658325,-1.3350525,1.0977631,0.23516846
1634,A,77971744870178,-0.42384338,-10.579529,7.0269012,-0.91690063,1.2350922,-0.5591278
1634,A,77971795224182,0.17623901,-18.33635,2.315796,-0.34869385,1.2875214,-0.5635681
1634,A,77971845578185,-0.7248993,1.7718506,-11.12645,-0.98327637,0.5887909,-0.19264221
1634,A,77971895932189,-7.2659607,-14.358871,-0.06506348,-1.1353455,0.45170593,-0.4146881
1634,A,77971946286193,4.0218353,-7.875366,0.20327759,-1.0054779,0.5815582,-0.85798645
1634,A,77971996640197,-6.0646515,-9.881836,-2.6323242,-0.45567322,0.5421295,-0.5627594
1634,A,77972046994201,-1.8644714,-9.019455,-1.6872864,0.4711151,0.29112244,-0.1211853
1634,A,77972097348205,-0.27197266,-8.12561,-1.0158691,1.7890472,-1.2427521,0.3439331
1634,A,77972147702209,-2.56633,-9.692001,-0.97662354,3.2219086,-1.8948975,0.7383728
1634,A,77972198056213,-2.5702362,-10.860733,0.9753113,2.380661,0.26460266,1.0935516
1634,A,77972248410217,-4.7225494,-14.398132,-1.3433075,2.1541138,-2.0296478,0.90463257
1634,A,77972298764221,-4.4988556,-12.712402,1.056961,1.6192627,-1.2745209,0.41989136
1634,A,77972349118224,-1.9815369,-12.840363,-1.9980164,0.50349426,-1.3945007,0.08505249
1634,A,77972399472228,1.8334198,-14.898758,-3.5325775,-0.8017731,-0.2545929,-0.05152893
1634,A,77972449826232,-1.9490356,-8.677963,1.0639191,-1.504364,0.5840759,0.35040283
1634,A,77972500180236,1.6413879,-5.707123,0.23825073,-1.109314,0.42478943,0.3905487
1634,A,77972550534240,1.4159851,-3.473877,-1.9358673,0.3095703,-0.20153809,0.3461914
1634,A,77972600888244,0.15332031,-4.5814056,0.478714,-0.13734436,0.37210083,-0.06814575
1634,A,77972651242248,-0.1742096,-6.712921,5.3866425,-0.10592651,0.39294434,-0.67341614
1634,A,77972701596252,-2.5417328,-13.834412,10.42363,-1.672699,1.0465698,-0.38131714
1634,A,77972751950256,-1.4036865,-10.97699,5.2084656,-1.5526733,1.506134,0.03300476
1634,A,77972802304260,0.50450134,-9.139069,1.4801636,-1.1942139,1.5822449,-0.7206726
1634,A,77972852658264,-1.3020477,-9.73056,-0.3230896,-1.2326355,1.1526337,-0.38734436
1634,A,77972903012267,-5.8766937,-10.770996,-2.937378,-1.2326508,0.84703064,-0.28826904
1634,A,77972953366271,1.2033539,-8.261963,-0.56539917,-0.9445343,0.5444641,-0.56088257
1634,A,77973003720275,-2.1410675,-8.741989,-1.3098297,-0.6103668,0.6284332,-0.71191406
1634,A,77973054074279,-2.777298,-8.759705,-2.3460693,-0.047714233,0.48143005,-0.48703003
1634,A,77973104428283,-1.070694,-8.651947,-0.79629517,0.6439972,0.1375885,-0.24458313
1634,A,77973154782287,-1.4833221,-9.42244,-0.25276184,2.1303558,-1.167038,0.12261963
1634,A,77973205136291,-2.7019653,-10.128311,-0.7983246,2.8582458,-1.6271362,0.73895264
1634,A,77973255490295,-3.3323517,-11.339935,0.24723816,2.2546387,-0.6639557,1.2631531
1634,A,77973305844299,-1.9780121,-11.7956085,1.6528168,1.9906006,-2.3155975,1.434555
1634,A,77973356198303,-3.3809814,-12.457657,-0.18341064,1.5730438,-1.9797668,0.8820648
1634,A,77973406552307,-2.3722687,-13.730896,-2.5135956,0.4693451,-1.6108856,0.6109772
1634,A,77973456906310,0.25125122,-13.790421,-1.6986084,-0.6183624,-0.51802063,0.15174866
1634,A,77973507260314,-0.55345154,-8.9917145,-0.73950195,-1.6461334,0.30989075,0.059951782
1634,A,77973557614318,-0.50956726,-6.38002,-1.8923492,-1.251831,0.7771301,0.379364
1634,A,77973607968322,1.3000183,-3.892624,-1.8621979,-0.008895874,0.5259552,0.59365845
1634,A,77973658322326,1.6454926,-2.9177094,0.057861328,0.05039978,-0.14466858,-0.27809143
1634,A,77973708676330,-0.52212524,-6.3172607,3.0370636,-0.51304626,0.71751404,-0.8876648
1634,A,77973759030334,-4.25589,-13.289825,6.0355835,-1.5003967,1.7350006,-0.06919861
1634,A,77973809384338,-3.767212,-13.152069,4.8800354,-1.3703003,1.9199066,-0.015960693
1634,A,77973859738342,0.60879517,-14.088074,2.469635,-1.250351,2.098236,-0.65164185
1634,A,77973910092346,-2.1864777,-14.849442,-1.097702,-1.1999817,1.5865936,-0.5374298
1634,A,77973960446349,-3.3385925,-9.166183,-3.3712463,-1.1946106,0.99879456,-0.51283264
1634,A,77974010800353,1.586441,-8.007599,-0.98687744,-0.86595154,0.7398224,-0.6430359
1634,A,77974061154357,-0.40394592,-7.9543915,-1.896759,-0.13208008,0.8383179,-0.5369415
1634,A,77974111508361,-3.0441132,-8.746902,-1.3684082,0.6999054,0.30389404,-0.21760559
1634,A,77974161862365,-2.821701,-9.234619,-0.28671265,2.1268616,-0.7081604,0.08375549
1634,A,77974212216369,-1.6381836,-10.554428,0.11782837,3.2136688,-1.32547,0.5249634
1634,A,77974262570373,-2.9440002,-11.53508,-0.631073,2.6486053,-0.84680176,0.94747925
1634,A,77974312924377,-4.897415,-13.108994,-0.57836914,1.9302979,-0.66101074,1.0587463
1634,A,77974363278381,-1.835556,-12.6489105,-0.2523651,1.5132904,-1.1688843,0.8143616
1634,A,77974413632385,-0.4429779,-14.063675,-0.46505737,0.6321869,-1.4114227,0.3907013
1634,A,77974463986389,-0.41682434,-15.518738,-3.1779022,-0.56170654,-0.5269928,0.24040222
1634,A,77974514340392,0.1741333,-10.247894,-2.6211853,-1.5061951,0.30718994,0.29815674
1634,A,77974564694396,-0.7093506,-6.314377,-1.6872559,-1.2177582,0.5459442,0.5180359
1634,A,77974615048400,0.5477905,-4.3167877,-1.4657898,-0.24058533,-0.09945679,0.53678894
1634,A,77974665402404,0.8846283,-3.7181396,-0.4088745,-0.6786957,0.51130676,0.0632782
1634,A,77974715756408,-0.55293274,-5.521057,1.5825348,-0.078933716,0.14251709,-0.54125977
1634,A,77974766110412,-3.176468,-13.3615265,7.8271027,-0.89115906,0.35638428,-0.7697754
1634,A,77974816464416,-1.4720154,-10.849045,7.0324554,-1.1386414,1.881897,0.13005066
1634,A,77974866818420,0.22157288,-8.0299835,0.32167053,-0.79267883,1.5610657,0.056655884
1634,A,77974917172424,0.06225586,-13.118942,2.3154755,-0.5161438,1.4619598,-0.41789246
1634,A,77974967526428,-0.2770996,-10.350632,-1.4612427,-0.83203125,1.0158691,-0.47024536
1634,A,77975017880432,-3.5578156,-10.329575,-0.560318,-1.2827759,0.64923096,-0.64419556
1634,A,77975068234435,0.6446686,-8.728088,-0.9128876,-1.0462189,0.43273926,-0.8660736
1634,A,77975118588439,-0.33831787,-9.043121,-1.268158,-0.21577454,0.5240936,-0.6025696
1634,A,77975168942443,-2.9634552,-8.104721,-1.9233398,0.7478943,0.13757324,-0.36802673
1634,A,77975219296447,-2.0492096,-8.286087,-1.0470886,2.39888,-1.086029,-0.047805786
1634,A,77975269650451,-3.6884918,-9.975327,-0.15696716,3.2297058,-1.7314758,0.66807556
1634,A,77975320004455,-3.036438,-11.696121,-0.12957764,2.234192,-0.53279114,1.0655823
1634,A,77975370358459,-3.922226,-13.820969,0.15492249,2.0912933,-1.1785583,1.0210419
1634,A,77975420712463,-3.3686829,-12.664352,-0.36961365,1.5200348,-1.5097351,1.0485992
1634,A,77975471066467,-0.46565247,-13.658447,0.6212616,0.5176544,-1.6318054,0.61912537
1634,A,77975521420471,0.5525055,-15.284592,-6.4484863,-0.8343506,-0.61058044,0.44628906
1634,A,77975571774474,-0.9069977,-10.413269,-1.9341888,-1.7834167,0.20539856,0.04724121
1634,A,77975622128478,-1.090805,-7.6843414,-1.1735992,-1.7051392,0.050491333,0.35391235
1634,A,77975672482482,1.3407135,-3.4389343,-1.318985,-0.4058075,0.09207153,0.47711182
1634,A,77975722836486,0.5086212,-2.9038086,0.0040283203,-0.73521423,0.63952637,0.064468384
1634,A,77975773190490,0.81333923,-4.725464,0.45326233,-0.4015808,0.082214355,-0.19662476
1634,A,77975823553986,-4.3478394,-13.3476715,8.550735,-1.169342,-0.4126892,-1.1098328
1634,A,77975873907990,-1.7772369,-11.351517,5.705414,-1.1536407,2.3723297,-0.20391846
1634,A,77975924261994,-1.5438538,-9.568039,2.6015167,-1.066452,0.7844696,-0.17236328
1634,A,77975974615998,-1.5245514,-13.364273,3.667923,-0.69026184,0.8297119,-0.48472595
1634,A,77976024970002,3.0806427,-8.618729,-4.8404236,-0.92337036,0.723114,-0.48207092
1634,A,77976075324006,-5.136383,-11.864365,-0.5691223,-1.0606079,0.6114502,-0.67733765
1634,A,77976125678009,1.6869965,-8.270676,-3.1361542,-0.70913696,0.7752075,-0.63656616
1634,A,77976176032013,-1.2859802,-9.445953,-0.10803223,0.2175293,0.5704193,-0.34095764
1634,A,77976226386017,-1.2597046,-6.79097,-2.389801,1.3734436,-0.7598877,0.2370758
1634,A,77976276740021,-1.0977325,-9.365036,-0.44587708,3.2298126,-2.3219452,0.47346497
1634,A,77976327094025,-2.398758,-9.551865,1.1572418,2.9694366,0.2973175,0.73924255
1634,A,77976377448029,-5.86644,-12.39711,-0.15969849,1.9048004,-2.3059845,1.7522736
1634,A,77976427802033,-1.9134521,-13.243011,2.5485382,1.7811737,-1.8522339,0.92755127
1634,A,77976478156037,-1.7984161,-13.932297,-1.4188995,0.7832184,-2.1576843,0.6902771
1634,A,77976528510041,0.6191864,-16.74121,-1.167099,-0.26531982,-1.3074951,0.4299469
1634,A,77976578864045,-1.0197906,-10.47876,-0.3075409,-1.518219,-0.19592285,0.4650421
1634,A,77976629218049,-1.2765808,-6.7955475,-1.5370178,-1.8948975,0.61128235,-0.005218506
1634,A,77976679572052,1.5798492,-4.728058,-2.3932343,-0.41351318,0.5019684,0.2690277
1634,A,77976729926056,1.050354,-3.6897736,-1.5690308,0.047912598,-0.020767212,0.12609863
1634,A,77976780280060,1.3874359,-2.99115,1.2052612,-0.77552795,2.5013733,-0.43551636
1634,A,77976830634064,-0.5195923,-10.214645,3.6997528,-0.68922424,1.8210602,-0.67497253
1634,A,77976880988068,-5.1764374,-18.655106,8.599274,-0.5623474,1.9178925,-0.22488403
1634,A,77976931342072,-0.90586853,-11.703125,3.4696655,-0.8965149,1.7091522,0.023254395
1634,A,77976981696076,0.70129395,-17.138763,-2.0453033,-0.67041016,1.130249,-0.74676514
1634,A,77977032050080,1.485672,-1.6807861,-6.9658356,-0.9197998,1.3295135,-0.6457062
1634,A,77977082404084,-8.684738,-16.801437,-0.022109985,-1.2076416,0.62893677,-0.7735443
1634,A,77977132758088,1.9635162,-6.2397614,-1.7617645,-1.0176392,0.50154114,-0.9785919
1634,A,77977183112091,-2.6754913,-9.065262,-0.22062683,-0.16577148,0.047607422,-0.6618042
1634,A,77977233466095,-2.1604767,-8.115021,-2.97081,0.82395935,-1.0648499,-0.058380127
1634,A,77977283820099,-3.253708,-8.338776,0.18562317,2.2484436,-2.0478058,0.6220703
1634,A,77977334174103,-2.925583,-8.648865,1.4077301,2.8064728,-1.1580658,1.1275787
1634,A,77977384528107,-4.673172,-11.045395,1.8780212,2.0183868,-0.7273102,1.3167572
1634,A,77977434882111,-5.9226074,-14.076492,0.58244324,1.9918518,-1.6766357,1.1019745
1634,A,77977485236115,-1.3747711,-13.2052765,1.4563751,1.2453308,-2.0681,0.8395233
1634,A,77977535590119,2.4278412,-16.075226,-0.6835022,-0.011779785,-1.4865417,0.51379395
1634,A,77977585944123,1.0271912,-13.6749115,-5.0229034,-1.3112183,-0.43240356,0.35725403
1634,A,77977636298127,-0.9936981,-8.209946,-1.9446259,-1.8106384,0.2519989,0.02053833
1634,A,77977686652131,0.23529053,-6.1810303,-1.4730988,-0.90737915,0.40507507,0.30677795
1634,A,77977737006134,1.2165222,-3.4851227,-0.8717804,-0.36895752,0.86112976,0.21160889
1634,A,77977787360138,0.64112854,-3.2236176,0.6636505,-0.52360535,1.0991058,-0.22619629
1634,A,77977837714142,0.49957275,-8.339523,3.4485016,-0.06376648,0.29771423,-0.34272766
1634,A,77977888068146,-1.6401825,-14.419937,8.550339,-1.4672852,2.301117,-0.34646606
1634,A,77977938422150,0.00642395,-11.5507965,0.8498535,-0.8517761,2.0142517,0.20932007
1634,A,77977988776154,1.1639099,-10.451508,-3.366211,-0.34222412,1.2955322,-0.3563385
1634,A,77978039130158,-0.49961853,-5.8381042,-1.4322357,-0.5647125,1.2068939,-0.32824707
1634,A,77978089484162,-3.974411,-12.453079,-3.2761688,-0.891098,0.71691895,-0.5264282
1634,A,77978139838166,-0.8182678,-8.025375,0.097213745,-0.7939911,0.79512024,-0.74786377
1634,A,77978190192170,-1.4954071,-8.899246,-0.4880371,-0.26924133,1.0792236,-0.64219666
1634,A,77978240546174,-1.8396301,-8.695892,-2.076477,0.5839691,0.861084,-0.33972168
1634,A,77978290900177,-1.6659088,-8.568985,-1.2181854,1.7647552,-0.7480011,0.050964355
1634,A,77978341254181,-1.2394104,-9.594437,-0.6186371,2.9135132,-1.5674438,0.5563812
1634,A,77978391608185,-2.0875702,-11.083649,0.46824646,2.5487213,-1.1818542,1.1823883
1634,A,77978441962189,-4.101959,-12.965942,0.45948792,1.7246857,-1.3609772,1.2142181
1634,A,77978492316193,-4.0619354,-12.989746,1.1557617,1.558548,-1.7465057,0.82884216
1634,A,77978542670197,-1.050415,-12.961884,1.3772736,0.85972595,-2.0145264,0.4737091
1634,A,77978593024201,-0.25871277,-14.738785,-0.7819824,-0.13754272,-1.2919464,0.114349365
1634,A,77978643378205,0.09089661,-11.377396,-1.3969574,-1.3124695,0.053207397,0.13653564
1634,A,77978693732209,0.31950378,-6.9545593,0.3513031,-1.7098541,0.8345947,0.46336365
1634,A,77978744086213,1.262207,-4.969208,-1.5256195,-0.6279907,0.61320496,0.58506775
1634,A,77978794440216,1.6053314,-3.718216,-0.6537323,-0.23135376,0.59555054,0.021102905
1634,A,77978844794220,0.5941925,-4.4170227,1.2794342,0.013366699,0.76216125,-0.56178284
1634,A,77978895148224,-1.0209045,-9.85936,7.751343,-0.45959473,1.2861938,-0.60990906
1634,A,77978945502228,-0.9523926,-13.892883,6.8371735,-1.2568359,1.8201141,0.051361084
1634,A,77978995856232,0.91922,-12.123688,-0.38560486,-1.0458527,1.4028625,-0.12890625
1634,A,77979046210236,1.3200226,-7.745865,-1.6761017,-0.7247009,1.2511902,-0.67092896
1634,A,77979096564240,-2.9423676,-8.268936,-2.1085205,-0.88571167,0.9985199,-0.53286743
1634,A,77979146918244,-3.8903046,-10.314133,-1.6966248,-1.215332,0.6081848,-0.58299255
1634,A,77979197272248,0.25552368,-8.867111,-0.15301514,-0.94892883,0.6282959,-0.7865753
1634,A,77979247626252,-0.67526245,-9.309769,-0.89868164,-0.2155304,0.6886749,-0.67411804
1634,A,77979297980256,-3.038498,-9.086121,-1.6313629,0.49446106,-0.33816528,-0.25901794
1634,A,77979348334259,-2.100708,-9.084976,-0.70739746,1.7440491,-1.6052856,0.24389648
1634,A,77979398688263,-1.3674316,-9.965881,0.6050415,2.8152313,-1.5199585,0.79039
1634,A,77979449042267,-4.233719,-10.89032,-0.19195557,2.3907013,-0.9523926,1.2053833
1634,A,77979499396271,-5.4003906,-13.581253,0.107177734,2.0086975,-1.4487305,1.1408081
1634,A,77979549750275,-1.5675354,-13.336868,0.050216675,1.6117401,-2.1574554,0.8510437
1634,A,77979600104279,0.37194824,-14.173721,-0.06262207,0.7176361,-2.1384277,0.43806458
1634,A,77979650458283,0.6346283,-14.854553,-3.0156708,-0.57566833,-1.0101929,0.51911926
1634,A,77979700812287,-0.695343,-10.321075,-3.2221832,-1.7654724,0.25534058,0.31443787
1634,A,77979751166291,-0.015106201,-6.690567,-2.227951,-1.4237823,0.5315094,0.25035095
1634,A,77979801520295,1.5634155,-4.3889008,-1.6505127,-0.18475342,0.40150452,0.43185425
1634,A,77979851874299,0.7863159,-3.6654205,-0.27345276,-0.77493286,1.2033234,0.16998291
1634,A,77979902228302,0.91763306,-5.1599274,1.4704132,0.23320007,0.20150757,-0.3473053
1634,A,77979952582306,-0.39990234,-14.132996,7.968582,-1.1447906,1.2661743,-0.64915466
1634,A,77980002936310,0.25532532,-11.1523285,5.477356,-1.5325012,2.3870392,0.30293274
1634,A,77980053290314,-0.18386841,-8.628128,-1.9311829,-0.85787964,1.27034,-0.112091064
1634,A,77980103644318,0.38755798,-8.720764,1.0323792,-0.5338745,1.2566986,-0.478302
1634,A,77980153998322,-1.271698,-9.650757,-3.3407593,-0.91204834,0.89367676,-0.41036987
1634,A,77980204352326,-2.7365723,-8.818207,-1.3242798,-0.9582062,0.87620544,-0.66197205
1634,A,77980254706330,0.61912537,-8.038971,-0.014556885,-0.41540527,0.7381134,-0.6979828
1634,A,77980305060334,-1.9751434,-9.1137085,-1.7156677,0.26663208,0.48588562,-0.49415588
1634,A,77980355414338,-2.0759277,-8.205429,-1.9471893,1.070755,-1.0877075,-3.3569336E-4
1634,A,77980405768341,-1.7847443,-9.771179,-0.13024902,2.6554108,-2.3645935,0.37171936
1634,A,77980456122345,-3.0347748,-10.738266,1.0424652,2.6561127,-1.1348114,0.7239227
1634,A,77980506476349,-5.7488556,-11.906097,-0.9458771,2.0160828,-2.4230042,1.2346191
1634,A,77980556830353,-4.7418213,-11.9348755,1.9858093,1.9508057,-1.8807068,0.9634094
1634,A,77980607184357,-1.3685608,-12.141388,-1.4457703,1.23732,-1.7269287,0.75354004
1634,A,77980657538361,0.846817,-15.780716,-0.92681885,-0.03855896,-1.312561,0.19290161
1634,A,77980707892365,-0.31643677,-13.337875,-0.5822449,-1.3700256,-0.2445221,0.31954956
1634,A,77980758246369,0.4465027,-8.66861,-2.0938568,-2.036438,1.0804749,0.2242279
1634,A,77980808600373,2.2674713,-5.271988,-3.78479,-0.20674133,0.82055664,0.35585022
1634,A,77980858954377,0.749115,-3.4495392,-1.5800934,0.03715515,-0.18777466,0.15151978
1634,A,77980909308381,1.5105591,-2.2589874,1.3671112,-2.0542145,2.8465424,-0.23739624
1634,A,77980959662384,-0.7601013,-10.153595,4.66687,-0.07421875,1.5609894,-0.16506958
1634,A,77981010016388,-4.9805145,-19.05606,6.8455048,-1.2702332,1.4789429,-0.3551941
1634,A,77981060370392,2.5540771,-5.729355,3.17807,-0.9348755,3.1628113,0.22592163
1634,A,77981110724396,-1.7328339,-17.518967,-4.6349487,-0.2099762,0.919693,-0.4259796
1634,A,77981161078400,-1.3635101,-0.57214355,-10.581772,-0.5241394,2.06604,-0.3602295
1634,A,77981211432404,-3.1757507,-11.301254,-0.70880127,-0.94247437,0.84339905,-0.6244812
1634,A,77981261786408,-2.4617004,-8.911316,-4.606598,-0.85354614,0.84306335,-0.89907837
1634,A,77981312140412,-1.0723419,-8.025085,-0.7939453,-0.23654175,0.7472687,-0.60079956
1634,A,77981362494416,-1.9936829,-8.412109,-2.5917664,0.73583984,0.16496277,-0.3670349
1634,A,77981412848420,-1.5577698,-8.797058,-1.0433044,1.7667084,-2.026886,0.5137329
1634,A,77981463202424,-2.825409,-9.067429,0.34443665,3.227768,-1.4032593,0.5242615
1634,A,77981513556427,-2.9904175,-10.225876,1.7765503,2.2406769,-0.16033936,1.0723877
1634,A,77981563910431,-7.834549,-12.378113,-1.6421661,2.074768,-2.4865417,1.325119
1634,A,77981614264435,-2.4812622,-13.891113,2.1885376,1.5782318,-2.3201294,0.7819519
1634,A,77981664618439,0.014129639,-14.268692,-2.1980286,0.4743042,-1.9420319,0.5979767
1634,A,77981714972443,0.6109009,-14.757492,-6.642273,-0.90267944,-0.8127899,0.37347412
1634,A,77981765326447,-1.396347,-7.9703674,-0.60324097,-1.7826996,0.35368347,0.025421143
1634,A,77981815680451,0.03527832,-7.4019012,-1.8809967,-1.348526,0.513443,0.05781555
1634,A,77981866034455,1.4187317,-3.5231323,-2.8126373,0.14814758,0.73347473,0.17144775
1634,A,77981916388459,0.8569031,-2.8983765,-1.121521,-0.6242523,0.75645447,-0.15750122
1634,A,77981966742463,1.2520142,-5.172821,2.6917572,-0.9680939,2.5091248,-0.23475647
1634,A,77982017096466,-0.27244568,-13.757553,8.297867,-1.1583557,1.7447205,-0.62112427
1634,A,77982067450470,-1.6597595,-12.39212,5.539215,-0.9840088,1.9970856,0.056533813
1634,A,77982117804474,-0.83883667,-11.139206,2.1553955,-0.9516144,1.7183075,-0.15226746
1634,A,77982168158478,1.4360962,-14.732452,-0.896286,-0.6445923,0.8108978,-0.6013794
1634,A,77982218512482,-1.0174713,-5.6923523,-6.024994,-0.8527527,0.79034424,-0.46905518
1634,A,77982268866486,-6.431198,-12.265961,0.8085327,-0.9631195,0.4994812,-0.72361755
1634,A,77982319220490,-0.49047852,-8.034912,-3.3743744,-0.7089844,0.5114746,-0.7138519
1634,A,77982369574494,-1.4291077,-8.953766,-1.091217,0.10675049,0.5301819,-0.5540924
1634,A,77982419928498,-1.4815063,-8.3526,-1.5370178,0.7587433,-0.39968872,-0.35713196
1634,A,77982470282502,-2.101593,-8.912735,-0.77752686,1.9883728,-1.9824677,0.030593872
1634,A,77982520636506,-2.8446198,-10.166672,0.8926697,3.0671844,-1.9608307,0.473526
1634,A,77982570990509,-2.5813293,-11.094589,1.2093811,2.4945374,-0.911438,1.2636414
1634,A,77982621344513,-4.835373,-12.089401,0.82847595,1.8794861,-2.6048431,1.7390594
1634,A,77982671698517,-3.380005,-12.325577,1.258728,1.3959198,-2.3312988,1.3012848
1634,A,77982722052521,-0.87008667,-13.286621,-2.4606628,0.44282532,-2.1950073,0.8538513
1634,A,77982772406525,-0.49365234,-13.577332,-2.433319,-0.6933594,-1.1987762,0.3804016
1634,A,77982822760529,-2.226532,-10.15123,-0.96891785,-1.5226135,0.21195984,0.13523865
1634,A,77982873114533,0.1280365,-7.473175,-2.3738708,-1.2880707,0.90701294,0.2883911
1634,A,77982923468537,1.8780365,-4.699768,-2.2204895,-0.2585144,0.7334595,0.52067566
1634,A,77982973822541,1.8543091,-3.528534,-0.22335815,-0.5975647,1.0978394,-0.06712341
1634,A,77983024176545,1.2210083,-5.492279,2.3464813,-1.0599823,2.0894623,-0.8347626
1634,A,77983074530549,-2.6352386,-12.70253,5.4563446,-0.65330505,1.4241333,-0.5543976
1634,A,77983124884552,-4.023529,-14.22348,5.8272247,-1.0387268,1.6017303,0.024276733
1634,A,77983175238556,0.6958771,-12.047028,2.4239807,-0.87867737,1.3478088,-0.19407654
1634,A,77983225592560,1.4977722,-10.077591,-3.9010162,-0.5683899,1.01857,-0.5615082
1634,A,77983275946564,-3.14151,-4.7897797,-5.8819733,-0.8256836,0.9001465,-0.4852295
1634,A,77983326300568,-4.1961975,-12.132767,-1.008316,-1.0214996,0.50198364,-0.6298218
1634,A,77983376654572,0.8322296,-7.757538,-2.117569,-0.84614563,0.47279358,-0.7219696
1634,A,77983427008576,-1.6464081,-9.227539,-1.4875336,-0.20106506,0.5670471,-0.5954895
1634,A,77983477362580,-2.131607,-8.410919,-1.640564,0.6634064,-0.05619812,-0.26387024
1634,A,77983527716584,-1.9632721,-8.588547,-0.9847717,1.9855347,-1.5032196,0.21160889
1634,A,77983578070588,-1.8199005,-10.154434,0.3057251,3.0025024,-1.7551727,0.7234802
1634,A,77983628424591,-3.4096985,-11.084015,0.5020752,2.3883972,-1.6120148,1.3316193
1634,A,77983678778595,-4.639801,-12.532883,0.97457886,1.9072418,-1.8322601,1.2984772
1634,A,77983729132599,-3.402649,-12.814423,-0.22444153,1.6303253,-2.2039185,0.7944946
1634,A,77983779486603,-0.24304199,-14.7211,-0.010574341,0.7006073,-2.2995605,0.38375854
1634,A,77983829840607,0.8623657,-15.283752,0.050720215,-0.5256653,-1.0195923,0.33613586
1634,A,77983880194611,-0.06855774,-10.10817,-2.0372925,-1.7926178,0.3430481,0.28527832
1634,A,77983930548615,0.064712524,-6.6154327,-2.477951,-1.702713,0.84329224,0.2348175
1634,A,77983980902619,1.1248627,-5.1316223,-2.2555847,-0.25724792,0.3260498,0.33665466
1634,A,77984031256623,1.5899658,-3.8272247,-0.45317078,-0.5226898,0.9649658,-0.25914
1634,A,77984081610627,0.20649719,-4.9123535,2.0019684,-0.54422,1.2625275,-0.6246948
1634,A,77984131964631,-1.9252625,-13.794312,8.413864,-0.95251465,1.0656128,-0.369339
1634,A,77984182318634,0.14328003,-14.628464,7.7264404,-1.2458344,1.6069489,0.085372925
1634,A,77984232672638,0.11213684,-14.817261,0.64479065,-0.7503967,1.4396667,-0.3116455
1634,A,77984283026642,-0.6823883,-5.386566,-3.3503876,-0.719223,1.125061,-0.46354675
1634,A,77984333380646,-4.8748627,-8.62355,-1.9883728,-1.0164337,0.63316345,-0.44366455
1634,A,77984383734650,0.6806793,-8.548157,-1.8656616,-1.1876678,0.48797607,-0.7116089
1634,A,77984434088654,0.29512024,-8.171982,-1.8065948,-0.9884491,0.5674896,-0.7831726
1634,A,77984484442658,-1.9758453,-9.9232025,-2.1169434,-0.23110962,0.56684875,-0.60261536
1634,A,77984534796662,-1.9522095,-8.758026,-1.5867157,0.5011444,-0.2593689,-0.22529602
1634,A,77984585150666,-1.4062347,-9.069,-1.164032,1.8177795,-1.3837128,0.19213867
1634,A,77984635504670,-1.6127319,-9.609222,0.28460693,2.7256317,-1.5447693,0.73223877
1634,A,77984685858674,-3.9187317,-10.521393,-0.43984985,2.2656403,-0.7825165,1.1291809
1634,A,77984736212677,-4.383209,-12.840836,0.76786804,2.1017456,-1.3617859,1.1181641
1634,A,77984786566681,-3.082306,-12.364883,0.11375427,1.7045746,-2.0802612,1.0057068
1634,A,77984836920685,0.09951782,-14.218063,0.5283661,0.6775665,-2.1184998,0.65722656
1634,A,77984887274689,1.9789124,-14.827026,-3.73909,-0.48439026,-0.76838684,0.50227356
1634,A,77984937628693,-1.2778168,-10.438873,-1.4711151,-1.5289764,0.4126892,0.16648865
1634,A,77984987982697,-0.12800598,-7.644104,-3.0042725,-1.3798676,0.12817383,0.30500793
1634,A,77985038336701,1.3508606,-4.339813,-2.3927307,0.11140442,0.05621338,0.4782257
1634,A,77985088690705,1.0636139,-2.982483,-0.78692627,-0.58317566,0.99946594,-0.080093384
1634,A,77985139044709,0.80389404,-4.297241,1.5454102,7.171631E-4,0.30992126,-0.37968445
1634,A,77985189398713,-1.7783203,-14.240082,10.935104,-1.4691772,1.4402924,-0.6852875
1634,A,77985239752716,0.11782837,-10.496429,6.914551,-1.3746643,1.6090393,0.4597473
1634,A,77985290106720,-0.025512695,-16.329346,-2.3304596,-0.363739,1.4792175,-0.32411194
1634,A,77985340460724,3.2133026,-0.71598816,-5.5232697,-0.37431335,1.3357544,-0.3103943
1634,A,77985390814728,-8.156845,-13.642929,-2.1543274,-0.76342773,0.9350586,-0.21377563
1634,A,77985441168732,2.0134735,-6.3427124,-2.0525665,-0.93273926,0.84288025,-0.7484741
1634,A,77985491522736,-0.9810791,-8.735153,-0.7555084,-0.87986755,0.62086487,-0.75923157
1634,A,77985541876740,-2.125946,-9.749207,-3.0960846,-0.010269165,0.87213135,-0.53666687
1634,A,77985592230744,-0.67549133,-7.733078,-0.8391266,0.5883026,0.17207336,-0.29328918
1634,A,77985642584748,-1.4178162,-7.8600464,-2.1466827,1.8389282,-1.6604614,0.21884155
1634,A,77985692938752,-2.834549,-10.335373,0.8849182,3.1470642,-1.8456268,0.60154724
1634,A,77985743292756,-3.7306824,-11.145905,0.59910583,2.0124817,-0.09669495,0.93196106
1634,A,77985793646759,-6.1475525,-13.862061,-0.1894226,1.744339,-1.886734,1.400528
1634,A,77985843985633,-3.2907715,-12.045914,3.2416077,1.3090668,-1.6159973,1.0701447
1634,A,77985894339637,-0.11682129,-13.698639,-1.1082001,0.72346497,-2.0682678,0.6027374
1634,A,77985944693641,0.60835266,-13.920532,-3.4566803,-0.2098999,-0.9845581,0.22465515
1634,A,77985995047645,-1.8737793,-9.124344,0.05444336,-1.2636719,0.3683319,0.4036255
1634,A,77986045401649,0.32957458,-7.851013,-2.5532227,-1.8712158,1.0757294,0.2543335
1634,A,77986095755653,2.1100311,-4.6106567,-2.0569763,-0.21098328,0.8395386,0.29743958
1634,A,77986146109657,0.44172668,-4.2157593,-0.28108215,-0.09803772,-0.3978119,-0.009857178
1634,A,77986196463661,1.2576141,-3.8627472,1.5251923,-1.2937012,2.2668,-0.2318573
1634,A,77986246817665,-2.8826904,-10.918503,6.554352,-0.7362976,0.8991394,-0.57598877
1634,A,77986297171669,-4.696869,-17.471893,8.454956,-1.3769073,2.2810364,-0.018859863
1634,A,77986347525672,0.53471375,-10.673325,4.2392883,-1.1521912,2.0891724,-0.03677368
1634,A,77986397879676,0.9230652,-16.11261,1.1240692,-0.42286682,1.4781494,-0.62705994
1634,A,77986448233680,-0.5880585,-1.9521942,-8.784439,-0.68203735,1.410202,-0.3161316
1634,A,77986498587684,-3.370453,-12.260254,0.25756836,-0.89479065,0.8457184,-0.59313965
1634,A,77986548941688,3.1446075,-7.305542,-2.1337738,-0.9200134,0.8601532,-0.8192444
1634,A,77986599295692,-1.9000549,-8.626816,-1.7475891,-0.28746033,0.77523804,-0.64590454
1634,A,77986649649696,-1.8713074,-8.974289,-1.7999573,0.4618225,0.40408325,-0.46609497
1634,A,77986700003700,-1.4968872,-8.013214,-0.6761017,1.442627,-1.2467041,0.06706238
1634,A,77986750357704,-2.7579498,-9.956696,-0.41271973,2.9884644,-1.7427826,0.40699768
1634,A,77986800711708,-2.5169373,-11.192886,1.210968,2.541092,-0.8144684,1.1142883
1634,A,77986851065711,-5.186096,-12.303772,-1.0838165,1.8374634,-1.9608612,1.3876648
1634,A,77986901419715,-3.4201508,-12.68222,2.5491028,1.8659058,-1.769989,0.8293152
1634,A,77986951773719,-2.236023,-13.299591,-0.6187439,1.0297089,-1.9728088,0.531662
1634,A,77987002127723,0.46813965,-15.683029,-0.48083496,-0.16200256,-1.4000397,0.16957092
1634,A,77987052481727,-0.0017089844,-11.560837,-2.2638855,-1.3535614,0.118515015,0.23147583
1634,A,77987102835731,0.50393677,-7.2176514,-2.4983826,-1.7008209,0.85295105,0.19700623
1634,A,77987153189735,1.0755005,-5.4459686,-2.400772,-0.39404297,0.20474243,0.36332703
1634,A,77987203543739,1.0769958,-4.083084,-0.85531616,-0.17797852,0.58781433,0.16242981
1634,A,77987253897743,0.14535522,-3.5059204,0.69125366,-0.8639679,1.7116089,-0.7489929
1634,A,77987304251747,-2.0005035,-10.500168,4.457901,-0.51168823,0.46995544,-0.5917816
1634,A,77987354605751,-2.1027832,-16.918869,8.602509,-1.4056702,1.7473145,0.12182617
1634,A,77987404959754,2.3575134,-11.913864,3.4171295,-1.166214,1.6291199,0.04371643
1634,A,77987455313758,0.5339813,-12.613953,-2.632843,-0.66781616,0.9628906,-0.72843933
1634,A,77987505667762,-3.817398,-4.5806427,-4.3143463,-0.9357605,1.0584106,-0.47340393
1634,A,77987556021766,-4.107788,-12.169052,0.23049927,-1.1822968,0.6698303,-0.4281311
1634,A,77987606375770,0.8152771,-7.3739777,-1.8131409,-0.9264221,0.7209625,-0.69177246
1634,A,77987656729774,-1.0706482,-8.839767,-1.0786133,-0.34599304,0.6804962,-0.6616516
1634,A,77987707083778,-3.0279999,-8.855484,-1.57164,0.5209503,0.2828369,-0.3712616
1634,A,77987757437782,-1.6403046,-8.459747,-0.6161194,1.7486877,-1.1855621,0.016052246
1634,A,77987807791786,-1.3896942,-9.685425,-0.20794678,2.9544373,-1.6504822,0.55119324
1634,A,77987858145790,-3.359146,-10.907684,0.22795105,2.6245728,-1.0427094,1.2280273
1634,A,77987908499794,-4.079529,-13.0271,0.020874023,1.834259,-1.3247986,1.367096
1634,A,77987958853797,-2.4904022,-13.345139,0.35902405,1.6320648,-1.8121185,1.0147705
1634,A,77988009207801,-0.58154297,-13.945221,-0.044189453,0.8990326,-2.0329132,0.6549988
1634,A,77988059561805,-0.12957764,-15.447144,-1.9855652,-0.23921204,-1.2958832,0.39100647
1634,A,77988109915809,-0.3854828,-11.715775,-3.49469,-1.4769135,-0.16339111,0.34516907
1634,A,77988160269813,-0.19844055,-6.7658386,-1.325058,-1.7961426,0.37805176,0.3665619
1634,A,77988210623817,1.122055,-5.139572,-1.7474213,-0.76272583,0.2786255,0.48060608
1634,A,77988260977821,1.1083069,-3.4921875,-0.6651001,-0.5115967,0.794754,0.13861084
1634,A,77988311331825,0.1521759,-3.8372192,0.7546997,-0.2505951,0.7342682,-0.4747467
1634,A,77988361685829,-0.7340851,-10.660721,7.0486755,-0.43130493,0.5422516,-0.5843048
1634,A,77988412039833,-0.066589355,-15.321075,8.61084,-1.0949249,1.5683289,0.11166382
1634,A,77988462393836,0.37791443,-13.020813,0.14660645,-0.702301,1.4732208,0.06889343
1634,A,77988512747840,1.1134949,-6.5855713,-4.0507355,-0.50216675,1.1470795,-0.4850769
1634,A,77988563101844,-2.8074036,-7.8425446,-1.9717865,-0.876297,1.0110168,-0.45515442
1634,A,77988613455848,-3.7835083,-11.2582245,-0.79626465,-1.2622375,0.666626,-0.55119324
1634,A,77988663809852,0.25559998,-8.109665,-0.7006836,-1.1302948,0.55036926,-0.73583984
1634,A,77988714163856,-1.0192871,-9.222076,-0.5805664,-0.4064026,0.75439453,-0.6357727
1634,A,77988764517860,-2.545288,-8.807037,-1.2451019,0.5076599,0.12158203,-0.39682007
1634,A,77988814871864,-1.5540009,-7.9622345,-1.2303772,1.9689178,-1.2435608,0.01977539
1634,A,77988865225868,-1.3508759,-9.539017,-0.13563538,3.164917,-1.652008,0.60665894
1634,A,77988915579872,-3.4713135,-11.62999,0.14338684,2.481903,-0.7283325,1.1902313
1634,A,77988965933876,-5.6523285,-14.294815,0.56155396,1.8217163,-1.0585785,1.3525848
1634,A,77989016287879,-2.265335,-12.756226,0.9028015,1.4972534,-1.9595947,1.0053864
1634,A,77989066641883,-0.16914368,-14.505936,0.41209412,0.72943115,-2.2688293,0.39117432
1634,A,77989116995887,-0.09550476,-15.665604,-4.3660583,-0.37187195,-1.0715027,0.3841095
1634,A,77989167349891,-1.0391388,-9.684799,-2.4942017,-1.58107,0.32373047,0.43359375
1634,A,77989217703895,-0.3720398,-6.087448,-1.6424866,-1.93573,0.852829,0.4066925
1634,A,77989268057899,1.4312439,-4.1396484,-1.5607605,-0.5145569,0.7338104,0.44854736
1634,A,77989318411903,1.1226349,-4.321762,-0.41864014,-0.61683655,1.0505829,0.08409119
1634,A,77989368765907,0.8371124,-4.9479675,1.9410553,0.08087158,0.48239136,-0.53126526
1634,A,77989419119911,0.18708801,-12.1536255,7.432617,-0.77482605,1.0892181,-0.61891174
1634,A,77989469473915,-1.444397,-14.688705,6.8743744,-1.2987213,1.6322327,0.39752197
1634,A,77989519827919,0.49780273,-10.765564,-1.8244781,-0.9147339,1.1376343,-0.3343048
1634,A,77989570181922,2.2143707,-4.5111847,-3.562561,-0.61499023,1.4480743,-0.66664124
1634,A,77989620535926,-5.244919,-10.268158,-2.0227814,-1.1144257,0.7975006,-0.5353241
1634,A,77989670889930,-2.4265594,-9.166534,-2.6827545,-1.387207,0.63552856,-0.73350525
1634,A,77989721243934,0.6299896,-8.662048,-1.098587,-0.89593506,0.5819092,-0.7364044
1634,A,77989771597938,-2.0149536,-9.485062,-2.4857788,0.046203613,0.78460693,-0.53504944
1634,A,77989821951942,-2.8248596,-8.267197,-1.8228302,0.79470825,-0.20748901,-0.35836792
1634,A,77989872305946,-1.5900574,-8.692657,-0.95469666,2.2876434,-1.4412079,0.10676575
1634,A,77989922659950,-2.090973,-10.613647,1.2574158,3.1948853,-1.9416809,0.84124756
1634,A,77989973013954,-4.274643,-11.656189,-0.5582123,2.1594543,-0.5558624,1.1672974
1634,A,77990023367958,-5.623657,-13.628265,-0.017242432,1.8882446,-1.2621918,1.410675
1634,A,77990073721961,-1.0894623,-12.246109,-0.48905945,1.4870148,-1.9319,1.0930786
1634,A,77990124075965,-0.004562378,-15.105103,-0.69200134,0.6688385,-2.2554321,0.5915375
1634,A,77990174429969,0.60469055,-14.46666,-3.4560394,-0.40979004,-0.9581909,0.38612366
1634,A,77990224783973,-0.8238678,-8.510864,-1.2094116,-1.621582,-0.15498352,0.23405457
1634,A,77990275137977,-0.9687195,-7.0175476,-1.633255,-2.080124,0.6261444,0.46440125
1634,A,77990325491981,1.552948,-4.858246,-0.6773987,-0.42573547,0.73657227,0.49110413
1634,A,77990375845985,0.96617126,-3.5209198,-1.1321869,-0.45037842,0.5544281,0.124053955
1634,A,77990426199989,0.70402527,-3.8245087,1.5873413,0.26705933,1.2153015,-0.5763092
1634,A,77990476553993,-0.9892273,-12.763687,9.626877,-1.0847626,0.6937561,-0.8146057
1634,A,77990526907997,-3.8474884,-15.340073,4.9381714,-0.97595215,1.6994324,0.40663147
1634,A,77990577262001,-0.9322052,-8.313034,0.94744873,-0.9694061,1.1653442,-0.15557861
1634,A,77990627616004,3.4636078,-14.313553,5.0455933,-0.48521423,0.8655548,-0.7984314
1634,A,77990677970008,-4.124359,-7.182724,-4.5716553,-1.1105652,0.8278351,-0.32382202
1634,A,77990728324012,-4.6502075,-11.24791,1.704422,-1.2293396,0.55851746,-0.58673096
1634,A,77990778678016,2.3141632,-6.780426,-1.295929,-0.92614746,0.6269226,-0.7561798
1634,A,77990829032020,-2.164688,-9.834305,-1.423996,0.071884155,0.7134247,-0.5573425
1634,A,77990879386024,-2.3090668,-8.520813,-1.9820557,0.82618713,-0.4449005,-0.24075317
1634,A,77990929740028,-1.4253235,-8.574295,-0.44073486,2.3783722,-1.5211182,0.2703247
1634,A,77990980094032,-2.1542664,-9.779358,0.9053955,3.3241882,-1.9105682,0.82107544
1634,A,77991030448036,-3.9291534,-11.102692,0.9835663,2.017334,0.18504333,1.1142273
1634,A,77991080802040,-5.636673,-13.624329,0.37539673,1.8391876,-1.5559082,1.2400513
1634,A,77991131156044,-0.66999817,-12.212509,2.0697174,1.4493561,-1.8734894,0.64430237
1634,A,77991181510047,0.8949127,-14.568253,-0.014343262,0.38204956,-1.8319397,0.30891418
1634,A,77991231864051,0.5239258,-13.615448,-4.14386,-0.8026123,-0.4646454,0.32841492
1634,A,77991282218055,-1.6013641,-7.0252533,-0.10649109,-1.8194275,0.73194885,0.4059906
1634,A,77991332572059,0.14086914,-5.9809265,-1.5705414,-1.8494873,0.8262787,0.2788086
1634,A,77991382926063,2.2927094,-3.8110504,-1.4119415,-0.036254883,0.70051575,0.36143494
1634,A,77991433280067,-0.34934998,-5.050888,0.3815918,-0.30641174,0.7049713,-0.05493164
1634,A,77991483634071,1.5832825,-4.865082,3.1163025,-0.35961914,1.537857,-0.5381317
1634,A,77991533988075,-1.417923,-13.754471,8.580887,-1.3751068,0.7039337,-0.57177734
1634,A,77991584342079,-2.5610657,-13.369553,5.3400116,-1.1209564,2.2318115,0.15885925
1634,A,77991634696083,0.037200928,-8.440979,0.2851715,-0.8604126,1.4898376,-0.2838745
1634,A,77991685050086,0.7079468,-16.64148,3.274704,-0.44267273,1.0587311,-0.5356598
1634,A,77991735404090,-3.1190338,-6.3661957,-5.5170746,-0.81259155,1.1339111,-0.36309814
1634,A,77991785758094,-3.420456,-11.231888,0.22479248,-0.8767395,0.63237,-0.6466675
1634,A,77991836112098,0.6730194,-8.104416,-2.3237915,-0.7991333,0.60653687,-0.70773315
1634,A,77991886466102,-2.5715637,-9.371063,-0.46173096,-0.16445923,0.6040497,-0.58984375
1634,A,77991936820106,-1.9709473,-8.304504,-1.7582245,0.50297546,0.062561035,-0.36105347
1634,A,77991987174110,-1.8250732,-8.578857,-0.7194824,1.4857788,-1.5247955,0.0861969
1634,A,77992037528114,-1.8769379,-9.777756,-0.6769104,2.8157501,-1.7265167,0.40023804
1634,A,77992087882118,-2.6101837,-10.689926,0.8105469,2.571991,-1.0754395,0.8982544
1634,A,77992138236122,-5.3099365,-12.3471985,-0.8290405,1.8631134,-2.0394897,1.1195831
1634,A,77992188590126,-2.9910278,-13.065262,0.7992096,1.5592804,-1.7304382,0.8165741
1634,A,77992238944129,0.099487305,-13.63533,-1.0089722,0.80192566,-1.8425751,0.6166382
1634,A,77992289298133,-0.040405273,-13.7686615,-0.73876953,-0.17080688,-1.2643127,0.37690735
1634,A,77992339652137,-0.41687012,-10.571365,-1.5274048,-1.2203217,-0.04576111,0.39648438
1634,A,77992390006141,0.22413635,-7.67984,-1.6024628,-1.4999084,0.5663147,0.27505493
1634,A,77992440360145,0.52700806,-6.030121,-1.4431763,-0.54190063,0.21376038,0.40802002
1634,A,77992490714149,0.85002136,-4.160965,-0.17047119,-0.3599701,0.6069336,0.17253113
1634,A,77992541068153,0.4774933,-4.4010468,0.93096924,-0.55874634,1.1877441,-0.46221924
1634,A,77992591422157,-0.84425354,-10.370178,5.254776,-0.16879272,0.5827942,-0.5545349
1634,A,77992641776161,-1.2848053,-14.4326935,8.441528,-1.1024017,1.8527832,0.015792847
1634,A,77992692130165,0.563324,-11.821564,1.7849579,-0.93237305,1.377243,0.08622742
1634,A,77992742484169,0.67308044,-9.613251,-3.6121826,-0.6365509,1.2947083,-0.67041016
1634,A,77992792838172,-2.198944,-5.1799774,-3.1901855,-0.7766113,1.0527802,-0.6378937
1634,A,77992843192176,-3.7023315,-10.761795,-2.6304474,-1.1889954,0.56640625,-0.64686584
1634,A,77992893546180,0.51272583,-7.682083,-2.8135529,-1.0531769,0.56796265,-0.77796936
1634,A,77992943900184,-0.36445618,-8.8246765,-1.1239166,-0.3475647,0.47821045,-0.6790161
1634,A,77992994254188,-2.7480621,-8.420197,-2.3643036,0.44535828,-0.031967163,-0.34571838
1634,A,77993044608192,-2.2490997,-8.636993,-1.0459595,1.7174225,-1.0782623,0.088272095
1634,A,77993094962196,-1.5183716,-9.473846,0.20927429,2.967987,-1.3212433,0.64852905
1634,A,77993145316200,-3.8818817,-11.046158,0.4614563,2.5618134,-0.7114258,1.127533
1634,A,77993195670204,-4.5714417,-12.614746,0.5744934,1.7885437,-0.86499023,1.2606964
1634,A,77993246024208,-1.7829132,-12.732727,0.3931427,1.4421082,-1.6537323,1.103302
1634,A,77993296378211,0.9651642,-14.114624,0.019927979,0.62835693,-1.8687286,0.78378296
1634,A,77993346732215,0.24299622,-15.616455,-2.2851105,-0.4140625,-1.0977783,0.5924225
1634,A,77993397086219,-0.78256226,-10.854645,-3.2961273,-1.3855591,-0.15177917,0.40827942
1634,A,77993447440223,0.12805176,-7.1725464,-1.1359406,-1.4580841,0.15086365,0.4396515
1634,A,77993497794227,0.88591003,-5.2397003,-1.1747437,-0.4487152,0.07406616,0.54992676
1634,A,77993548148231,1.0462646,-3.5639496,-0.38110352,-0.6085205,0.59916687,0.14501953
1634,A,77993598502235,0.34176636,-4.6160126,1.0088654,0.19793701,0.35261536,-0.5423889
