Subject-Id,Activity Label,Time stamp,Accel_x,Accel_y,Accel_z,Gyro_x,Gyro_y,Gyro_z
1632,A,5567963679578,2.02536,-12.446396,-1.1313324,-1.0626373,0.3182068,0.09994507
1632,A,5568014033582,1.9328156,-7.327591,3.7455597,-1.0502319,0.9764099,-0.5066986
1632,A,5568064387586,0.2275238,-7.51326,0.97592163,-1.1137085,0.78819275,-0.99572754
1632,A,5568114741589,2.0081635,-8.029877,2.6543884,-0.62239075,0.5157471,-0.5164795
1632,A,5568165095593,1.6750946,-9.00386,0.07762146,1.0453949,-0.030273438,0.050079346
1632,A,5568215449597,-0.2379303,-10.87381,0.75180054,3.0608978,-0.3580475,0.797348
1632,A,5568265803601,-2.2425842,-13.291183,2.5655212,3.2947235,0.8971405,1.4740448
1632,A,5568316157605,-0.5074463,-14.016876,4.7299347,2.1285858,2.3982086,1.0293121
1632,A,5568366511609,-0.6358185,-15.066956,3.669403,1.5325165,-0.7732849,0.84568787
1632,A,5568416865613,3.106598,-14.980576,-1.1117859,1.2341461,-1.8238983,1.1974487
1632,A,5568467219617,5.810425,-14.335663,-0.9795532,1.0578156,-1.4052582,1.5089874
1632,A,5568517573621,3.3090515,-7.573654,-0.13853455,-0.13391113,-1.0223083,0.848114
1632,A,5568567927625,0.57092285,-4.4426727,-0.7279358,-1.2432251,-1.1052246,0.07899475
1632,A,5568618281629,3.2073364,-2.816208,-1.9358978,-0.5878601,-1.4964142,0.31777954
1632,A,5568668635632,3.5455475,-1.5272675,-0.438797,0.7283478,-1.2452545,0.9492645
1632,A,5568718989636,-0.8664093,-6.472412,6.7422333,0.6940613,1.1947784,0.30511475
1632,A,5568769343640,-3.8622894,-15.111298,11.681854,-0.52012634,3.0624847,-0.5951996
1632,A,5568819697644,-0.3969574,-10.345001,4.410309,-2.0442047,1.3257751,-1.1077881
1632,A,5568870051648,6.845886,-9.180695,-4.2405853,-2.6411743,1.4467316,-1.3526001
1632,A,5568920405652,9.549057,-12.185684,-7.5920258,-2.6752014,1.0404816,-1.140976
1632,A,5568970759656,3.971817,-10.064606,-4.8350525,-2.0792236,0.544754,-0.7514496
1632,A,5569021113660,0.14915466,-12.097595,-2.4381714,-1.503479,1.1181793,-0.64160156
1632,A,5569071467664,0.50382996,-8.246933,-0.2989502,-1.083786,0.9992676,-0.9536438
1632,A,5569121821668,0.32435608,-8.123001,2.2045288,-0.8053436,1.0447693,-1.1018677
1632,A,5569172175671,0.30363464,-8.525009,0.7333374,-0.44203186,0.73280334,-0.60339355
1632,A,5569222529675,2.1203766,-9.316666,-0.25178528,0.49783325,0.844162,0.23199463
1632,A,5569272883679,0.078948975,-11.125061,0.2788086,2.0641327,1.7115631,1.305893
1632,A,5569323237683,-1.1832733,-12.676895,1.9028015,2.0062866,1.3661194,1.9489136
1632,A,5569373591687,-0.36488342,-13.67128,4.9404907,1.4527893,0.15306091,1.5036163
1632,A,5569423945691,2.7659454,-13.784897,4.0963287,1.2095184,-0.50878906,1.385788
1632,A,5569474299695,5.2420654,-13.489761,1.8333588,0.70596313,-0.8909302,1.3091888
1632,A,5569524653699,3.8619537,-12.422928,-0.005142212,0.30407715,-1.009491,0.8321533
1632,A,5569575007703,2.5778656,-8.254013,-1.45401,-0.02381897,-1.151062,0.13192749
1632,A,5569625361707,2.1991425,-4.268585,-1.7640839,-0.32409668,-1.0923615,-0.4854889
1632,A,5569675715711,2.5486908,-2.6150513,-1.98349,-0.11706543,-0.36299133,0.12922668
1632,A,5569726069714,2.3585205,-3.9070435,-0.79071045,0.02960205,-0.27459717,0.5490265
1632,A,5569776423718,-2.9715881,-9.529556,4.9447784,0.5725403,0.7900543,0.5265808
1632,A,5569826777722,-4.0813293,-16.449814,7.7008057,-0.3140869,0.28337097,-0.21765137
1632,A,5569877131726,0.6735077,-11.653442,5.446808,-1.2326508,-0.457016,-0.8444061
1632,A,5569927485730,6.8060303,-11.865494,-5.658722,-1.6118774,-0.19815063,-0.8607025
1632,A,5569977839734,5.677368,-8.331604,-9.115601,-1.8402863,-0.3330536,-0.44914246
1632,A,5570028193738,1.5591736,-10.581497,-4.096115,-1.65094,0.18922424,-0.29992676
1632,A,5570078547742,0.49427795,-9.07196,-0.7342682,-1.0537109,0.27915955,-0.43173218
1632,A,5570128901746,0.56625366,-6.3812714,-0.037902832,-0.83877563,0.2049408,-0.57839966
1632,A,5570179255750,0.78219604,-7.645706,1.6530762,-0.8515167,0.3607788,-0.8210449
1632,A,5570229609754,0.27981567,-9.372513,1.2227173,-0.36091614,0.61805725,-0.58461
1632,A,5570279963757,1.8668518,-9.033157,0.26356506,0.41911316,0.72639465,0.001449585
1632,A,5570330317761,0.51776123,-10.402725,-0.6753235,2.1906586,0.19096375,1.1864777
1632,A,5570380671765,-2.6992035,-11.949539,-0.49612427,2.8901367,0.5995178,1.9884338
1632,A,5570431025769,-2.7159119,-14.317581,3.3130646,2.0059967,2.032898,1.4216461
1632,A,5570481379773,-0.510025,-13.950241,4.598877,1.3266602,0.47833252,0.6555481
1632,A,5570531733777,1.3318481,-14.245285,-1.6731873,1.1789856,-0.7945404,0.89378357
1632,A,5570582087781,1.7962036,-14.521286,1.7359314,0.8717041,-1.045578,1.4383087
1632,A,5570632441785,1.3718262,-9.948502,-2.948349,0.036483765,-0.83177185,1.0826263
1632,A,5570682795789,1.179718,-6.311844,-1.331665,-1.0520782,-0.77763367,0.020492554
1632,A,5570733149793,2.3424377,-3.5114288,-1.0502319,-0.82884216,-0.7446594,-0.6194763
1632,A,5570783503796,2.624054,-1.807312,-1.0021362,0.9370575,-2.3381805,0.7265625
1632,A,5570833857800,-0.41018677,-3.969452,2.4668121,-0.21220398,-1.1720886,0.59710693
1632,A,5570884211804,-9.123306,-15.566635,12.014175,-0.34869385,0.38378906,-0.5789032
1632,A,5570934565808,-4.230789,-12.007278,9.084595,-0.8333435,1.6110535,-0.8022003
1632,A,5570984919812,6.521118,-7.21492,-2.6553955,-1.6656647,0.46594238,-1.2790222
1632,A,5571035273816,0.9108429,-8.990784,-8.477798,-3.2552643,-1.1767578,-0.92276
1632,A,5571085627820,1.7349854,-7.071518,-4.9663696,-2.152176,1.3360138,-0.98942566
1632,A,5571135981824,1.2017517,-12.106277,-6.294815,-1.0513458,0.43962097,-0.27287292
1632,A,5571186335828,-1.1260834,-8.262024,-0.26715088,-0.7658081,0.61499023,-0.48034668
1632,A,5571236689832,-2.915863,-9.899673,0.9709778,-0.76678467,0.55371094,-0.8982239
1632,A,5571287043836,-0.8055725,-8.733765,-0.44856262,-0.40657043,0.94114685,-0.61546326
1632,A,5571337397839,1.9138489,-9.092865,0.78089905,0.060699463,0.8900604,-0.009536743
1632,A,5571387751843,0.42266846,-10.387985,-0.2728119,2.1705017,1.2381592,0.63261414
1632,A,5571438105847,-2.8615265,-11.662506,0.869339,2.8759918,-0.07862854,2.3591614
1632,A,5571488459851,-0.969574,-12.6371155,4.134903,1.9391632,2.416809,3.029602
1632,A,5571538813855,-1.1030884,-12.8042145,2.5176086,1.4603424,1.396286,1.3089447
1632,A,5571589167859,-1.662674,-12.71376,-2.3577423,0.9645386,-1.378418,1.1267853
1632,A,5571639521863,3.828598,-18.29216,0.4239502,0.7417755,-1.6495209,1.5355225
1632,A,5571689875867,3.7938538,-11.3450165,-1.9852905,0.09199524,-1.2312012,1.0606842
1632,A,5571740229871,-0.5541382,-5.784485,0.10379028,-0.97940063,-0.7083435,0.060516357
1632,A,5571790583875,1.6821136,-4.1810913,-2.0841522,-0.90782166,-0.6622467,-0.5764618
1632,A,5571840937879,3.6468964,-1.9211731,-1.4949188,0.46650696,-2.0431519,0.8772583
1632,A,5571891291882,0.82910156,-2.8977814,1.1815186,0.13156128,-0.7424011,0.6362915
1632,A,5571941645886,-11.296753,-13.697311,11.962143,0.6071472,0.5536804,-0.21774292
1632,A,5571991999890,-4.799759,-16.782684,7.4019165,-0.6749878,1.3691406,-1.1348877
1632,A,5572042353894,2.5771942,-5.898651,-0.9300995,-1.6997681,-0.049545288,-1.9998474
1632,A,5572092707898,4.221298,-10.659149,-7.271286,-4.103073,-2.0741272,-1.3819427
1632,A,5572143061902,3.8202362,-4.4244385,-4.2966614,-1.400711,0.19010925,-1.0523376
1632,A,5572193415906,2.0622406,-14.674301,-6.465042,-1.3715515,0.025497437,0.17652893
1632,A,5572243769910,-3.0041656,-8.741699,5.9247284,-0.8454895,0.16581726,-0.37060547
1632,A,5572294123914,-4.912094,-9.100815,0.65071106,-0.8289032,0.39482117,-1.1090393
1632,A,5572344477918,-1.8864594,-7.4244995,-0.04399109,-0.15678406,1.3043518,-0.93891907
1632,A,5572394831921,1.1889954,-9.578964,0.3274231,0.054763794,0.57398987,0.14666748
1632,A,5572445185925,1.7046204,-10.349167,2.3696747,1.9803314,0.37469482,0.980011
1632,A,5572495539929,-5.2951508,-10.851715,-0.8220215,2.9139404,0.16133118,2.6064453
1632,A,5572545893933,-4.0512695,-14.146866,1.6526642,1.5917816,1.3375244,2.1746216
1632,A,5572596247937,-6.89032,-15.076157,-0.36216736,1.6206055,1.0708466,1.2272339
1632,A,5572646601941,0.9277191,-15.791916,-0.70028687,0.8375702,-1.6266785,0.7264404
1632,A,5572696955945,4.766693,-15.79567,-0.90065,0.55659485,-0.9946594,1.5797119
1632,A,5572747309949,3.7702637,-10.709946,1.3966217,-0.14860535,-1.1379395,1.2216339
1632,A,5572797663953,-1.0007629,-5.7003937,-1.1580048,-1.1437683,-0.51768494,0.049438477
1632,A,5572848017957,0.16242981,-3.4882813,-2.8119812,-1.3147736,-0.6907501,-0.8796692
1632,A,5572898371961,3.6383667,-1.9708405,-2.36586,0.4634552,-1.2645569,1.064682
1632,A,5572948725964,1.032074,-2.7012177,0.53448486,0.4887848,-0.5623474,0.6220856
1632,A,5572999079968,-9.815979,-12.842606,14.151566,1.3387299,2.2352753,0.07572937
1632,A,5573049433972,-7.917343,-16.874573,5.521332,-0.72509766,1.3448334,-1.1978607
1632,A,5573099787976,1.1627655,-3.3073425,-1.6192322,-1.4367981,0.9481201,-2.1146545
1632,A,5573150141980,4.9795837,-18.870789,-9.346954,-3.2951813,-0.43389893,-1.6366425
1632,A,5573200495984,3.9930267,-2.2963867,-3.7017212,-1.5988159,1.3204956,-1.3390961
1632,A,5573250849988,2.7883148,-13.272034,-4.6677094,-0.8482666,0.3915863,-0.029800415
1632,A,5573301203992,-5.7043304,-9.246216,2.8315735,-1.1137085,0.3605652,-0.4061737
1632,A,5573351557996,-3.3305054,-7.804962,3.4118652,-0.717041,0.95643616,-1.3676758
1632,A,5573401912000,-2.736206,-8.887451,-1.5892639,-0.37974548,1.0114441,-0.9964142
1632,A,5573452266004,2.7471924,-7.1513214,1.3103333,-0.06791687,0.3307495,0.25334167
1632,A,5573502620007,-1.0370636,-10.125412,-0.23532104,1.8832703,0.6677704,0.786911
1632,A,5573552974011,-4.905197,-11.571075,1.2673187,3.3788452,0.80833435,2.074829
1632,A,5573603328015,-2.9048767,-12.661835,4.2940216,1.7752533,2.0859528,1.5905609
1632,A,5573653682019,-5.169388,-15.954544,5.4266357,1.832901,0.26237488,1.1341858
1632,A,5573704036023,0.57424927,-15.874664,1.5168304,1.1125641,-1.4315491,0.65626526
1632,A,5573754390027,5.9398193,-17.483826,-1.1716614,0.8656006,-1.8025208,1.3284912
1632,A,5573804744031,3.5381622,-9.33934,2.3577118,0.11198425,-1.1379547,1.1470032
1632,A,5573855098035,0.53105164,-6.1159363,-2.3288727,-0.98135376,-0.21902466,-0.19236755
1632,A,5573905452039,2.7271118,-2.9665375,0.29760742,-1.2822876,-1.1215057,-0.70098877
1632,A,5573955806043,3.0237885,-1.4372864,-1.6466675,0.8534851,-0.9157257,1.2357025
1632,A,5574006160046,0.33518982,-3.425827,0.38401794,0.99198914,-0.54174805,1.0227814
1632,A,5574056514050,-7.511093,-12.536438,10.692017,1.4562988,1.66539,0.046432495
1632,A,5574106868054,-8.13353,-16.762482,5.777252,-1.0665131,1.0996704,-1.2977295
1632,A,5574157222058,2.8455353,-3.8601837,1.4367828,-2.322754,0.5588074,-2.4969177
1632,A,5574207576062,5.988037,-13.203476,-4.4323425,-3.0318604,-1.3649292,-1.9784851
1632,A,5574257930066,4.60231,-3.7429504,-3.9056091,-1.2185669,-0.09370422,-0.7420502
1632,A,5574308284070,1.9391937,-14.641968,-5.349701,-1.1821289,0.12565613,0.36627197
1632,A,5574358638074,-5.6690063,-11.233536,0.3231659,-1.3546295,-0.16011047,-0.37695313
1632,A,5574408992078,-3.9091797,-9.463028,2.0366821,-0.7094269,0.79447937,-1.2944031
1632,A,5574459346082,-0.204422,-6.5205994,-0.21655273,-0.33750916,1.2171936,-0.80625916
1632,A,5574509700086,4.2109985,-7.2222443,2.4771118,0.08633423,0.8663635,-0.09466553
1632,A,5574560054089,-0.99053955,-10.222427,1.3354492,1.4721069,0.18559265,0.72024536
1632,A,5574610408093,-3.1427917,-11.5160675,-0.68000793,2.7516632,0.4723053,1.8096161
1632,A,5574660762097,-4.147171,-13.598068,3.1430817,2.0722656,0.92126465,1.9271698
1632,A,5574711116101,-3.4141388,-15.054443,5.839859,1.2284241,0.7429657,1.1832733
1632,A,5574761470105,1.5756531,-14.123352,0.5110779,0.87286377,-0.5408325,0.98968506
1632,A,5574811824109,2.5565796,-14.431305,-1.0226898,0.6693878,-1.3465118,1.712143
1632,A,5574862178113,1.9242706,-10.516098,2.3266296,-0.05380249,-1.4175568,1.382782
1632,A,5574912532117,0.5392456,-6.3384247,-4.475952,-1.0565796,-0.934021,0.2602234
1632,A,5574962886121,1.3792572,-3.6285248,-0.7748108,-1.0016937,-0.8245697,-0.4996338
1632,A,5575013240125,3.0079193,-2.7347717,-1.8774414,0.20953369,-0.78063965,0.24816895
1632,A,5575063594129,1.3644562,-3.615158,1.421814,0.8094635,-2.2088318,1.1786499
1632,A,5575113948132,-6.503769,-9.734253,7.6278534,-0.21255493,-0.7305603,-0.044677734
1632,A,5575164302136,-11.870514,-15.863068,11.076813,-0.69270325,0.3004303,-0.7480469
1632,A,5575214656140,1.3912048,-11.276642,10.045013,-1.5342865,2.2699738,-1.8950806
1632,A,5575265010144,8.035522,-13.116241,11.324387,-2.86763,-0.21470642,-1.4947052
1632,A,5575315364148,6.243927,-2.661377,-4.416748,-2.8484802,0.25624084,-0.86476135
1632,A,5575365718152,5.955246,-10.984421,-5.5030975,-0.8432617,1.2650146,-0.7076416
1632,A,5575416072156,-0.460495,-12.78894,-1.0415039,-1.0622406,0.046295166,-0.12765503
1632,A,5575466426160,-5.153122,-9.3780365,2.236267,-0.69818115,0.97480774,-0.74401855
1632,A,5575516780164,-5.2752533,-8.287796,-0.36779785,-0.47328186,0.6860657,-0.98143005
1632,A,5575567134168,-0.45948792,-8.379028,1.1229401,0.060028076,0.8096771,-0.4039917
1632,A,5575617488171,0.9386902,-9.134659,1.4168549,1.1645203,0.8946991,0.533844
1632,A,5575667842175,-3.3022308,-10.7499695,-0.7530823,2.6677704,0.27017212,1.8730621
1632,A,5575718196179,-5.571808,-13.198441,-0.9368439,2.4351807,1.1553497,2.5865936
1632,A,5575768550183,-3.9025269,-15.165894,1.9953918,1.7308655,2.4855194,1.609375
1632,A,5575818904187,-3.921173,-15.495834,0.13482666,1.6154633,0.13728333,0.786026
1632,A,5575869258191,2.5731049,-16.694748,0.64530945,1.056427,-1.3043213,1.1102905
1632,A,5575919612195,5.8768005,-15.590591,-0.013061523,0.35734558,-0.74838257,1.4715118
1632,A,5575969966199,0.4111786,-7.8207397,-4.766815,-0.7338867,-0.8815918,0.42973328
1632,A,5576020320203,-1.6286926,-3.6672974,-0.30949402,-1.1358795,-0.9746704,-0.69039917
1632,A,5576070674207,2.4143677,-1.7858276,-2.8313599,-0.03819275,-1.7893066,0.095687866
1632,A,5576121028211,2.8628235,-1.3938904,-1.7216187,0.70466614,-1.0709534,1.036438
1632,A,5576171382214,-7.250122,-9.34169,8.246246,0.10366821,0.120513916,-0.06964111
1632,A,5576221736218,-11.668167,-16.297226,13.913208,-0.9970093,0.670105,-1.4582977
1632,A,5576272090222,-0.92588806,-15.552994,8.478668,-2.2023163,0.9635925,-2.2343292
1632,A,5576322444226,3.6720276,-10.0264435,3.5154877,-2.2933502,0.4386139,-1.9302216
1632,A,5576372798230,7.0451813,-5.0278473,-6.0571136,-1.5063019,0.26921082,-1.1365356
1632,A,5576423152234,2.9703674,-13.670517,-6.8919067,-1.3384247,-0.47781372,-0.10028076
1632,A,5576473506238,-3.641922,-13.574432,-2.6968231,-0.94073486,0.36131287,-0.2872467
1632,A,5576523860242,-5.1861725,-9.386978,-0.50250244,-0.6374054,0.53723145,-0.9777069
1632,A,5576574214246,-2.1190948,-6.831787,0.6071625,-0.43621826,0.6066437,-1.0122833
1632,A,5576624568250,0.008514404,-8.242584,1.0027313,-0.07080078,0.9496765,-0.3132782
1632,A,5576674922254,-0.26101685,-10.194061,0.19946289,1.071579,0.7900696,0.5142975
1632,A,5576725262595,-3.5389252,-10.773407,0.42481995,2.5716705,0.051437378,1.7817383
1632,A,5576775616599,-4.287506,-12.443329,0.4997406,2.4704437,0.7725067,2.6015778
1632,A,5576825970603,-4.931244,-14.529907,3.679779,1.7661743,1.826416,1.8061218
1632,A,5576876324607,-3.9379578,-15.430664,2.680603,1.2345123,-0.31448364,0.94174194
1632,A,5576926678611,2.155304,-16.455093,0.9738617,0.8041992,-1.5110931,1.4185333
1632,A,5576977032615,3.955017,-14.420868,-0.54930115,0.33787537,-1.2510986,1.4755707
1632,A,5577027386619,-0.1641388,-7.8847046,-0.7910156,-0.6454773,-0.896286,0.46168518
1632,A,5577077740623,-0.2597351,-3.9419708,-1.4798889,-1.1665955,-1.2782135,-0.5935364
1632,A,5577128094627,3.0608368,-2.2491913,-2.6584167,-0.20962524,-1.8432312,0.16389465
1632,A,5577178448631,2.8703003,-1.5836487,-1.4807281,0.49291992,-1.02388,1.0191803
1632,A,5577228802634,-6.3969574,-8.008423,10.501022,0.73124695,0.22314453,0.38059998
1632,A,5577279156638,-9.677567,-16.149338,12.244537,-0.19430542,1.4338989,-0.97520447
1632,A,5577329510642,-0.3698883,-10.516602,4.488922,-1.6446228,0.83987427,-2.2624512
1632,A,5577379864646,4.6106873,-8.229187,0.30081177,-2.9860077,-0.8783264,-2.1506653
1632,A,5577430218650,5.2300873,-7.150528,-3.1167755,-1.8459778,-0.10592651,-1.4061279
1632,A,5577480572654,3.425949,-10.605484,-4.787445,-1.1692352,0.28863525,-0.36286926
1632,A,5577530926658,-2.013916,-12.169525,-1.895874,-1.0132141,0.47709656,-0.28692627
1632,A,5577581280662,-5.936737,-10.735214,-0.8249817,-0.72395325,0.92115784,-0.94143677
1632,A,5577631634666,-4.2271576,-7.563034,-0.51205444,-0.43988037,1.065506,-1.046402
1632,A,5577681988670,-0.7511902,-8.6289215,1.2994385,-0.06617737,0.9627228,-0.3929596
1632,A,5577732342674,0.06626892,-9.337799,1.3022156,0.51802063,0.46743774,-0.018951416
1632,A,5577782696677,-2.962494,-9.862839,-0.8261719,2.1743622,0.27560425,1.3701019
1632,A,5577833050681,-4.3497467,-12.210693,-0.050354004,2.1306763,-0.885376,2.991684
1632,A,5577883404685,-7.2703857,-14.191071,3.8436127,1.7509308,1.2385559,2.1587677
1632,A,5577933758689,-4.5469666,-13.473434,1.8539734,0.93196106,-0.2695465,0.9371338
1632,A,5577984112693,-0.90467834,-14.080963,-0.98550415,0.809494,-1.3368835,1.1847992
1632,A,5578034466697,2.0378418,-15.521164,3.32695,0.6715698,-1.4213715,1.5942383
1632,A,5578084820701,1.6592407,-10.280853,-1.4712677,-0.20365906,-0.4740448,0.90408325
1632,A,5578135174705,-0.8394623,-5.864609,-1.3180237,-1.1789551,-0.74635315,-0.5382843
1632,A,5578185528709,1.8473206,-2.4038086,-1.8414917,-0.15501404,0.53015137,-0.18806458
1632,A,5578235882713,3.3835144,-1.6517639,-2.01799,0.61564636,-1.4935608,1.3227997
1632,A,5578286236717,-1.8833008,-4.419739,3.6656342,0.40742493,-0.26341248,0.3604889
1632,A,5578336590720,-15.373215,-15.5215,8.0451355,-0.37846375,0.33164978,-0.50424194
1632,A,5578386944724,-5.5423126,-8.324173,7.2011566,-0.9929199,1.5297852,-2.1545258
1632,A,5578437298728,0.34248352,-15.37793,10.15036,-2.0306854,-0.5876007,-2.305069
1632,A,5578487652732,4.8797913,-6.81073,-0.015106201,-2.8504791,0.66285706,-2.0838165
1632,A,5578538006736,5.9107056,-9.802307,-7.499069,-1.6414795,-0.63183594,-0.5115509
1632,A,5578588360740,0.058120728,-13.615723,-5.8459473,-1.2088623,0.47669983,0.06732178
1632,A,5578638714744,-1.8305206,-10.168304,8.18248,-0.85250854,0.8220215,-0.78460693
1632,A,5578689068748,-4.868988,-7.7196198,0.93885803,-0.51838684,0.76174927,-1.2359161
1632,A,5578739422752,-0.11643982,-7.2453156,2.7556763,-0.21043396,0.516449,-0.60317993
1632,A,5578789776756,0.47790527,-8.659836,0.29141235,0.4685669,0.63145447,-0.013626099
1632,A,5578840130759,-1.8986969,-10.982849,0.5843506,2.220749,0.0700531,1.4854584
1632,A,5578890484763,-5.6418,-12.230347,1.1109467,2.2188873,-0.7467041,3.1066437
1632,A,5578940838767,-4.989105,-14.0346985,2.5736237,2.0011597,2.342331,2.1238403
1632,A,5578991192771,-4.655655,-12.98848,1.2410736,1.6420441,1.0130157,0.8582611
1632,A,5579041546775,-1.9612122,-14.382385,-2.3251648,1.2065582,-0.9107361,0.7350769
1632,A,5579091900779,4.238144,-18.564896,4.584152,0.60028076,-0.9032898,1.4524994
1632,A,5579142254783,2.776291,-9.9587555,-4.1039124,-0.27571106,-0.71017456,0.91064453
1632,A,5579192608787,-1.2056885,-4.6604767,-1.0851898,-1.381485,-1.0811615,-0.4663849
1632,A,5579242962791,0.3451233,-2.303482,-2.9354553,-0.15812683,0.66534424,-0.539032
1632,A,5579293316795,2.825882,-1.2042389,-2.5237885,0.5746918,-2.2284088,1.4733887
1632,A,5579343670799,-0.31878662,-3.4330292,1.8912964,0.56085205,-0.008102417,-0.31999207
1632,A,5579394024802,-17.140747,-17.232483,15.1440735,-0.44075012,0.43174744,-0.92285156
1632,A,5579444378806,-2.280182,-7.6962433,9.0439,-0.89131165,1.4622345,-2.2895508
1632,A,5579494732810,2.720398,-17.699982,8.2582245,-2.5221405,-1.21344,-1.4949188
1632,A,5579545086814,3.861679,-4.0202484,-2.9286957,-2.414032,1.8533783,-1.9072876
1632,A,5579595440818,4.0408173,-10.895645,-6.9319305,-1.4368286,-0.78440857,-0.37861633
1632,A,5579645794822,-1.4204865,-14.444275,-4.58757,-1.2703857,0.6034851,-0.2366333
1632,A,5579696148826,-1.5175323,-7.8535156,8.280197,-0.6672821,0.89053345,-0.8872528
1632,A,5579746502830,-5.008438,-7.592209,-0.74464417,-0.3738861,1.0597687,-1.094101
1632,A,5579796856834,-0.15080261,-7.441925,3.5623322,0.05947876,0.75460815,-0.75146484
1632,A,5579847210838,-0.527771,-9.855682,0.5175934,0.9400177,0.42366028,0.27719116
1632,A,5579897564842,-1.7863922,-10.431213,0.3604126,2.7184906,-0.68255615,2.1927643
1632,A,5579947918845,-8.196106,-11.487534,0.15716553,2.146164,-0.36315918,3.41716
1632,A,5579998272849,-6.546631,-15.350616,5.0610504,1.820755,2.2093658,1.511383
1632,A,5580048626853,-3.2668,-13.122116,3.5022278,0.8946991,-0.84724426,0.5821533
1632,A,5580098980857,0.035125732,-14.699066,-1.4900055,0.87319946,-1.2427368,0.837204
1632,A,5580149334861,0.93492126,-17.687363,6.4135895,0.28607178,-1.0606232,1.4318695
1632,A,5580199688865,1.5254211,-7.8231506,-4.9514313,-0.46723938,-0.584198,0.47068787
1632,A,5580250042869,-1.263092,-4.2171783,0.22499084,-1.3952789,-1.0017853,-0.93782043
1632,A,5580300396873,1.6492004,-1.5097046,-2.310852,0.20088196,1.5908966,0.20246887
1632,A,5580350750877,3.1397247,-1.2299652,-1.5493317,0.7054901,-2.7694244,1.5710144
1632,A,5580401104881,-2.8268127,-5.769928,4.544113,-1.6616058,-0.58084106,-0.1269226
1632,A,5580451458884,-19.718369,-19.361496,11.307449,0.11401367,-0.42619324,-0.9897461
1632,A,5580501812888,-1.4321136,-3.137024,4.878235,-0.21244812,1.4801788,-1.4598236
1632,A,5580552166892,10.185989,-10.673676,8.602066,-1.6886597,-0.464386,-1.5078888
1632,A,5580602520896,2.8534393,-4.359009,-1.7490692,-3.9913483,-0.90345764,-1.322586
1632,A,5580652874900,3.0689392,-6.1206665,-4.3588867,-0.5057678,2.485489,-1.3192444
1632,A,5580703228904,-0.9013977,-15.126816,-5.0147705,-1.1147308,-0.08708191,-0.23727417
1632,A,5580753582908,-3.0926514,-8.361404,0.096847534,-0.7802887,1.0495453,-0.7628021
1632,A,5580803936912,-5.1435394,-10.814911,0.8993988,-0.62161255,0.9941559,-1.3405457
1632,A,5580854290916,-2.7650452,-7.204132,-0.22692871,0.020126343,0.7581024,-0.8182678
1632,A,5580904644920,1.5229187,-9.304184,2.1866913,0.5820923,0.5165558,0.117996216
1632,A,5580954998924,-1.125473,-9.689209,1.6293488,2.590042,0.013702393,1.5011902
1632,A,5581005352927,-8.917923,-11.332993,-1.1542206,2.4931946,0.36331177,3.0500488
1632,A,5581055706931,-5.0317535,-14.940582,2.666504,1.8231201,2.6347504,2.0222168
1632,A,5581106060935,-7.3931427,-14.2200775,-0.6324463,1.3602142,0.60754395,0.70495605
1632,A,5581156414939,-0.43197632,-16.129974,-1.9617004,0.83122253,-1.7580261,0.7411041
1632,A,5581206768943,4.766159,-17.98114,2.9459991,0.48399353,-0.9002533,1.6886139
1632,A,5581257122947,2.0206604,-8.005951,-3.471634,-0.63822937,-1.0130463,1.124054
1632,A,5581307476951,-2.4302826,-4.0818787,0.19355774,-1.7002258,-0.59840393,-0.11956787
1632,A,5581357830955,1.318161,-3.8753357,-3.0081787,-0.91166687,-0.7946625,-0.7461548
1632,A,5581408184959,2.9710846,-2.0811005,-1.9566498,0.49275208,-2.5823517,1.3028412
1632,A,5581458538963,-1.7263794,-3.9129639,2.5322876,-0.20857239,0.21385193,0.2574463
1632,A,5581508892967,-16.052887,-15.788071,17.501236,0.32936096,0.5278168,-0.52194214
1632,A,5581559246970,-3.0272827,-11.787903,4.4448853,-0.5267639,1.3673248,-1.7552185
1632,A,5581609600974,6.415207,-8.303757,-7.5313263,-2.1271057,-0.6279144,-2.069336
1632,A,5581659954978,3.205902,-7.3559723,-4.9023438,-3.5267181,-0.9403076,-1.4890289
1632,A,5581710308982,3.5177307,-7.5230103,-4.4618225,-1.4041138,1.9835663,-1.1235657
1632,A,5581760662986,-0.35144043,-13.716003,-4.052994,-1.1145172,0.42126465,-0.15774536
1632,A,5581811016990,-3.488968,-8.505997,1.1069641,-0.49012756,1.3408966,-0.6824646
1632,A,5581861370994,-3.9760132,-8.826279,4.1002197,-0.337265,0.83950806,-1.1094055
1632,A,5581911724998,-1.3556519,-8.106018,1.0040894,0.13438416,1.0475006,-0.6288605
1632,A,5581962079002,0.0849762,-9.859558,0.36610413,0.92103577,0.6434784,0.4842224
1632,A,5582012433006,-2.2525787,-10.89534,0.8845825,2.6727295,0.06309509,1.8729858
1632,A,5582062787009,-7.4825134,-11.750412,-0.11332703,2.250351,0.33155823,2.9499054
1632,A,5582113141013,-4.915207,-14.324188,2.187149,1.7922516,2.7556763,1.6942444
1632,A,5582163495017,-6.7353516,-14.545395,-2.228485,1.3507385,0.25091553,0.81967163
1632,A,5582213849021,-0.21095276,-15.73555,-0.987854,0.8065338,-1.7326965,0.930542
1632,A,5582264203025,4.36615,-17.035614,2.2976532,0.3304901,-0.87179565,1.6086578
1632,A,5582314557029,1.6757202,-8.282028,-4.729233,-0.52049255,-0.83551025,0.62905884
1632,A,5582364911033,-1.3857117,-4.3162384,0.03652954,-1.1486053,-0.5941467,-0.56259155
1632,A,5582415265037,2.4124908,-2.8797455,-3.0748138,-0.013641357,-0.8498688,-0.17346191
1632,A,5582465619041,3.3033142,-1.0617828,-1.5274506,0.28234863,-1.6307831,1.3239899
1632,A,5582515973045,-4.5122375,-6.372711,5.770706,-0.35812378,0.24293518,-0.19841003
1632,A,5582566327049,-15.102188,-16.435135,15.703079,0.283844,1.1157379,-1.0589752
1632,A,5582616681052,0.684494,-9.863663,4.340515,-0.7471161,0.49362183,-2.2910461
1632,A,5582667035056,7.771454,-10.087021,-1.5296173,-2.1259155,-0.9786682,-2.5293427
1632,A,5582717389060,3.2275543,-5.590866,-3.6286469,-2.4287567,0.34587097,-1.0295258
1632,A,5582767743064,2.6329498,-10.999207,-4.5753326,-1.0750122,-0.2882843,-0.6804199
1632,A,5582818097068,-3.0714264,-11.094437,-1.6343994,-1.4794769,0.25942993,-0.47424316
1632,A,5582868451072,-4.119034,-8.004303,0.8002777,-0.41809082,1.466919,-1.1173248
1632,A,5582918805076,-2.8147583,-9.090576,1.5045776,-0.18034363,0.7206116,-1.0149384
1632,A,5582969159080,-0.6465454,-8.384476,0.45777893,0.22332764,0.6385956,-0.4606781
1632,A,5583019513084,-1.2613525,-9.806061,1.7436829,1.2938843,0.11427307,0.53704834
1632,A,5583069867088,-3.8504944,-11.420578,1.4964447,2.2481384,-0.0848999,1.8987274
1632,A,5583120221092,-7.5102997,-12.977341,1.9151001,1.5070648,0.5574646,2.2364655
1632,A,5583170575095,-6.813797,-14.757233,2.00885,1.1709137,-0.15878296,1.3381348
1632,A,5583220929099,-4.7162933,-14.091049,-2.273697,1.4045563,-0.6369629,0.8809967
1632,A,5583271283103,0.22946167,-15.356735,0.14103699,0.7173462,-0.59898376,1.0474243
1632,A,5583321637107,1.384201,-14.388611,2.829895,0.030578613,-0.82562256,1.0711823
1632,A,5583371991111,2.3753967,-8.263794,-0.6578827,-0.74053955,-0.44778442,0.104904175
1632,A,5583422345115,1.9364471,-3.820282,-0.96035767,-0.8685913,-1.0652313,-0.4303894
1632,A,5583472699119,1.6373749,-1.1359558,-2.3982697,0.1144104,-1.5396881,0.31497192
1632,A,5583523053123,0.20300293,-2.718872,-0.028427124,0.38475037,-1.2507782,1.0331726
1632,A,5583573407127,-5.6296844,-9.81897,8.499069,0.07847595,-0.47921753,-0.111206055
1632,A,5583623761131,-10.204742,-15.167175,12.810959,-0.10368347,0.5400238,-1.1017761
1632,A,5583674115134,0.79937744,-11.016144,1.4157715,-1.5436096,0.9339447,-1.7415009
1632,A,5583724469138,6.3574677,-8.304916,-4.5451965,-3.351303,-0.9957733,-1.8423309
1632,A,5583774823142,4.342911,-4.474655,-7.250946,-3.1172485,-1.395935,-1.912735
1632,A,5583825177146,2.570755,-10.973663,-5.6226807,-1.7494202,-1.7034454,-0.30122375
1632,A,5583875531150,-0.44847107,-12.5894165,0.71694946,-1.7782135,-0.5418701,1.4400635
1632,A,5583925885154,-4.0879517,-9.272629,2.4086761,-0.8134613,1.625,0.35795593
1632,A,5583976239158,-4.84404,-9.859131,-2.2067108,-0.2745514,1.1477356,-0.6523285
1632,A,5584026593162,-1.8367462,-8.884766,-1.587738,-0.039520264,1.0902863,-0.09635925
1632,A,5584076947166,-0.535614,-9.442551,-1.406311,1.2189941,0.466156,0.49076843
1632,A,5584127301170,-2.613922,-10.334656,0.35154724,2.8069153,0.0043792725,0.9573364
1632,A,5584177655174,-4.3852844,-12.156418,1.0531158,2.579193,0.7706604,1.2447357
1632,A,5584228009177,-5.3733215,-14.062149,5.3471375,2.8144684,3.1959229,1.5805359
1632,A,5584278363181,-3.2510986,-15.138702,4.603714,1.7034607,1.5098419,1.5329437
1632,A,5584328717185,0.3892975,-13.758728,-0.26820374,0.36769104,-1.2931519,1.0525665
1632,A,5584379071189,-0.60650635,-13.49704,1.0203552,0.28468323,-1.4713745,0.9925232
1632,A,5584429425193,-2.0489655,-11.058228,2.5336456,-0.67007446,-1.4505157,0.42695618
1632,A,5584479779197,-0.52723694,-6.7111206,-0.14105225,-1.2314606,-1.3557587,-0.84609985
1632,A,5584530133201,2.557724,-4.2397156,-2.4550781,-0.31219482,0.10140991,0.11729431
1632,A,5584580487205,3.2576904,-2.9369202,-1.5080719,0.5522003,0.11947632,1.1580505
1632,A,5584630841209,-2.3515167,-5.1601715,6.147934,1.0228119,0.7909241,0.3590393
1632,A,5584681195213,-11.7733,-13.916412,8.11911,0.35450745,1.5015106,-0.55307007
1632,A,5584731549217,-7.373581,-8.840103,1.5859375,-1.0531464,0.09776306,-2.1249847
1632,A,5584781903220,0.7436218,-11.224442,4.162384,-1.9979858,-2.410675,-2.927414
1632,A,5584832257224,3.7782745,-10.661224,1.249527,-2.8348083,-1.4111481,-1.5981293
1632,A,5584882611228,3.1272583,-8.253906,-4.658798,-1.9597015,-0.93362427,-1.3413849
1632,A,5584932965232,-1.5432892,-11.333008,-4.5644836,-1.2495575,-0.41262817,-0.8509979
1632,A,5584983319236,1.2290344,-6.8216553,5.790024,-0.7183075,1.2574463,-0.0892334
1632,A,5585033673240,-0.68222046,-7.9516754,5.8189087,-0.4815979,1.5935669,-0.6643982
1632,A,5585084027244,-2.0274048,-8.524643,1.4041748,-0.4044037,1.2590637,-0.16546631
1632,A,5585134381248,2.2786102,-8.190094,1.1718597,0.26474,0.6420288,0.1937561
1632,A,5585184735252,1.569046,-10.706009,1.6532135,2.0365753,0.24238586,1.1590576
1632,A,5585235089256,-3.71492,-11.544937,0.67381287,2.6199646,0.3945465,2.258072
1632,A,5585285443259,-5.93425,-14.75267,3.065384,2.1331024,2.2277374,1.4296112
1632,A,5585335797263,-1.2512207,-14.524017,3.3858185,1.5423279,0.14816284,0.4679718
1632,A,5585386151267,3.6103363,-13.797089,0.6912689,1.1530914,-0.7853546,0.88357544
1632,A,5585436505271,2.9586334,-13.517258,2.243515,0.8624573,-0.944046,1.396286
1632,A,5585486859275,0.51197815,-9.345474,-2.0566864,-0.15093994,-0.5673523,1.0338898
1632,A,5585537213279,-2.2267761,-6.763092,-0.402359,-1.4576721,-0.5296631,0.043640137
1632,A,5585587567283,1.1515656,-3.6845093,-0.4374237,-0.7362213,0.26065063,-0.38398743
1632,A,5585637921287,3.705246,-1.6099548,-1.7979279,0.8135834,-1.8768768,1.0358887
1632,A,5585688275291,-0.19781494,-2.899887,1.5585632,0.3383789,-1.0880127,0.6745453
1632,A,5585738629295,-13.513397,-14.415451,11.958191,-0.26512146,-0.7648773,-0.47781372
1632,A,5585788983299,-6.140625,-11.231018,9.620102,-0.9656067,1.742157,-1.7197571
1632,A,5585839337302,6.2105255,-15.835831,10.09845,-2.499649,0.20343018,-1.4108276
1632,A,5585889691306,6.8025665,-5.7543945,0.23313904,-2.79422,2.5842438,-1.7919312
1632,A,5585940045310,5.8890533,-6.9236298,-8.229004,-1.8296509,-0.1349945,-0.91270447
1632,A,5585990399314,1.4323883,-13.703445,-5.774597,-1.1313477,-0.14915466,-0.1312561
1632,A,5586040753318,-2.4291077,-11.842941,4.2985687,-0.70132446,1.1857758,-0.56684875
1632,A,5586091107322,-4.6812134,-7.800308,1.6668854,-0.62475586,0.9341736,-1.0935822
1632,A,5586141461326,-1.4477997,-7.3065643,1.3405762,-0.15939331,0.8641968,-0.88098145
1632,A,5586191815330,2.232956,-9.056931,1.4828186,0.2776184,0.6151428,-0.1980896
1632,A,5586242169334,0.94415283,-9.996231,1.0973511,2.0956573,-0.18284607,1.3859863
1632,A,5586292523338,-5.776169,-10.633865,-0.829895,2.246292,-0.3373413,2.9685974
1632,A,5586342877342,-5.5784454,-14.294266,2.0724335,1.7703094,2.22258,1.9051208
1632,A,5586393231345,-6.667633,-14.60379,0.9576721,1.3207092,0.76667786,0.7945404
1632,A,5586443585349,-1.7402039,-15.027084,-3.201645,1.063797,-1.3301239,0.7441864
1632,A,5586493939353,3.5039978,-17.721588,3.991623,0.75994873,-1.2003784,1.6049347
1632,A,5586544293357,3.3885803,-10.454987,-3.363449,-0.09030151,-0.73335266,1.1141968
1632,A,5586594647361,-1.9962921,-5.27359,-0.056625366,-1.1984863,-0.69273376,-0.25263977
1632,A,5586645001365,0.77267456,-3.8230896,-1.6226349,-0.18351746,-0.27700806,-0.7142639
1632,A,5586695355369,3.5728302,-1.7384644,-1.7912598,0.5997467,-2.127182,1.2916412
1632,A,5586745716969,0.698761,-2.0798187,0.46551514,-0.10964966,-0.7268677,0.18870544
1632,A,5586796070973,-16.365005,-16.444748,16.103714,0.09449768,-0.6549988,-0.37217712
1632,A,5586846424977,-4.8940887,-8.970566,8.041397,-0.5099945,1.6820374,-1.5940704
1632,A,5586896778980,3.7989044,-14.620636,0.20913696,-2.353012,-0.08969116,-2.1110077
1632,A,5586947132984,5.19928,-4.254196,-3.1391754,-3.6721802,0.26600647,-1.8858032
1632,A,5586997486988,6.1121826,-6.6099396,-5.8423157,-1.6440735,-1.0406647,-0.8472748
1632,A,5587047840992,1.503067,-14.169754,-4.1857452,-1.1305084,-0.13945007,-0.06939697
1632,A,5587098194996,-2.0767517,-8.226837,14.005569,-0.8704376,0.9907074,-0.5335083
1632,A,5587148549000,-6.3042755,-8.771301,-0.058883667,-0.6904297,0.7963867,-1.1780853
1632,A,5587198903004,-1.5500183,-7.131668,1.1502228,-0.14266968,1.3508148,-1.0556183
1632,A,5587249257008,1.2067719,-9.019836,0.70132446,0.0745697,0.691391,-0.09552002
1632,A,5587299611012,1.1978302,-9.91951,1.725357,2.0506134,-0.18229675,1.0711365
1632,A,5587349965016,-7.235779,-11.087952,-0.48487854,2.7391663,0.26539612,2.6981812
1632,A,5587400319020,-5.5525513,-14.595276,2.3605042,1.6451721,2.109314,2.071518
1632,A,5587450673023,-7.761856,-16.06688,0.14859009,1.5839844,1.0797272,1.1341095
1632,A,5587501027027,-0.21913147,-15.654221,-1.7548828,1.3744354,-1.8536072,0.4958191
1632,A,5587551381031,5.103653,-17.537231,3.3603973,0.8412781,-0.25190735,1.6340485
1632,A,5587601735035,5.0562286,-10.551361,-1.4434509,0.085235596,-0.44277954,1.1536713
1632,A,5587652089039,-0.33325195,-4.9798126,0.039718628,-1.0103302,-0.22157288,-0.17475891
1632,A,5587702443043,0.55914307,-4.178177,-1.8028717,-1.2258301,-1.001709,-1.039505
1632,A,5587752797047,3.151123,-2.104126,-1.862793,0.4840088,-1.8665466,1.1176147
1632,A,5587803151051,1.1385956,-1.7635956,-0.3991394,0.3279724,-0.33628845,0.9497528
1632,A,5587853505055,-12.604935,-11.112854,15.182251,1.1047821,1.186676,-0.07771301
1632,A,5587903859059,-9.767242,-18.835907,7.529846,-0.8487396,2.0209198,-1.5669861
1632,A,5587954213063,8.069534,-6.695862,4.965805,-2.038803,0.5730438,-2.5283356
1632,A,5588004567066,3.4150238,-9.109573,-3.4363098,-3.4731598,-1.3641357,-1.4150543
1632,A,5588054921070,5.111664,-4.632126,-4.5026703,-1.2809906,2.9098663,-1.697113
1632,A,5588105275074,1.652832,-14.818848,-4.843689,-1.2763824,-0.12313843,-0.061172485
1632,A,5588155629078,-2.820816,-9.589035,0.506485,-0.7717743,1.1963501,-0.15782166
1632,A,5588205983082,-5.3433228,-9.779755,3.005371,-0.37045288,1.0978088,-0.97125244
1632,A,5588256337086,-3.1449127,-7.4681244,0.27044678,-0.42774963,1.0884857,-0.99191284
1632,A,5588306691090,0.3577423,-9.067688,1.540329,0.082092285,0.917572,-0.1210022
1632,A,5588357045094,-0.13471985,-9.484924,0.08648682,1.19104,0.8892212,0.38290405
1632,A,5588407399098,-3.7299805,-10.896606,0.4629364,2.6672516,-0.3840027,2.5344849
1632,A,5588457753102,-3.774643,-13.23761,4.3632965,2.0426788,1.3705292,2.738556
1632,A,5588508107105,-7.1272736,-14.58255,7.2022705,1.6604004,2.178299,1.1593323
1632,A,5588558461109,-0.8799896,-12.516449,3.9602509,0.61405945,-2.389328,0.6773529
1632,A,5588608815113,3.851944,-17.9207,0.45555115,0.7739258,-0.28474426,1.839325
1632,A,5588659169117,4.1000366,-12.297531,2.6741638,0.25073242,-1.208725,1.2033539
1632,A,5588709523121,-1.6215057,-5.2200623,-0.24536133,-1.0011292,-0.87908936,0.18894958
1632,A,5588759877125,0.15350342,-3.7377625,-2.2692719,-1.4541321,-1.3573303,-0.68659973
1632,A,5588810231129,2.797943,-1.0263367,-3.1710205,1.2352753,-0.10913086,0.8881836
1632,A,5588860585133,2.4031525,-2.4324188,-1.547821,0.5864258,-0.8990631,0.830719
1632,A,5588910939137,-5.8547363,-7.8961487,5.557419,0.669754,1.0610657,-0.99858093
1632,A,5588961293141,-14.969315,-17.377243,9.831177,-1.4834442,1.424942,-1.4833679
1632,A,5589011647145,4.6943665,-3.212967,4.25531,-1.9674225,1.170166,-2.3885498
1632,A,5589062001148,3.0180206,-17.55066,0.622818,-2.432785,-1.1098633,-1.305542
1632,A,5589112355152,4.3346405,-5.77153,-4.4920654,-1.3335419,-0.8805847,-0.7329254
1632,A,5589162709156,1.4038391,-13.657639,-3.9198456,-1.3078461,0.18110657,-0.072784424
1632,A,5589213063160,-3.5829315,-9.113998,5.197815,-0.91186523,1.3125,-0.40612793
1632,A,5589263417164,-4.4782104,-8.390396,-1.1805725,-0.41493225,1.4767303,-1.0519562
1632,A,5589313771168,-1.8081207,-6.925171,0.1118927,-0.13554382,1.6070557,-1.0093231
1632,A,5589364125172,1.1466675,-9.897873,3.15625,0.2569275,0.83529663,-0.22555542
1632,A,5589414479176,-0.93107605,-9.961548,0.18507385,1.212326,0.40068054,0.6414337
1632,A,5589464833180,-3.5140533,-10.930771,0.9054413,2.6352844,0.43608093,2.5179443
1632,A,5589515187184,-7.0682373,-12.604202,2.031128,2.048111,0.3907013,2.6966553
1632,A,5589565541188,-7.8685455,-14.48204,3.5329285,1.9512329,1.4864807,1.042038
1632,A,5589615895191,0.19096375,-13.744156,1.1993561,1.089035,-1.240921,0.6309509
1632,A,5589666249195,2.7626953,-15.92601,0.8247833,0.7700348,-0.08558655,1.7623901
1632,A,5589716603199,3.4543762,-11.873123,2.666092,0.19151306,-0.8644409,1.3332825
1632,A,5589766957203,-1.2113647,-6.5499115,-4.064102,-1.0304871,-0.661499,0.049621582
1632,A,5589817311207,-2.247223,-4.3776855,-0.8935089,-1.147522,-1.031189,-0.5706177
1632,A,5589867665211,3.19635,-1.3053894,-2.7273865,1.1183472,-0.8488159,0.9101105
1632,A,5589918019215,1.1461334,-0.9963379,-0.21786499,0.7647705,-0.63887024,0.7621155
1632,A,5589968373219,-9.096664,-8.062866,6.990753,0.01210022,0.66586304,-1.3601227
1632,A,5590018727223,-12.345673,-14.342148,7.873535,-1.2111664,1.1652832,-1.6293488
1632,A,5590069081227,4.8558655,-4.7038574,7.2756195,-1.8367767,0.32536316,-2.186203
1632,A,5590119435230,2.3342896,-14.878693,8.776611,-2.4126282,-0.92297363,-1.5466614
1632,A,5590169789234,2.711563,-5.1992035,-5.308075,-1.1219482,-0.029418945,-0.83239746
1632,A,5590220143238,0.60191345,-12.185745,-4.747116,-1.2400513,-0.2293396,-0.027618408
1632,A,5590270497242,-3.405838,-10.987991,-0.807312,-0.7889099,0.7324829,-0.34848022
1632,A,5590320851246,-4.3359528,-8.471161,-0.5880127,-0.6186676,0.8152313,-0.93200684
1632,A,5590371205250,-1.9281769,-7.48938,0.8016968,-0.24888611,1.0629272,-0.84103394
1632,A,5590421559254,-0.02861023,-8.974899,1.3482361,0.18275452,0.74568176,-0.33763123
1632,A,5590471913258,-0.31236267,-9.912888,1.9717102,1.1050415,0.23426819,0.76782227
1632,A,5590522267262,-2.7234497,-10.670471,1.8085022,2.5129547,0.36994934,2.3348846
1632,A,5590572621266,-6.2031555,-11.98259,0.53378296,2.3525696,1.1852417,2.348648
1632,A,5590622975270,-5.3522797,-14.178238,2.6777954,2.025589,2.1167603,0.70288086
1632,A,5590673329273,-0.32868958,-14.299149,1.9189148,1.0361176,-0.4072113,0.75556946
1632,A,5590723683277,1.7444153,-14.721939,1.1153259,0.6244507,-0.690979,1.4079132
1632,A,5590774037281,2.544693,-13.901474,2.6738586,0.23602295,-0.99542236,1.3178864
1632,A,5590824391285,-1.2569427,-7.601181,-3.1286469,-0.7438965,-0.5350952,0.3435669
1632,A,5590874745289,-2.5601501,-4.555176,0.13856506,-1.0975342,-0.28526306,-0.47750854
1632,A,5590925099293,2.7660828,-2.6022797,-2.1272888,-0.21092224,-0.8304291,0.07673645
1632,A,5590975453297,2.4230804,-2.2787628,-0.96842957,0.35957336,-1.3528595,0.8373413
1632,A,5591025807301,-7.7503967,-9.3697815,7.88591,0.051849365,1.2214508,-0.069732666
1632,A,5591076161305,-13.614746,-15.732269,14.000748,-0.06236267,2.016693,-0.85050964
1632,A,5591126515309,-0.79074097,-7.611496,0.24862671,-0.6318817,0.5633545,-1.7245483
1632,A,5591176869313,2.5944366,-10.144562,-6.38649,-1.910553,-0.61227417,-1.6562805
1632,A,5591227223316,1.3663483,-13.014343,-3.7958221,-3.0785828,-0.31184387,-1.1726227
1632,A,5591277577320,2.3795013,-7.6043854,-4.217636,-2.116928,0.5378723,-0.6598511
1632,A,5591327931324,-0.083480835,-11.085403,-3.3198547,-0.8638611,0.09864807,-0.029785156
1632,A,5591378285328,-1.9251251,-7.9847565,5.889679,-0.61398315,0.68266296,-0.41511536
1632,A,5591428639332,-2.3451538,-7.578598,8.148453,-0.41352844,0.8532257,-0.83091736
1632,A,5591478993336,-2.3288727,-8.722702,-0.17324829,-0.24194336,1.004837,-0.6224365
1632,A,5591529347340,-0.3511963,-9.37999,0.66986084,0.10469055,0.9056244,-0.38252258
1632,A,5591579701344,-1.067215,-9.986099,-0.11909485,1.3135376,0.73339844,0.2060852
1632,A,5591630055348,-2.2614899,-11.1184845,0.48023987,2.3949738,0.26045227,1.713562
1632,A,5591680409352,-3.5546417,-13.263382,1.6877899,2.1563873,1.0458832,2.173706
1632,A,5591730763355,-5.3983307,-14.877731,4.872711,1.9069214,1.53508,1.3360443
1632,A,5591781117359,-3.9401703,-14.138321,3.72229,1.2515106,-0.026275635,0.77156067
1632,A,5591831471363,1.2645874,-15.802795,2.686386,0.7146454,-0.9081421,1.3909302
1632,A,5591881825367,3.4037323,-14.5915985,1.409668,0.3186798,-0.8763428,1.6184692
1632,A,5591932179371,-0.32707214,-7.895569,-1.4217834,-0.77593994,-0.83517456,0.54255676
1632,A,5591982533375,-1.3905334,-5.144394,-0.6901703,-1.1098785,-1.0668488,-0.52835083
1632,A,5592032887379,2.3494263,-2.9416046,-2.4763641,0.03492737,-1.2787628,0.20397949
1632,A,5592083241383,3.1769257,-1.1921692,-1.5685425,1.1970062,0.10331726,1.182251
1632,A,5592133595387,-7.3401184,-8.890625,9.968475,0.67578125,0.38523865,0.3526001
1632,A,5592183949391,-10.620132,-13.883347,13.214539,-1.2003632,1.102951,-1.9319763
1632,A,5592234303395,-3.9624023,-16.152893,8.970062,-2.0458984,1.79982,-2.410736
1632,A,5592284657398,4.8573456,-5.979553,3.9572449,-1.6974792,-0.1902008,-1.6322174
1632,A,5592335011402,8.529251,-7.2029724,-4.5825806,-1.440979,-0.90008545,-1.0815582
1632,A,5592385365406,0.42210388,-14.264893,0.36769104,-1.3470459,-0.5058136,-0.49809265
1632,A,5592435719410,-4.8303986,-10.20871,3.043213,-1.1685181,0.35697937,-0.22157288
1632,A,5592486073414,-3.6818695,-8.662659,0.56173706,-0.87298584,0.66752625,-0.6974945
1632,A,5592536427418,-2.846695,-7.0758667,0.4848175,-0.30181885,0.9303436,-1.0617981
1632,A,5592586781422,-1.168335,-7.5659943,0.5623932,0.046813965,1.3708496,-0.70162964
1632,A,5592637135426,0.18309021,-10.351166,0.7633362,0.3184967,1.1999359,-0.49072266
1632,A,5592687489430,-1.7985382,-10.388092,0.6096344,1.4633179,0.12887573,0.6234436
1632,A,5592737843434,-2.894577,-11.093155,0.5473175,2.4674835,0.4275818,2.4908295
1632,A,5592788197438,-4.721405,-12.01619,2.9060059,2.1454315,2.4328613,2.1589813
1632,A,5592838551441,-7.765259,-13.909729,5.315445,1.8129272,2.1783142,1.1846313
1632,A,5592888905445,-2.815567,-15.605515,1.3066101,1.1268921,0.5060425,1.3193054
1632,A,5592939259449,4.3233643,-18.112747,2.2853699,0.88526917,-0.65016174,1.9528351
1632,A,5592989613453,4.173645,-14.258102,-4.290024,0.33795166,-1.0916901,1.6401825
1632,A,5593039967457,-3.7412872,-7.3168488,-0.21025085,-0.8860626,-1.1373749,0.717865
1632,A,5593090321461,-1.881607,-4.194229,0.3653412,-0.883728,0.104888916,0.41690063
1632,A,5593140675465,3.2904816,-1.885025,-2.5663147,0.040618896,-1.5705566,0.55044556
1632,A,5593191029469,1.6393127,-1.4614716,0.7630005,0.12161255,-0.75964355,-0.026168823
1632,A,5593241383473,-13.170624,-10.204727,8.53302,0.653183,2.2391968,-0.14955139
1632,A,5593291737477,-8.948456,-10.83168,8.789337,-0.3375244,1.196167,-1.3167267
1632,A,5593342091480,1.4057007,-2.2724152,-0.37869263,-2.3740082,1.3955383,-2.350113
1632,A,5593392445484,3.1199493,-13.101059,-4.003311,-1.5008545,1.0026093,-2.2535706
1632,A,5593442799488,2.9803467,-6.2738495,-5.471863,-1.4389496,-0.7008972,-1.8981934
1632,A,5593493153492,2.4903717,-13.759125,3.401596,-2.0406342,-0.47227478,-1.0661011
1632,A,5593543507496,-0.5300293,-11.742477,0.6320801,-1.5220795,-0.29304504,-0.43473816
1632,A,5593593861500,-2.5869598,-9.954895,-1.7627106,-1.0283813,0.4523468,-0.16116333
1632,A,5593644215504,-4.381119,-8.841034,1.7310944,-0.72735596,0.7090912,-0.63978577
1632,A,5593694569508,-4.069275,-8.314285,-0.23065186,-0.19415283,1.223587,-0.994339
1632,A,5593744923512,-0.5444641,-7.572174,1.3692627,0.11679077,1.2615051,-0.6959686
1632,A,5593795277516,0.73677063,-10.425735,1.384079,0.59036255,0.7531433,-0.097579956
1632,A,5593845631520,-1.1920776,-10.5238495,1.3739166,2.367859,0.27426147,1.6175537
1632,A,5593895985523,-5.1018066,-11.139404,0.7637329,2.6016693,-0.18515015,2.9417572
1632,A,5593946339527,-6.5327606,-13.188004,3.1466064,2.1018982,3.1430817,1.4632568
1632,A,5593996693531,-1.4696808,-12.89183,5.5328064,1.3535004,0.3875885,0.62631226
1632,A,5594047047535,0.5350189,-13.906601,-0.16027832,0.94898987,-0.1434784,1.1154633
1632,A,5594097401539,3.0069733,-16.225235,7.3469086,0.6963806,-0.7574768,1.4710541
1632,A,5594147755543,0.9554291,-10.224548,-4.413376,-0.43780518,-0.6263733,0.72164917
1632,A,5594198109547,-3.6432648,-5.040085,-0.5202942,-1.3970642,-0.91786194,-0.49534607
1632,A,5594248463551,0.46481323,-2.9684296,-1.4347534,-0.71998596,0.44451904,-0.8049164
1632,A,5594298817555,4.285919,-1.1979675,-2.2920074,0.4206848,-1.8875122,0.83638
1632,A,5594349171559,0.47694397,-2.1659546,1.0076447,-0.20553589,-0.03315735,0.15049744
1632,A,5594399525563,-16.317032,-16.366165,13.068954,0.48054504,-0.066589355,-0.25413513
1632,A,5594449879566,-5.848572,-10.167221,9.106995,0.13923645,1.6407166,-1.9138031
1632,A,5594500233570,3.967163,-17.558762,11.917801,-2.4177856,-0.57702637,-2.6360168
1632,A,5594550587574,8.449249,-0.041488647,-1.6084595,-4.52948,-0.8961487,-2.1403198
1632,A,5594600941578,8.339249,-6.954651,-7.1200256,-0.9946594,0.62979126,-1.1183319
1632,A,5594651295582,0.82003784,-16.253906,-5.145233,-0.8859253,-1.0471954,0.003616333
1632,A,5594701649586,-3.4742126,-10.158142,4.695999,-1.1562195,1.639389,-0.15486145
1632,A,5594752003590,-7.5029907,-8.743973,-3.5804749,-0.49650574,1.1651306,-1.210022
1632,A,5594802357594,-2.50177,-7.395706,-0.35368347,0.1382904,1.6590118,-1.0422516
1632,A,5594852711598,2.7687683,-7.7898254,1.4326019,-0.012084961,0.6871033,-0.3165741
1632,A,5594903065602,0.42126465,-10.352585,1.4192047,1.7410431,-0.37580872,1.1494446
1632,A,5594953419605,-5.988449,-10.018875,-1.5798798,3.0677795,-0.11531067,2.838623
1632,A,5595003773609,-6.33374,-14.182999,1.7036133,1.7740173,2.2375946,2.345398
1632,A,5595054127613,-7.593521,-17.680008,7.09404,1.7070007,1.8592377,0.94966125
1632,A,5595104481617,-0.5104523,-16.200623,0.5530548,1.1124115,-1.9477539,0.5623169
1632,A,5595154835621,8.4726715,-17.271713,3.4066772,0.98999023,-0.5005646,1.6543732
1632,A,5595205189625,3.6262054,-10.2444,-2.1625671,-0.01737976,-0.52098083,0.9849701
1632,A,5595255543629,-2.3557587,-4.4703064,1.9253693,-1.2857971,-0.60009766,-0.2051239
1632,A,5595305897633,0.5690155,-3.7377167,-2.0100708,-1.4732056,-1.4185333,-1.336731
1632,A,5595356251637,3.4761353,-1.8905945,-2.9322662,0.81326294,-1.5132141,1.1521759
1632,A,5595406605641,2.036377,-1.7845917,-0.046936035,0.09770203,0.24493408,0.7030792
1632,A,5595456959645,-10.339462,-10.882751,17.727325,0.3010254,0.7625427,-1.0472565
1632,A,5595507313648,-7.7686615,-16.17392,8.494705,-0.68452454,1.2041779,-1.8609772
1632,A,5595557667652,11.6427765,-10.925079,1.561203,-1.9237976,-0.16786194,-2.1351013
1632,A,5595608021656,3.3736725,-5.9348755,-6.6591797,-3.8721008,-1.2252197,-1.5684967
1632,A,5595658375660,4.3226776,-8.603378,-4.2326355,-0.37998962,1.1138763,-1.1013031
1632,A,5595708729664,-0.33476257,-14.430481,-4.235733,-1.2464447,-0.57637024,0.048599243
1632,A,5595759083668,-3.4889374,-8.074829,1.1984253,-0.846817,1.4366608,-0.45188904
1632,A,5595809437672,-6.41658,-9.946472,-2.754303,-0.59609985,0.13256836,-1.3842926
1632,A,5595859791676,-1.7658539,-7.264023,1.5817566,0.022888184,1.287384,-0.852005
1632,A,5595910145680,1.4042664,-8.109909,0.8674927,0.2949829,0.3222351,-0.009475708
1632,A,5595960499684,-0.09460449,-10.933243,2.3654633,2.2066345,-0.20594788,1.2047119
1632,A,5596010853688,-5.4417267,-10.409317,0.3768921,2.7642517,0.07485962,2.727188
1632,A,5596061207691,-5.632126,-14.224411,2.368988,1.5151062,1.8113403,2.6252441
1632,A,5596111561695,-7.1943207,-16.08046,1.332901,1.192688,1.4775848,1.0610809
1632,A,5596161915699,-0.45967102,-15.780106,-1.0383453,0.56344604,-2.3686676,0.8079834
1632,A,5596212269703,5.8730774,-16.088562,2.0426025,0.55329895,-1.1344299,1.6556854
1632,A,5596262623707,2.639679,-9.716797,-2.313568,-0.17022705,-1.1421967,0.88887024
1632,A,5596312977711,-1.2088318,-4.88385,0.33810425,-0.9018707,-0.5281677,-0.27774048
1632,A,5596363331715,0.34036255,-3.7898407,-1.390686,-0.66174316,-0.9206085,-0.8305969
1632,A,5596413685719,3.724228,-1.4467468,-2.1867218,0.15760803,-1.2242126,1.0791016
1632,A,5596464039723,1.3250427,-3.3056183,1.258316,-0.00793457,3.0517578E-4,0.52879333
1632,A,5596514393727,-11.478897,-14.160614,17.953934,0.51808167,0.9334259,-0.3271637
1632,A,5596564747730,-6.637741,-14.029236,5.334839,-0.39033508,0.7342987,-1.5840454
1632,A,5596615101734,7.462509,-8.236267,-1.9624023,-1.8527832,-0.97831726,-2.1311493
1632,A,5596665455738,3.1033325,-8.6035,-5.2112274,-3.219925,-2.6782227,-1.1569824
1632,A,5596715789988,3.9571686,-6.66037,-4.191864,-0.48588562,0.92108154,-1.0923309
1632,A,5596766143992,0.2441864,-14.333496,-5.125763,-1.1526337,-0.011810303,0.027175903
1632,A,5596816497996,-2.4022217,-7.1187744,0.11997986,-0.55171204,1.5933685,-0.39840698
1632,A,5596866852000,-4.7334137,-9.639725,0.7754822,-0.40438843,0.6511841,-1.1796265
1632,A,5596917206004,-1.7024994,-7.7844086,2.439087,0.008972168,0.80122375,-0.70170593
1632,A,5596967560008,1.0755157,-10.268204,1.2471924,0.47947693,0.6636658,-0.138031
1632,A,5597017914012,-2.0402374,-9.411774,-0.27352905,1.9582672,0.3088379,0.9611969
1632,A,5597068268016,-5.5585785,-10.668655,0.30108643,2.1474304,-0.18676758,2.972992
1632,A,5597118622019,-4.7768097,-12.859161,3.5905914,1.6588745,1.3735199,2.6033936
1632,A,5597168976023,-5.702469,-13.03479,3.5117035,1.5065155,1.1221161,0.9298096
1632,A,5597219330027,-0.12088013,-14.997818,1.733902,0.6206665,-1.6495972,0.8258667
1632,A,5597269684031,5.455536,-17.916199,3.3524323,0.2620697,-0.4373474,1.3980408
1632,A,5597320038035,3.194046,-10.459457,-0.5249634,-0.37789917,-1.1308594,0.98646545
1632,A,5597370392039,-0.57466125,-4.7211304,0.07040405,-1.3439331,-0.88983154,-0.29345703
1632,A,5597420746043,-0.3993225,-3.9328308,-1.3085938,-1.2088165,-1.2100067,-0.6363983
1632,A,5597471100047,3.3107452,-1.6156158,-2.9466248,0.45950317,-0.7756653,1.260498
1632,A,5597521454051,-0.14057922,-2.6578522,2.4412384,0.6739807,0.12411499,0.7384796
1632,A,5597571808055,-9.460037,-11.681931,13.503876,0.54881287,1.2647705,-0.49035645
1632,A,5597622162059,-7.4573975,-15.582031,7.905411,-0.85980225,0.68992615,-1.8402405
1632,A,5597672516062,5.6756134,-5.897873,-0.8496704,-1.9113159,-0.4164734,-1.9291534
1632,A,5597722870066,3.387268,-10.2938385,-3.7221375,-2.2884827,-1.2375488,-1.0790558
1632,A,5597773224070,3.9906158,-7.494339,-4.603409,-1.1232147,0.9857483,-1.1522064
1632,A,5597823578074,1.4855804,-12.548248,-3.8190918,-1.2330017,-0.14253235,-0.18182373
1632,A,5597873932078,-2.1107178,-8.743164,0.3359375,-0.7230835,1.1070709,-0.68577576
1632,A,5597924286082,-4.2223206,-9.084564,1.7109833,-0.48641968,1.0011444,-1.150116
1632,A,5597974640086,-2.8563385,-7.356003,0.6758728,-0.13156128,0.89608765,-0.854599
1632,A,5598024994090,-0.05870056,-9.634262,2.9736176,0.43940735,0.37971497,0.017333984
1632,A,5598075348094,-1.4150391,-9.718414,0.66152954,1.7369537,0.33818054,1.1664734
1632,A,5598125702098,-4.7204895,-10.930908,0.44459534,2.4291992,-0.09208679,2.8262482
1632,A,5598176056101,-5.6054077,-13.116638,3.9529877,2.0115967,1.0087738,2.5164948
1632,A,5598226410105,-4.5424957,-15.1884,6.1276093,1.8241119,2.1756134,0.70025635
1632,A,5598276764109,-0.07827759,-15.796753,0.51342773,0.89250183,-1.4633789,0.7559967
1632,A,5598327118113,2.8809204,-15.722122,1.4249573,0.63053894,-0.85331726,1.2250214
1632,A,5598377472117,1.7978363,-11.106888,0.78793335,-0.2602539,-0.7578888,0.9868622
1632,A,5598427826121,-1.0104218,-5.593384,-1.9323883,-1.3688965,-0.4402008,-0.27677917
1632,A,5598478180125,-0.8261566,-3.5544586,-1.2675476,-1.0575867,-0.23554993,-0.56565857
1632,A,5598528534129,3.7911987,-1.6810608,-2.6754456,0.4276886,-0.007858276,0.87677
1632,A,5598578888133,0.95910645,-2.9982758,1.6255035,0.8404083,-0.21321106,0.80937195
1632,A,5598629242137,-10.393158,-11.1506195,8.25592,0.49160767,0.95140076,-0.43997192
1632,A,5598679596141,-11.472641,-12.721817,6.170624,-0.5142212,0.5293884,-1.4979248
1632,A,5598729950144,1.8244934,-8.660965,1.5488739,-1.4056091,-0.6330719,-1.6009979
1632,A,5598780304148,2.8167572,-12.445679,-0.15222168,-2.9401245,-1.6685791,-0.9714508
1632,A,5598830658152,4.1564026,-6.74321,-4.7226563,-2.5003967,-0.14170837,-0.95780945
1632,A,5598881012156,1.3756104,-12.835068,-4.9206543,-0.92100525,-0.08554077,-0.2571106
1632,A,5598931366160,-0.40124512,-9.035065,6.248749,-0.9134369,0.84036255,-0.43118286
1632,A,5598981720164,-0.9864197,-6.968094,9.967636,-0.76753235,0.57640076,-0.90223694
1632,A,5599032074168,-3.488205,-8.36409,-1.1589813,-0.47029114,0.38174438,-0.75387573
1632,A,5599082428172,-0.9563904,-8.8541565,0.53564453,0.23866272,0.578949,-0.282135
1632,A,5599132782176,-1.8138275,-10.001831,0.85928345,1.3806,0.8198395,0.5496826
1632,A,5599183136180,-4.326187,-10.942474,1.2333069,2.2701569,-0.072387695,2.0797424
1632,A,5599233490184,-4.83342,-12.74292,0.94558716,2.0216064,0.94244385,2.4187164
1632,A,5599283844187,-5.8232117,-14.0026245,1.2273407,1.606369,1.8480377,1.4459534
1632,A,5599334198191,-5.557266,-14.083969,-1.485321,1.3437195,-0.45991516,0.82077026
1632,A,5599384552195,1.9951324,-16.158585,0.21937561,1.0123444,-1.0573578,0.8388214
1632,A,5599434906199,6.122711,-14.476913,1.3727722,0.36018372,-0.46907043,1.0608978
1632,A,5599485260203,1.7509918,-7.454834,-1.4382782,-0.77008057,-0.45458984,0.1778717
1632,A,5599535614207,-1.8009338,-3.909027,-1.4273529,-1.3467255,-0.26268005,-1.0026398
1632,A,5599585968211,0.8875122,-3.084198,-2.0430145,-0.25056458,-1.2812653,0.25386047
1632,A,5599636322215,2.6421661,-2.541748,-1.1981354,0.5602417,-1.3639221,1.2412872
1632,A,5599686676219,-8.10083,-7.9104004,8.380569,0.6956482,0.2190857,0.42242432
1632,A,5599737030223,-12.033493,-15.065903,12.032822,0.20697021,1.0285339,-0.73825073
1632,A,5599787384226,-0.78915405,-10.580597,2.3766785,-1.0173645,0.35353088,-1.9946136
1632,A,5599837738230,4.334961,-7.5221252,-2.5223389,-2.3917847,-1.465683,-1.721405
1632,A,5599888092234,4.602371,-7.521866,-3.5542297,-1.8079224,0.24983215,-1.2756653
1632,A,5599938446238,3.6764984,-10.101837,-4.9182434,-1.1446228,0.50283813,-0.68711853
1632,A,5599988800242,0.014770508,-11.132126,-2.4061127,-1.1062012,0.20507813,-0.15171814
1632,A,5600039154246,-3.0128784,-9.884811,1.8138428,-0.74476624,0.7529907,-0.6339874
1632,A,5600089508250,-3.6486206,-8.379013,2.0828552,-0.52578735,0.9112396,-1.0737915
1632,A,5600139862254,-1.874176,-7.528763,1.328659,-0.061553955,0.97047424,-0.74972534
1632,A,5600190216258,-0.28170776,-9.220352,1.0991364,0.9463806,0.8588562,-0.18785095
1632,A,5600240570262,-0.7567444,-10.271118,1.6215973,2.2304077,-0.19503784,1.3553772
1632,A,5600290924266,-5.212509,-10.840515,1.5422668,1.9853821,-0.53479004,2.8170013
1632,A,5600341278269,-7.489456,-13.592804,3.643753,1.6059113,2.2757416,1.9618378
1632,A,5600391632273,-3.896698,-13.693893,6.2029266,1.2432251,1.2491455,0.8796692
1632,A,5600441986277,-0.41882324,-14.375305,1.9690094,0.86068726,-0.8607025,0.6214142
1632,A,5600492340281,2.3438263,-16.004852,4.1970215,0.35169983,-1.0477753,1.2430878
1632,A,5600542694285,2.6920013,-10.925262,0.63201904,-0.42611694,-1.0097809,1.1183167
1632,A,5600593048289,-0.48928833,-5.202194,-1.9580994,-1.1530914,-1.2864075,-0.07418823
1632,A,5600643402293,-1.3216705,-4.03891,-1.9931946,-0.828598,-0.21426392,-0.6096649
1632,A,5600693756297,1.72435,-3.4569855,-2.4431305,0.2501068,-1.6396332,1.0396881
1632,A,5600744110301,0.41929626,-3.8719482,1.613678,0.7458801,-0.76242065,0.9198761
1632,A,5600794464305,-12.841888,-12.677551,13.515701,-0.04537964,-0.48286438,0.047424316
1632,A,5600844818309,-8.115387,-12.508499,11.055908,-1.0364227,1.0840912,-1.3851471
1632,A,5600895172312,-2.6703796,-16.322083,9.337677,-2.281021,0.43589783,-2.3812714
1632,A,5600945526316,4.2454987,-5.6019135,0.23699951,-2.0706177,0.5325775,-2.1314392
1632,A,5600995880320,7.8558807,-7.5035095,-5.8384857,-1.5699158,-0.29689026,-1.0920105
1632,A,5601046234324,1.8473206,-14.347488,-4.3573303,-1.3009644,0.034179688,-0.35992432
1632,A,5601096588328,-5.1873016,-12.902191,-0.43147278,-1.2312622,1.0244293,-0.3393097
1632,A,5601146942332,-4.0409546,-9.25029,1.0547943,-0.7841034,0.9425354,-0.9281616
1632,A,5601197296336,-2.4480438,-7.013321,0.037261963,-0.1885376,1.2965851,-1.2275085
1632,A,5601247650340,-0.24954224,-8.21965,1.3829651,0.11167908,0.9254303,-0.42692566
1632,A,5601298004344,-0.3018341,-9.955658,1.2728271,1.5940247,0.3960266,0.71617126
1632,A,5601348358348,-3.4748535,-10.620804,1.8591766,2.745819,0.061462402,2.3638458
1632,A,5601398712351,-6.3454742,-11.666702,3.2671814,1.8593445,1.7319336,2.4072418
1632,A,5601449066355,-8.461029,-15.693863,6.6956177,1.3170471,1.2609711,1.5714569
1632,A,5601499420359,-3.6137085,-15.819031,0.31158447,0.82029724,-1.5816345,0.7404022
1632,A,5601549774363,4.7124634,-17.688354,-0.33891296,0.5882721,-1.0161133,1.0606384
1632,A,5601600128367,6.3007965,-12.805283,0.5480957,0.06523132,-1.0546722,1.171936
1632,A,5601650482371,1.2850952,-6.1332855,-0.18539429,-0.88464355,-0.77427673,0.19543457
1632,A,5601700836375,-2.3714447,-4.0038605,-0.08093262,-1.1893921,-0.8494873,-0.9517212
1632,A,5601751190379,1.068634,-2.4027863,-1.5953674,-0.41419983,-0.21885681,0.2776184
1632,A,5601801544383,2.460205,-3.1713562,-0.43119812,0.13812256,-0.4848938,0.9920807
1632,A,5601851898387,-5.7860413,-7.5967865,8.675705,0.82670593,0.8269501,0.69052124
1632,A,5601902252391,-17.242111,-17.24199,5.4165344,-0.13206482,1.1007233,-0.95448303
1632,A,5601952606394,-0.45283508,-12.459503,-0.02003479,-0.9033356,0.25453186,-1.8732758
1632,A,5602002960398,5.486328,-10.448669,3.008667,-2.5805206,-1.7757721,-1.0713043
1632,A,5602053314402,4.7619324,-5.2066803,-2.6336365,-0.9336853,1.1930542,-1.2993469
1632,A,5602103668406,2.9324188,-12.014984,-4.512665,-1.143631,-0.4388275,-0.701355
1632,A,5602154022410,-0.31889343,-8.398224,-1.4052734,-0.9472351,0.11764526,-0.18362427
1632,A,5602204376414,-4.5249176,-10.136642,-1.10672,-0.8511963,1.1867065,-0.69070435
1632,A,5602254730418,-4.9632874,-8.329117,0.39476013,-0.60154724,0.84999084,-1.4368896
1632,A,5602305084422,-1.5752258,-7.5012054,0.9680023,-0.021728516,0.43518066,-0.52256775
1632,A,5602355438426,2.274994,-8.7009735,-0.07940674,1.1252136,0.4052124,0.1496582
1632,A,5602405792430,-3.525879,-10.128845,2.1215363,2.3336182,0.20732117,2.156723
1632,A,5602456146434,-7.273712,-11.619431,1.1925354,1.5274353,-0.7271118,2.8102112
1632,A,5602506500437,-8.662003,-15.00531,4.611191,2.1704712,4.4953766,1.3218994
1632,A,5602556854441,-0.64260864,-14.8013,4.162277,1.131607,-0.01020813,0.45483398
1632,A,5602607208445,1.4169769,-14.701462,-1.2287598,0.8741455,-1.1451416,0.8046875
1632,A,5602657562449,1.3458557,-15.630051,4.444275,0.4046173,-0.9624939,1.3858948
1632,A,5602707916453,1.84758,-8.44162,-2.7546692,-0.475235,-0.6099396,0.5858154
1632,A,5602758270457,-2.6067505,-4.6375885,0.8928375,-1.4424286,-0.9694214,-0.9672394
1632,A,5602808624461,1.752182,-2.9261627,-1.9957428,-0.08010864,0.8895874,0.057495117
1632,A,5602858978465,3.5027466,-1.2644043,-2.348465,0.7632599,-1.7375641,1.5019531
1632,A,5602909332469,-1.5093536,-4.019516,3.4331512,1.1893158,0.9719391,0.43643188
1632,A,5602959686473,-18.648254,-18.452301,10.75264,-0.15596008,0.033721924,-0.85220337
1632,A,5603010040476,-1.8238068,-4.8737793,2.1494904,-0.7774658,1.4335938,-2.1282043
1632,A,5603060394480,3.615158,-18.636337,10.422775,-2.5711212,-0.653595,-1.7549438
1632,A,5603110748484,5.00766,-2.7343597,-3.9190369,-2.3006897,0.32052612,-1.9337616
1632,A,5603161102488,6.372345,-12.794205,-6.9869995,-1.0920563,-1.4099579,-0.29673767
1632,A,5603211456492,-0.44866943,-11.315155,-2.9162903,-1.2792358,0.18701172,-0.23808289
1632,A,5603261810496,-2.8957977,-10.9943695,13.828949,-0.7033539,1.159668,-0.71817017
1632,A,5603312164500,-5.499359,-7.6500244,-1.4469604,-0.5052643,0.996048,-1.0709229
1632,A,5603362518504,-0.67918396,-9.551071,3.7216492,0.030151367,0.89585876,-0.8444977
1632,A,5603412872508,0.72813416,-9.123291,1.4421997,0.4071045,0.6084595,0.19169617
1632,A,5603463226512,-1.0807343,-9.700531,-0.77963257,2.2215576,0.18641663,1.2190552
1632,A,5603513580516,-7.228836,-11.382233,-0.15209961,2.3721924,-0.05873108,2.7609406
1632,A,5603563934519,-3.3431854,-14.084854,3.4893494,1.479538,2.3768158,1.888031
1632,A,5603614288523,-8.443848,-13.507034,-0.34535217,1.1369019,0.9825134,0.937088
1632,A,5603664642527,-0.80448914,-15.181229,-2.5370636,0.7748871,-1.995575,0.4209137
1632,A,5603714996531,7.6670227,-18.177643,3.842987,0.33828735,-0.3222046,1.4382019
1632,A,5603765350535,3.775238,-10.332703,-0.9530182,-0.107162476,-1.0960236,0.88423157
1632,A,5603815704539,-1.4515839,-5.5348663,-0.34677124,-0.8548279,-0.68045044,-0.19714355
1632,A,5603866058543,-1.3147888,-4.5715027,-1.0588837,-1.142334,-0.46539307,-0.9303436
1632,A,5603916412547,2.5645294,-1.3690643,-2.1853333,0.09074402,-0.8006439,1.0307922
1632,A,5603966766551,1.4743347,-2.3906403,-0.032684326,0.7896881,-0.91529846,1.1611023
1632,A,5604017120555,-9.703262,-10.5993805,11.146851,1.0778961,-0.044906616,0.73475647
1632,A,5604067474559,-13.587692,-19.204117,8.557709,-0.57670593,1.3505707,-1.6652222
1632,A,5604117828562,3.9453278,-15.534958,7.4293976,-2.5338135,-0.030181885,-2.9803162
1632,A,5604168182566,8.9747925,0.43530273,-0.9345856,-2.2245636,-0.8578186,-1.7720032
1632,A,5604218536570,7.466034,-7.136841,-5.4863586,-1.2738342,-1.7023315,-0.61924744
1632,A,5604268890574,1.8269501,-15.713287,-1.8801575,-0.9353485,-0.46502686,-0.20214844
1632,A,5604319244578,-3.771347,-8.4617,15.132614,-1.066864,0.98231506,-0.27511597
1632,A,5604369598582,-3.8696594,-8.092514,0.53637695,-0.7345886,0.61273193,-1.0674896
1632,A,5604419952586,-2.4411926,-7.05777,0.63287354,-0.13827515,1.1801147,-1.1563721
1632,A,5604470306590,1.0037079,-8.008759,1.7861328,0.312912,0.37857056,-0.114746094
1632,A,5604520660594,0.8718567,-9.327774,0.70539856,1.5236816,0.2232666,0.8199005
1632,A,5604571014598,-5.554062,-10.893326,1.9341583,2.3679352,0.5593872,2.572647
1632,A,5604621368601,-7.293747,-12.257874,2.9110413,1.3592682,1.2572174,2.4790802
1632,A,5604671722605,-6.6575317,-15.3776245,6.551712,1.3146973,1.978836,1.1503296
1632,A,5604722076609,1.7949524,-15.472275,3.4401093,0.7310791,-0.37532043,0.43138123
1632,A,5604772430613,4.2645416,-15.234833,0.71170044,0.5245514,-0.74664307,0.78926086
1632,A,5604822784617,3.020523,-10.454086,3.62883,0.04650879,-0.9144592,1.1433563
1632,A,5604873138621,0.10877991,-6.494507,-2.9479218,-0.77589417,-0.6935425,0.11946106
1632,A,5604923492625,-2.5983582,-4.032547,0.67276,-1.2058716,-0.45846558,-0.7313385
1632,A,5604973846629,1.8555603,-3.3585205,-1.7023621,-0.45620728,0.2616272,0.0415802
1632,A,5605024200633,2.0219727,-3.8847198,-0.48721313,0.29171753,-2.2258606,1.3343964
1632,A,5605074554637,-5.7461853,-7.851013,5.838623,-0.47911072,-0.91200256,0.09629822
1632,A,5605124908641,-15.424591,-16.544556,13.6436,0.41656494,0.20262146,-0.7149048
1632,A,5605175262644,-0.33580017,-7.5554504,3.5330658,-0.2531891,0.6452942,-1.2967682
1632,A,5605225616648,7.49144,-9.657333,-2.3844147,-1.690918,-0.34074402,-1.2803345
1632,A,5605275970652,3.129364,-8.701233,-3.6232147,-2.407608,-0.5011902,-0.87091064
1632,A,5605326324656,2.8144073,-8.199142,-4.1798706,-1.8436279,1.1061859,-1.1274719
1632,A,5605376678660,0.6237793,-12.546478,-3.6568604,-1.188385,-0.39764404,-0.4987793
1632,A,5605427032664,-0.83717346,-7.5417786,2.7212067,-0.9296875,1.0660095,-0.55841064
1632,A,5605477386668,-1.234726,-9.862045,10.489502,-0.4096527,0.55104065,-0.9336395
1632,A,5605527740672,-3.0384674,-8.227982,-0.19042969,-0.20223999,0.5775757,-0.75730896
1632,A,5605578094676,-0.5406189,-9.404678,2.7018433,0.32963562,0.4316864,-0.14503479
1632,A,5605628448680,-2.2000885,-9.688751,0.023544312,1.4263916,0.25209045,0.7840271
1632,A,5605678802684,-4.381775,-10.446472,1.5343018,2.3684387,-0.31622314,2.4470673
1632,A,5605729156687,-4.7988434,-12.227631,2.9823456,1.8447266,1.574646,2.3784485
1632,A,5605779510691,-4.5292206,-13.673737,4.80159,1.7211304,3.5980988,0.638916
1632,A,5605829864695,-1.7811127,-12.780151,2.5756226,1.2154388,0.04673767,0.42037964
1632,A,5605880218699,1.5675812,-15.0256195,1.0898895,0.7186279,-0.75694275,0.88952637
1632,A,5605930572703,2.771988,-14.510315,3.2642365,0.047805786,-0.7380676,0.901001
1632,A,5605980926707,0.34986877,-7.378586,-3.616455,-0.9282837,-0.75335693,-0.37322998
1632,A,5606031280711,-1.7307892,-4.1730194,0.16862488,-0.7388153,-1.0399323,-0.8144684
1632,A,5606081634715,2.2686615,-2.2647095,-2.9245758,0.5772705,-1.0838165,0.69114685
1632,A,5606131988719,1.3736267,-1.9038239,-0.7642975,0.47451782,-0.12820435,0.99897766
1632,A,5606182342723,-8.463699,-9.570847,6.1698914,0.004760742,0.36958313,-0.18545532
1632,A,5606232696726,-10.704071,-13.746841,8.809738,-0.8495331,0.4624176,-1.0906067
1632,A,5606283050730,2.8621216,-8.41156,2.8139648,-1.3396606,-0.15966797,-1.574585
1632,A,5606333404734,1.7180481,-11.935623,-1.214859,-1.7441254,-1.0996399,-1.261261
1632,A,5606383758738,4.3964233,-9.011581,-3.430664,-1.305603,-0.75346375,-0.96980286
1632,A,5606434112742,2.2306366,-11.559387,-3.308136,-1.2315369,-0.8594055,-0.41574097
1632,A,5606484466746,-1.8226929,-9.160904,-1.2299957,-1.0211334,0.38131714,-0.2774048
1632,A,5606534820750,-3.4760284,-8.779907,0.7900543,-0.77412415,0.9010925,-0.7474518
1632,A,5606585174754,-2.6938171,-7.9694977,1.182663,-0.28785706,1.1080933,-0.9205475
1632,A,5606635528758,-0.10147095,-9.254181,1.417572,0.27253723,0.8022461,-0.30802917
1632,A,5606685882762,0.5928192,-9.807114,1.2245331,1.4745178,0.22299194,0.8730469
1632,A,5606736245814,-3.919876,-9.688904,0.56204224,2.344284,-0.22840881,2.247528
1632,A,5606786599817,-6.021698,-11.937698,2.8936768,1.6576691,2.3768463,1.9613037
1632,A,5606836953821,-5.310135,-14.48114,3.4910736,1.110199,3.0922546,0.76264954
1632,A,5606887307825,-4.3328247,-14.701141,-0.81573486,1.0962524,-0.5786743,0.6335449
1632,A,5606937661829,1.8695831,-15.770218,2.2794342,0.87028503,-1.188324,0.9700928
1632,A,5606988015833,4.8667145,-13.588165,3.0065002,0.14117432,-0.8343353,1.0622253
1632,A,5607038369837,0.9873657,-6.45726,-2.013916,-0.77211,-0.9615326,0.035476685
1632,A,5607088723841,-1.2749176,-3.528839,-0.6548004,-0.84091187,-0.87779236,-0.87698364
1632,A,5607139077845,2.012619,-3.3963013,-2.0661926,-0.1138916,-1.0864258,0.11785889
1632,A,5607189431849,2.462204,-2.8096619,-0.41737366,0.16618347,-0.76338196,0.88308716
1632,A,5607239785853,-6.4417725,-10.14653,10.00087,0.007980347,0.7133026,0.23100281
1632,A,5607290139857,-9.307861,-14.643295,12.932831,-0.2723236,0.95274353,-0.49449158
1632,A,5607340493860,0.43121338,-8.670639,-0.1671753,-0.64016724,0.3721161,-1.1509094
1632,A,5607390847864,4.136627,-12.768433,-6.2438507,-1.959549,-0.8598633,-1.1671906
1632,A,5607441201868,3.3630676,-12.13002,-4.2717896,-1.8583984,-0.8930664,-1.1372833
1632,A,5607491555872,2.7386322,-9.84227,-4.3268585,-1.2932739,-0.24838257,-0.66856384
1632,A,5607541909876,0.5028534,-10.388809,-3.093567,-1.1767273,0.5710449,-0.28347778
1632,A,5607592263880,-3.4579468,-8.194214,-2.0510254,-0.7190399,0.8395386,-0.6177826
1632,A,5607642617884,-3.5168304,-8.861755,0.31184387,-0.5228729,0.6907654,-0.9389038
1632,A,5607692971888,-0.5988312,-9.190033,2.297882,-0.02633667,0.6599579,-0.7648773
1632,A,5607743325892,0.09741211,-9.128754,0.47595215,0.5656738,0.22599792,-0.008514404
1632,A,5607793679896,-1.5574493,-9.706375,0.78819275,1.8297424,-0.33900452,1.5797272
1632,A,5607844033899,-4.630722,-10.269379,1.6984558,2.254364,0.63700867,2.4536743
1632,A,5607894387903,-6.894928,-13.016861,3.469864,1.8831024,3.1004639,1.5811157
1632,A,5607944741907,-3.8563843,-14.631027,6.040909,1.0496216,1.1910858,0.6833801
1632,A,5607995095911,1.4592896,-14.767731,0.97428894,0.63964844,-0.76634216,0.78541565
1632,A,5608045449915,0.93548584,-14.1840515,1.9970245,0.49397278,-0.94203186,1.0839996
1632,A,5608095803919,0.6126251,-10.487518,-0.46603394,-0.408844,-0.8947449,0.55259705
1632,A,5608146157923,-2.0114594,-5.871063,-0.63012695,-1.2802277,-0.99983215,-0.57658386
1632,A,5608196511927,-0.31567383,-3.459961,-0.9033966,-0.74650574,0.12634277,-0.4086609
1632,A,5608246865931,2.0820465,-3.064865,-1.9075928,0.24182129,-0.94725037,0.87376404
1632,A,5608297219935,-0.687912,-4.4143066,0.80633545,-0.38024902,-1.396225,0.61383057
1632,A,5608347573939,-12.315811,-14.371841,8.43985,-0.3482666,-0.15922546,0.07128906
1632,A,5608397927942,-7.109558,-9.826263,6.950638,0.20559692,0.47964478,-0.55407715
1632,A,5608448281946,3.9356537,-7.4156036,-2.4796143,-0.2160492,0.21658325,-1.0791779
1632,A,5608498635950,2.6342468,-12.666428,0.14752197,-1.5766296,-0.97735596,-0.95350647
1632,A,5608548989954,2.9273682,-9.110062,-1.25,-3.0195923,-0.65574646,-1.086441
1632,A,5608599343958,2.7700958,-10.820847,-4.3449707,-1.3378601,0.34988403,-0.7464142
1632,A,5608649697962,0.002670288,-9.985275,-3.3565674,-0.8764343,0.83758545,-0.55088806
1632,A,5608700051966,-2.6794128,-8.381485,1.0629272,-0.8350525,0.3768158,-0.9591522
1632,A,5608750405970,-3.789734,-8.654999,-1.7927246,-0.53637695,0.6673279,-1.1322632
1632,A,5608800759974,-1.7669983,-8.638824,-1.3143158,0.09005737,0.57884216,-0.56811523
1632,A,5608851113978,-0.21817017,-9.329987,1.4030609,0.8768463,0.43011475,0.008102417
1632,A,5608901467982,-3.985199,-10.75235,0.7408142,2.3437195,-0.2627411,1.7395782
1632,A,5608951821985,-4.8384705,-10.80365,1.0023041,2.4293518,-0.11273193,2.7851868
1632,A,5609002175989,-6.5270844,-14.079514,3.985611,2.043167,4.1226196,1.2574005
1632,A,5609052529993,-3.67305,-13.863541,4.6663513,1.105896,0.0753479,0.6496582
1632,A,5609102883997,1.2492523,-14.673889,-0.11212158,0.8919983,-0.8533478,1.2163696
1632,A,5609153238001,0.16714478,-15.690155,3.2799377,0.44332886,-0.96009827,1.328949
1632,A,5609203592005,-0.09222412,-9.453308,-1.786972,-0.66711426,-0.6588898,0.59059143
1632,A,5609253946009,-2.135727,-5.82283,-0.90763855,-1.553482,-1.1629486,-0.98609924
1632,A,5609304300013,1.0107269,-2.7375793,-2.6920319,-0.3283081,0.9407196,-0.33572388
1632,A,5609354654017,4.1349335,-1.3535919,-2.783371,0.65556335,-1.1669922,1.0705566
1632,A,5609405008021,-0.22064209,-3.7468567,3.7485352,-0.054382324,-0.32867432,0.013122559
1632,A,5609455362024,-15.992798,-16.298752,8.671524,-0.1138916,0.12635803,-0.56088257
1632,A,5609505716028,-3.5335388,-6.3362427,3.8492584,-0.19075012,0.93844604,-1.6922607
1632,A,5609556070032,4.3225403,-16.080719,15.854065,-1.5810852,-1.8763275,-1.3531342
1632,A,5609606424036,4.6777496,-4.8387604,0.9395447,-3.717041,-0.33502197,-1.350647
1632,A,5609656778040,4.587799,-8.447296,-5.8947296,-1.6098633,-1.0623627,-0.8050842
1632,A,5609707132044,0.39593506,-12.857437,-4.434433,-0.9916687,0.39768982,-0.20957947
1632,A,5609757486048,1.6090393,-7.5084076,15.212982,-0.92593384,0.8163147,-0.7502136
1632,A,5609807840052,-4.1239624,-8.6423645,1.6781158,-0.5752716,0.83073425,-1.1583862
1632,A,5609858194056,-1.6685791,-7.706772,0.33995056,0.1800232,0.99502563,-0.82095337
1632,A,5609908548060,1.021286,-9.345612,0.36723328,0.33616638,0.119888306,0.09176636
1632,A,5609958902064,-0.44883728,-11.0373535,4.0202484,2.3224945,-0.5051422,1.8553162
1632,A,5610009256067,-7.189575,-10.658142,-0.51112366,2.4122162,-0.5377655,3.1657715
1632,A,5610059610071,-6.2610626,-14.083145,2.4785614,1.3215942,4.5778656,0.8820343
1632,A,5610109964075,-3.4615936,-14.842346,4.40802,0.95762634,-0.04170227,0.70614624
1632,A,5610160318079,0.9684143,-14.883347,-1.8673248,1.0163116,-1.3818665,1.1614532
1632,A,5610210672083,3.7466736,-16.690338,7.423645,0.6833801,-1.2607117,1.4943085
1632,A,5610261026087,0.8171387,-9.761124,-6.088684,-0.7335663,-0.37609863,0.88316345
1632,A,5610311380091,-3.8499908,-5.2725525,0.87475586,-1.5314636,-0.30848694,-0.5592346
1632,A,5610361734095,2.744812,-3.1938934,-2.3218231,-0.60643005,-0.073028564,-1.184372
1632,A,5610412088099,5.354309,-1.888092,-2.2366486,0.3393402,-1.4876251,1.0257874
1632,A,5610462442103,0.8262787,-3.5486908,0.85601807,0.15037537,0.12541199,0.30589294
1632,A,5610512796107,-15.490646,-17.788269,17.598053,0.19490051,1.0483856,-0.14723206
1632,A,5610563150110,-5.806717,-13.207169,8.365387,-0.26921082,0.529953,-0.98805237
1632,A,5610613504114,5.139435,-5.5356903,-5.961197,-0.7092743,0.8685913,-1.9681702
1632,A,5610663858118,2.1539612,-18.152908,-3.5978088,-2.12529,-1.8832397,-1.0940247
1632,A,5610714212122,4.1003723,-4.463455,-2.7940826,-3.1358643,0.27114868,-1.3754425
1632,A,5610764566126,4.065201,-14.301865,-4.7695923,-1.0148773,-0.4181366,-0.43370056
1632,A,5610814920130,-0.12286377,-8.271515,-2.965622,-0.850296,0.4948578,-0.4275818
1632,A,5610865274134,-3.1735687,-7.780243,12.31514,-0.42463684,1.1178589,-1.0563507
1632,A,5610915628138,-2.8188324,-8.202042,-1.5910645,-0.24884033,1.1947784,-1.1653137
1632,A,5610965982142,0.49086,-9.536758,2.3416748,0.098739624,0.2150116,0.25872803
1632,A,5611016336146,1.1246948,-9.428207,1.9741364,1.5294037,0.5301056,0.55459595
1632,A,5611066690149,-7.623535,-10.859985,0.2381134,2.770279,-0.07362366,2.5692291
1632,A,5611117044153,-2.7864227,-11.804535,3.0293274,1.5165253,1.9089508,2.387619
1632,A,5611167398157,-5.244919,-14.964905,10.6642,1.2338715,1.4463806,1.289032
1632,A,5611217752161,-0.1736908,-13.510956,3.608307,0.77505493,-2.006424,0.71217346
1632,A,5611268106165,5.819626,-18.142975,-0.5307312,0.7072754,-0.6274109,1.4708405
1632,A,5611318460169,3.715866,-11.570984,1.5541687,0.030975342,-0.9699249,1.2107544
1632,A,5611368814173,-0.50161743,-5.3236237,-0.28279114,-1.10672,-0.47817993,0.1771698
1632,A,5611419168177,-0.3849182,-4.826294,-0.8592682,-1.5276337,-1.0934753,-1.1345062
1632,A,5611469522181,3.083435,-2.6147614,-2.6725616,-0.16662598,1.0470428,0.050109863
1632,A,5611519876185,2.6066284,-3.386856,-0.36068726,0.88653564,-1.2904663,1.2235107
1632,A,5611570230189,-4.771469,-7.1868744,5.4147034,0.4967041,0.50216675,-0.13339233
1632,A,5611620584192,-18.32283,-18.421967,10.439117,-0.45787048,0.19515991,-1.1324463
1632,A,5611670938196,1.6014862,-6.426895,3.4660187,-0.8423462,0.36439514,-1.8700104
1632,A,5611721292200,6.590805,-18.1185,8.945999,-2.136673,-1.4689636,-0.9324646
1632,A,5611771646204,4.2521057,-4.8324738,-3.8425293,-2.5421448,0.5190277,-1.1503754
1632,A,5611822000208,3.72023,-14.205368,-4.187668,-1.1383972,-0.4468689,-0.45321655
1632,A,5611872354212,-0.2979126,-8.741867,-0.9758301,-0.739624,0.39163208,-0.53134155
1632,A,5611922708216,-0.24461365,-7.643036,11.494186,-0.6378479,0.8886261,-0.9097595
1632,A,5611973062220,-3.5945892,-8.272079,-0.7958832,-0.12184143,1.0910034,-0.9151459
1632,A,5612023416224,-0.43641663,-8.447327,1.7804565,0.2624054,0.938385,-0.58825684
1632,A,5612073770228,-4.7302246E-4,-9.858139,1.1402283,1.0267181,0.6155853,0.23971558
1632,A,5612124124232,-2.218628,-10.390747,0.056747437,2.7939453,0.894577,1.6805115
1632,A,5612174478235,-7.4863586,-11.213516,-0.3659668,1.6497498,1.0547638,2.9248657
1632,A,5612224832239,-4.5930176,-13.380127,3.8537903,1.0367432,3.4089203,1.5274353
1632,A,5612275186243,-5.561783,-12.958435,-0.83917236,0.819046,-0.5936737,0.94789124
1632,A,5612325540247,-0.030883789,-14.542496,-0.2819519,0.67692566,-1.1535034,0.9313965
1632,A,5612375894251,4.0828094,-15.267685,8.187546,0.060150146,-1.0440979,1.3955536
1632,A,5612426248255,3.1007385,-8.123245,-2.9631653,-0.8414612,-1.1900787,0.7500458
1632,A,5612476602259,-0.37277222,-4.3509827,-0.20309448,-1.4463959,-0.9658661,-0.6089783
1632,A,5612526956263,0.5602722,-3.7784119,-1.70018,-0.3882141,-0.60946655,-0.40257263
1632,A,5612577310267,3.294632,-2.9792633,-1.897583,0.5095825,-1.7003021,1.1247711
1632,A,5612627664271,-3.1927948,-6.547653,4.2291718,0.06538391,0.008956909,0.0960083
1632,A,5612678018274,-14.258621,-17.383041,14.933395,-0.3310852,0.5071106,-0.6722412
1632,A,5612728372278,-0.7926483,-10.716782,4.8333893,-1.0207672,1.0717316,-1.9164276
1632,A,5612778726282,6.8671417,-11.82196,-3.421646,-2.1625214,-0.7354431,-1.9869385
1632,A,5612829080286,5.3076477,-6.674103,-3.2551575,-2.6417236,-0.7234192,-1.604599
1632,A,5612879434290,4.148346,-10.179932,-4.0788116,-0.90252686,-0.2916565,-0.6446991
1632,A,5612929788294,-1.3580322,-12.433105,-1.2644043,-1.0142975,0.070236206,-0.15982056
1632,A,5612980142298,-4.16774,-9.34671,4.4686584,-0.6286316,1.2327118,-0.66322327
1632,A,5613030496302,-4.6838837,-8.10907,-1.4750671,-0.21784973,0.8617554,-1.1042023
1632,A,5613080850306,-0.56851196,-7.5884857,1.1376038,0.14544678,1.0367432,-0.7093506
1632,A,5613131204310,1.3357239,-9.836136,1.8580322,1.0200958,0.37345886,0.46037292
1632,A,5613181558314,-1.6253204,-10.113846,0.90065,2.5608826,-0.04498291,1.9096832
1632,A,5613231912317,-6.742111,-12.309128,0.16867065,1.9879913,1.0500336,2.5049744
1632,A,5613282266321,-5.087555,-14.862518,3.0874634,0.90393066,2.614502,1.2177582
1632,A,5613332620325,-5.653366,-15.119278,-0.06941223,1.0322571,-0.5585785,0.8424988
1632,A,5613382974329,0.6008301,-15.595612,-1.5249023,0.7202759,-1.5135803,1.0559692
1632,A,5613433328333,4.749481,-15.834671,4.8406525,0.23252869,-0.8475952,1.4241791
1632,A,5613483682337,2.381012,-8.101273,-1.4616394,-0.5881195,-0.89671326,0.4935608
1632,A,5613534036341,-0.59594727,-3.9483185,-0.09751892,-0.84880066,-0.46710205,-0.61854553
1632,A,5613584390345,2.1273193,-2.2229462,-2.3263092,0.2434845,-0.77189636,-0.09701538
1632,A,5613634744349,2.947113,-1.6399841,-1.5322266,0.293396,-1.6460876,1.1609802
1632,A,5613685098353,-5.4880676,-8.255981,6.713806,-0.015655518,-0.05329895,-0.090911865
1632,A,5613735452357,-13.826782,-15.598328,14.419708,0.3395996,0.5502167,-0.85873413
1632,A,5613785806360,1.8425903,-9.118027,3.2269287,-0.8171234,0.9230194,-1.680481
1632,A,5613836160364,7.3910522,-8.83963,-2.2051544,-2.414215,-0.78118896,-1.8807373
1632,A,5613886514368,3.5425415,-5.8929596,-4.5960083,-2.1858673,-1.0465546,-1.2985535
1632,A,5613936868372,4.0137024,-9.14476,-4.3707123,-0.7786865,0.5066376,-1.0212708
1632,A,5613987222376,0.96810913,-12.581604,-3.3581848,-1.1746368,-0.27131653,-0.3847351
1632,A,5614037576380,-3.6092682,-8.41127,-1.5515594,-0.68325806,0.7912445,-0.784317
1632,A,5614087930384,-5.6960907,-9.007385,-1.4072113,-0.2641449,0.6511383,-1.1374054
1632,A,5614138284388,-0.81526184,-8.037048,1.7167969,0.07128906,0.76257324,-0.610199
1632,A,5614188638392,1.2297058,-9.150497,1.7939148,1.0300293,0.5138397,0.40023804
1632,A,5614238992396,-2.3182526,-10.586014,1.3858185,2.311676,0.19680786,1.9784241
1632,A,5614289346399,-5.696701,-12.476395,1.0561829,1.7793427,1.104248,2.7430878
1632,A,5614339700403,-5.23645,-14.126404,2.8043518,1.0350189,1.6573944,1.6938477
1632,A,5614390054407,-4.7543335,-15.131821,0.81907654,1.0916138,-0.89871216,0.98872375
1632,A,5614440408411,2.9673615,-17.491394,0.9811096,0.91108704,-1.6233063,1.1867218
1632,A,5614490762415,6.773224,-14.827698,1.7612457,0.1660614,-0.48362732,1.4295502
1632,A,5614541116419,2.504181,-6.5157166,-0.812088,-0.8981476,-0.43862915,0.4734192
1632,A,5614591470423,0.14935303,-3.8774872,-0.9559784,-1.2382355,-0.52526855,-0.7533264
1632,A,5614641824427,2.74617,-3.6714935,-2.6138153,-0.36972046,-0.9924927,-0.080947876
1632,A,5614692178431,3.1693115,-2.6116638,-1.5753937,0.47155762,-0.6477051,0.9589844
1632,A,5614742532435,-5.504547,-8.167099,7.9252625,0.75497437,-0.47433472,0.48709106
1632,A,5614792886439,-10.891022,-14.972351,12.899841,0.16069031,0.28312683,-0.7743683
1632,A,5614843240442,-2.7238922,-17.00148,7.6875153,-1.6698914,0.44369507,-2.2682495
1632,A,5614893594446,5.1565704,-9.632782,0.433136,-3.126892,-0.9124603,-2.0202332
1632,A,5614943948450,8.411896,-4.5040894,-5.8468933,-2.2021637,-0.15229797,-1.2162018
1632,A,5614994302454,5.5681305,-11.909027,-4.745941,-1.1306152,0.021148682,-0.6731262
1632,A,5615044656458,0.5183563,-10.882187,3.7531586,-1.0859985,-0.31443787,-0.48275757
1632,A,5615095010462,-3.1834717,-7.905075,4.3063354,-0.6919861,0.5887451,-0.73150635
1632,A,5615145364466,-4.0825043,-7.8675537,-0.6777649,-0.3257904,0.8909607,-0.8191681
1632,A,5615195718470,-2.5110931,-8.182251,0.68000793,-0.039505005,0.7303009,-0.42253113
1632,A,5615246072474,-0.69088745,-9.592697,1.8216095,1.3260345,0.7614441,0.5158539
1632,A,5615296426478,-0.38427734,-10.169754,1.5500336,2.477295,0.4025421,2.1554565
1632,A,5615346780482,-3.3239899,-11.629395,2.5794067,1.8818359,1.3563995,2.490326
1632,A,5615397134485,-6.2078094,-14.519608,5.0507507,1.3011932,1.4302368,1.5144501
1632,A,5615447488489,-3.1399536,-15.381363,0.9247589,1.1285706,-0.7654724,0.7985382
1632,A,5615497842493,4.694916,-17.496323,0.5626068,0.8157196,-0.97595215,1.1251221
1632,A,5615548196497,6.554596,-14.131744,2.0351715,0.3763275,-0.67918396,1.2777252
1632,A,5615598550501,2.1922302,-7.195236,-0.09310913,-0.4235077,-0.6516571,0.43751526
1632,A,5615648904505,-0.079559326,-5.0732117,-0.469635,-1.1164246,-0.7748108,-0.7390137
1632,A,5615699258509,1.9267578,-3.2787933,-1.6334686,-0.2768402,-0.7527008,0.0026550293
1632,A,5615749612513,2.689148,-1.644516,-1.6339874,0.52053833,-0.6775818,1.2068329
1632,A,5615799966517,-3.4710999,-5.178894,5.429535,1.128128,0.41452026,0.5156555
1632,A,5615850320521,-13.531738,-14.867783,11.0634,0.14196777,1.1047974,-0.9631653
1632,A,5615900674524,-2.2814484,-9.414246,7.5244446,-1.40065,0.6522827,-2.198166
1632,A,5615951028528,5.18013,-8.631058,-0.6819763,-2.510849,-1.541153,-1.5827942
1632,A,5616001382532,5.0533295,-6.7961273,-4.7171936,-1.4326782,0.0025939941,-1.1964722
1632,A,5616051736536,4.367569,-12.007507,-5.961258,-1.0042114,-0.67466736,-0.7079773
1632,A,5616102090540,0.7582245,-11.692749,-2.495041,-1.1147156,-0.0592041,-0.16081238
1632,A,5616152444544,-3.8449707,-9.840057,-2.6464844,-0.80718994,0.6852417,-0.72940063
1632,A,5616202798548,-3.976059,-8.330536,-0.55522156,-0.34368896,0.9762726,-1.1273804
1632,A,5616253152552,-0.5786896,-6.9646454,1.689331,0.010177612,0.8378906,-0.6896515
1632,A,5616303506556,1.0913696,-9.281982,1.5076294,0.45262146,0.47981262,0.0030212402
1632,A,5616353860560,-1.1254272,-10.464478,1.0465546,1.9060211,0.20724487,1.7770996
1632,A,5616404214564,-4.725769,-10.757141,0.7795868,1.7077026,-0.37513733,3.203949
1632,A,5616454568567,-5.819092,-13.369797,3.600937,1.6549377,2.6077118,1.5239105
1632,A,5616504922571,-1.7628937,-13.250473,6.6783295,1.1326294,0.37667847,0.6454468
1632,A,5616555276575,1.0289612,-15.2211,0.04248047,1.0455322,-1.4362793,0.81404114
1632,A,5616605630579,2.6422882,-15.81337,3.9209442,0.5524292,-1.016571,1.3371582
1632,A,5616655984583,2.4972992,-9.983337,-1.1557007,-0.41281128,-0.4603424,0.9544525
1632,A,5616706338587,-0.60931396,-5.4421844,-0.97624207,-1.1417694,-0.5755615,-0.29499817
1632,A,5616756697175,1.6000214,-3.1864471,-1.832489,-0.319458,0.10568237,-0.72068787
1632,A,5616807051179,3.457428,-2.7101135,-1.9204559,0.3629303,-1.458847,1.0105591
1632,A,5616857405183,1.023941,-4.044113,1.5082397,0.24847412,-0.45065308,0.20378113
1632,A,5616907759187,-14.15126,-15.874695,11.064316,0.3139801,-0.14195251,-0.08421326
1632,A,5616958113191,-5.6013184,-12.165634,8.643005,-0.39826965,1.8283539,-1.4656372
1632,A,5617008467194,1.7731628,-17.290848,9.571793,-1.8500671,-0.21795654,-2.6139984
1632,A,5617058821198,5.204239,-4.557068,-0.73999023,-3.5849762,-2.0414124,-2.1204681
1632,A,5617109175202,7.7822723,-6.562912,-4.8433685,-1.3025818,-0.65615845,-1.2213593
1632,A,5617159529206,2.5529022,-13.838181,-4.5235443,-0.93647766,-0.6644287,-0.20291138
1632,A,5617209883210,-1.5810394,-10.116928,8.085846,-0.9848175,0.9131775,-0.31323242
1632,A,5617260237214,-5.8138123,-9.108597,-1.0639343,-0.64279175,0.5207367,-1.025528
1632,A,5617310591218,-3.284729,-7.482147,-0.6060791,0.032608032,0.9511261,-1.1063995
1632,A,5617360945222,1.6690063,-8.453186,2.6087952,0.20431519,0.5014343,-0.19120789
1632,A,5617411299226,2.468277,-9.519806,3.3355713,1.9169922,0.02078247,0.83078
1632,A,5617461653230,-6.705826,-10.720657,-1.6017303,2.6314087,-0.27526855,2.8125763
1632,A,5617512007233,-4.1487427,-13.576004,1.9885406,1.321579,1.8074036,2.3719177
1632,A,5617562361237,-8.990845,-15.972794,1.2298737,1.1757202,1.326416,1.2092896
1632,A,5617612715241,-2.0609436,-17.144775,-2.833084,0.94807434,-1.4999695,0.6850128
1632,A,5617663069245,8.365112,-17.853516,3.242569,0.6862335,-0.5494995,1.5085907
1632,A,5617713423249,6.056717,-10.98053,0.3096466,-0.045150757,-0.8801575,1.2961121
1632,A,5617763777253,-0.0776062,-6.020294,0.36521912,-0.92430115,-0.6940155,0.107803345
1632,A,5617814131257,-0.32995605,-4.253357,-1.1791687,-1.3956451,-1.277771,-1.0792542
1632,A,5617864485261,2.489563,-1.7176056,-2.5336456,0.04748535,-0.7992096,0.82263184
1632,A,5617914839265,2.2957306,-2.2848053,-1.2841797,0.7800751,-1.4537201,1.1507416
1632,A,5617965193269,-6.040695,-8.495422,10.611465,0.52375793,0.37127686,-0.67581177
1632,A,5618015547273,-15.004684,-18.4944,10.833008,-0.25637817,0.2238617,-0.9019165
1632,A,5618065901276,-0.044067383,-1.314682,2.0634155,-0.27919006,1.5552063,-1.8191986
1632,A,5618116255280,4.2949066,-17.742538,17.531357,-2.3629456,-1.593399,-1.2584229
1632,A,5618166609284,3.0383606,-2.5012054,-2.9231873,-4.2789764,-0.8727722,-1.3374176
1632,A,5618216963288,5.4861603,-10.5959015,-6.3098297,-0.58473206,0.9604492,-1.1047211
1632,A,5618267317292,-0.04071045,-12.366608,-3.6306152,-1.074646,0.14970398,-0.2980194
1632,A,5618317671296,-1.5709229,-8.86554,1.4197998,-0.61239624,1.2064514,-0.8213959
1632,A,5618368025300,-5.7936096,-9.548874,-3.6289368,-0.3859558,1.3007965,-1.0575867
1632,A,5618418379304,-1.0478516,-7.104553,0.9786072,0.15383911,0.88972473,-0.6145172
1632,A,5618468733308,0.9073181,-11.073654,1.5500641,0.6433716,0.578537,0.19966125
1632,A,5618519087312,-1.0090027,-9.881744,1.8982697,2.6026459,-0.5622864,2.0587463
1632,A,5618569441316,-6.2493134,-10.334381,-0.10165405,1.8280487,-0.75775146,3.5498352
1632,A,5618619795319,-5.2759247,-14.644058,3.9575043,1.1547546,5.0815125,0.6883087
1632,A,5618670149323,-4.272705,-13.809723,3.074768,2.3603516,1.0119781,1.0245819
1632,A,5618720503327,0.55674744,-15.836975,-4.593628,0.5025482,-1.4672546,1.0138855
1632,A,5618770857331,4.018753,-17.821304,9.494354,0.32722473,-1.2914886,1.4367218
1632,A,5618821211335,1.8548889,-4.9980164,-12.450272,-0.6413269,-0.61828613,0.49630737
1632,A,5618871565339,-0.37278748,-5.7957916,0.72435,-1.3714294,-0.8856201,-0.76008606
1632,A,5618921919343,2.484726,-2.1772919,-2.3893433,0.21525574,0.32896423,-0.42422485
1632,A,5618972273347,3.8160248,-1.9089966,-1.6420898,0.6323395,-1.6865082,1.603775
1632,A,5619022627351,-0.7850342,-4.9025116,2.8270874,0.7442169,0.763504,0.2568512
1632,A,5619072981355,-18.039703,-18.800446,14.491211,-0.25857544,-0.7460785,-0.3986969
1632,A,5619123335358,-1.8230438,-8.54512,4.86026,-0.9984894,1.8797302,-2.354782
1632,A,5619173689362,-1.5061646,-18.220413,10.329971,-2.5754547,-1.477417,-2.0944366
1632,A,5619224043366,7.215149,0.41931152,-5.25679,-3.5630035,-0.29888916,-2.0514374
1632,A,5619274397370,8.916977,-12.859299,-7.033951,-1.0596466,-0.95602417,-0.44110107
1632,A,5619324751374,-0.25764465,-13.670502,-1.8539734,-0.94088745,-0.006378174,-0.096328735
1632,A,5619375105378,-2.9427948,-8.966629,16.312485,-0.7503967,1.2337799,-0.70355225
1632,A,5619425459382,-5.3151093,-8.470718,-1.8878021,-0.5048828,0.43237305,-1.1528015
1632,A,5619475813386,0.02519226,-6.854309,2.6455688,-0.0028381348,0.6911316,-0.8513794
1632,A,5619526167390,1.299118,-10.094589,0.22694397,0.543808,0.31158447,0.36354065
1632,A,5619576521394,0.22555542,-10.693497,0.642395,2.4404907,0.12658691,1.6796875
1632,A,5619626875398,-6.553055,-12.000381,0.07545471,2.3370209,-0.09927368,3.0646362
1632,A,5619677229401,-3.6203156,-14.796341,2.5419617,0.88775635,2.6985626,1.4949341
1632,A,5619727583405,-7.950943,-16.393845,-1.1260834,1.1227875,0.056671143,0.93937683
1632,A,5619777937409,1.2408905,-16.08957,-1.802597,1.2245941,-1.4373016,1.0146179
1632,A,5619828291413,9.752167,-17.73796,3.0081635,0.63375854,-0.94299316,1.6629486
1632,A,5619878645417,3.2270508,-9.73616,-2.2144928,-0.3212738,-0.7596741,0.7502136
1632,A,5619928999421,-2.1450043,-4.6952972,-0.78764343,-0.9139862,-0.7611084,-0.6616516
1632,A,5619979353425,2.7241821,-2.8503113,-2.6496735,0.2290802,-1.3156433,-0.86665344
1632,A,5620029707429,4.6096954,-0.76135254,-2.3650055,0.34822083,-1.1422119,1.3040161
1632,A,5620080061433,-0.5717163,-4.870697,3.3062897,0.27011108,0.16419983,0.40699768
1632,A,5620130415437,-13.630203,-17.856216,16.803162,0.5349426,0.39360046,-0.449646
1632,A,5620180769441,-1.7361603,-11.069443,4.157547,-0.5696564,0.5053253,-1.5023041
1632,A,5620231123444,6.858841,-5.416641,-2.3959503,-2.12529,-0.5752411,-1.9951935
1632,A,5620281477448,3.1224823,-6.2904205,-2.805893,-2.6125336,-1.7652283,-1.0029297
1632,A,5620331831452,5.035843,-7.100998,-4.3271637,-0.67878723,0.6801758,-1.3506317
1632,A,5620382185456,2.5968933,-14.594223,-4.645523,-1.2338867,-0.9276886,-0.25753784
1632,A,5620432539460,-1.1853638,-8.116852,-1.4275208,-0.88746643,0.9606018,-0.38761902
1632,A,5620482893464,-4.8342285,-9.977966,-1.9696198,-0.59794617,0.16108704,-1.0834045
1632,A,5620533247468,-2.248108,-7.2104034,0.88401794,-0.22608948,0.9003296,-0.8677063
1632,A,5620583601472,1.0334473,-8.76239,1.9729004,-0.007965088,0.53671265,-0.16609192
1632,A,5620633955476,0.2897339,-9.709656,1.0060272,0.9287262,0.5743561,0.6334381
1632,A,5620684309480,-2.7943726,-10.435059,0.20709229,2.1535797,0.3980713,2.2469635
1632,A,5620734663483,-3.819809,-12.314331,2.4654388,1.7788391,1.4240265,2.526291
1632,A,5620785017487,-2.4330444,-13.806824,5.095703,1.1432953,3.887619,0.5908661
1632,A,5620835371491,-0.84843445,-13.446167,2.417923,1.0962219,-0.69169617,0.75650024
1632,A,5620885725495,2.279419,-15.30719,0.16351318,0.993454,-1.2421112,1.2350616
1632,A,5620936079499,3.7342072,-15.389465,4.718399,0.3474884,-1.0496521,1.3196716
1632,A,5620986433503,-0.4419403,-7.3366547,-4.58786,-0.7602844,-0.2893219,0.39466858
1632,A,5621036787507,-1.5859222,-3.7522278,0.12693787,-1.2025452,0.04864502,-0.5966797
1632,A,5621087141511,3.4996033,-2.1598969,-2.6057892,-0.43130493,-0.40716553,-0.059524536
1632,A,5621137495515,3.0843048,-3.0117035,-1.0729523,0.6273804,-1.421936,1.0464478
1632,A,5621187849519,-5.34346,-9.315491,6.865967,0.26844788,0.12159729,-0.04386902
1632,A,5621238203523,-11.96611,-15.139053,13.891724,0.26498413,0.7179413,-0.33666992
1632,A,5621288557526,-0.235672,-9.239685,1.5884857,-0.6791229,0.8404236,-1.7210541
1632,A,5621338911530,4.5200043,-7.6842957,-4.1634674,-1.8246613,-0.7829895,-1.9546661
1632,A,5621389265534,4.199646,-8.797638,-2.2379608,-2.0130005,-0.5523834,-1.632782
1632,A,5621439619538,6.5356903,-8.59613,-3.9941711,-1.3699036,0.65766907,-1.4147339
1632,A,5621489973542,2.7213898,-10.651566,-3.7101593,-0.99035645,-0.85806274,-0.18537903
1632,A,5621540327546,-1.8836823,-10.218796,1.1024628,-0.78486633,0.7126312,-0.40585327
1632,A,5621590681550,-3.9454193,-9.32663,5.950821,-0.46276855,0.3388672,-1.1598663
1632,A,5621641035554,-1.5418701,-7.5555725,0.8508301,-0.0045166016,1.0713806,-0.7189636
1632,A,5621691389558,2.359726,-8.672699,1.3187408,0.5127716,0.70658875,0.14212036
1632,A,5621741743562,-0.48768616,-9.993179,1.6703186,1.5584412,0.6270447,1.2999268
1632,A,5621792097566,-5.495758,-11.741074,0.5013428,1.8039703,0.7207489,3.0847778
1632,A,5621842451569,-4.516556,-13.847626,4.9288635,1.1112518,1.5225677,2.605545
1632,A,5621892805573,-3.9164429,-14.777481,6.0203857,0.89675903,0.86572266,1.1105499
1632,A,5621943159577,3.535019,-16.074585,1.8828583,0.7751007,-1.1434937,1.0779266
1632,A,5621993513581,6.2095337,-15.505493,2.084488,0.8009949,-1.063736,1.3121796
1632,A,5622043867585,3.1429443,-8.671585,0.64585876,-0.0038146973,-0.78596497,0.65245056
1632,A,5622094221589,-0.6491852,-5.073715,-0.23854065,-1.0971069,-0.6083679,-0.5726013
1632,A,5622144575593,0.6710205,-3.3410034,-0.63272095,-0.7947998,-0.16070557,-0.38824463
1632,A,5622194929597,3.7349396,-1.3495178,-2.772583,0.36080933,-0.3299408,0.98561096
1632,A,5622245283601,0.9108887,-3.3787994,2.0810852,1.271225,-0.32273865,0.7292938
1632,A,5622295637605,-10.794373,-12.37796,8.545029,0.9604645,0.4058838,-0.51579285
1632,A,5622345991608,-9.402039,-10.520065,6.8501434,-1.0251312,0.45347595,-1.9583435
1632,A,5622396345612,3.3729706,-9.618454,5.1125946,-2.629486,0.2994995,-2.2027283
1632,A,5622446699616,4.964203,-9.818253,0.30792236,-1.9753113,-1.4170685,-1.0967255
1632,A,5622497053620,5.99292,-7.7031097,-8.171402,-1.1942444,-1.2349701,-0.78816223
1632,A,5622547407624,2.854309,-13.692047,4.9508057,-1.3994446,-0.051589966,-0.63345337
1632,A,5622597761628,-1.4038391,-10.045929,7.797714,-0.9515991,0.33270264,-0.6163635
1632,A,5622648115632,-2.9193726,-7.775177,-1.3363495,-0.5896301,0.7643585,-1.0129547
1632,A,5622698469636,-2.330185,-7.4219513,1.8552399,-0.16896057,1.0998993,-1.0356598
1632,A,5622748823640,-0.35534668,-8.495499,1.0103455,0.35534668,0.8186493,-0.297287
1632,A,5622799177644,1.4062042,-9.900131,1.8031616,1.5030212,0.6388092,1.4666138
1632,A,5622849531648,-4.0046844,-10.956223,2.056366,1.8630676,0.19567871,3.0505066
1632,A,5622899885651,-6.9611206,-13.533279,2.1977234,1.5478516,2.2853088,1.957077
1632,A,5622950239655,-1.2116852,-14.155518,5.0615997,1.3130493,1.5192413,0.5832367
1632,A,5623000593659,2.5492249,-14.517563,1.3963318,1.114563,-0.92277527,0.8153534
1632,A,5623050947663,3.8288422,-15.404587,3.1593933,0.6533356,-1.0596008,1.3575134
1632,A,5623101301667,2.916504,-10.860611,0.8048248,-0.3005066,-0.7065582,1.0143738
1632,A,5623151655671,-0.5419769,-5.681183,-1.1945801,-1.1313171,-0.87197876,-0.1078949
1632,A,5623202009675,0.70396423,-2.6651764,-1.5080566,-0.3107605,-0.05003357,-0.3250122
1632,A,5623252363679,3.3273926,-1.4940796,-2.6649933,0.61335754,-1.1894684,0.9322815
1632,A,5623302717683,0.8544769,-3.3509827,0.90756226,0.16268921,-1.1106567,0.28453064
1632,A,5623353071687,-12.34993,-13.55275,7.6693115,0.11038208,0.0129852295,-0.4093628
1632,A,5623403425691,-7.312729,-11.754166,8.422913,-0.02810669,1.5069885,-1.3858337
1632,A,5623453779694,6.655792,-12.950165,6.5056763,-1.4850922,0.2392273,-2.1420288
1632,A,5623504133698,6.8761444,-6.803772,-0.30000305,-3.233307,-1.8267059,-1.7707367
1632,A,5623554487702,6.4648895,-5.451416,-5.044281,-1.7386475,-0.9940033,-1.4250641
1632,A,5623604841706,4.057602,-12.191849,-4.500168,-0.9556732,-0.43528748,-0.5712433
1632,A,5623655195710,-0.042022705,-10.71228,2.4136505,-1.0665588,0.9036865,-0.350708
1632,A,5623705549714,-4.8006134,-9.056076,-0.61039734,-0.68907166,0.7478485,-1.0061493
1632,A,5623755903718,-3.6158905,-7.6092834,-0.674881,-0.105651855,0.9827118,-1.2197266
1632,A,5623806257722,1.0350037,-8.261902,1.6876373,-0.038085938,0.69114685,-0.5338898
1632,A,5623856611726,1.866333,-9.211014,1.6668701,0.99116516,0.57780457,0.32580566
1632,A,5623906965730,-3.897461,-10.565445,-1.0592194,2.2666626,1.2750854,2.4773865
1632,A,5623957319733,-4.540634,-12.86467,1.775116,1.6696014,0.38998413,3.4011993
1632,A,5624007673737,-4.9197693,-14.645401,9.402191,1.2676086,1.4636383,1.8712463
1632,A,5624058027741,-0.8418884,-14.312363,3.0583954,1.1969147,-0.46229553,0.8034973
1632,A,5624108381745,5.87236,-17.776215,3.1482544,0.60113525,-1.0890808,1.249115
1632,A,5624158735749,6.5083313,-13.681488,0.39857483,0.118377686,-1.2320099,1.3861542
1632,A,5624209089753,2.1160889,-6.217697,-1.1454773,-0.6631012,-0.8813019,0.43244934
1632,A,5624259443757,-0.4929657,-5.0127716,-0.77033997,-1.2292633,-0.96191406,-0.70961
1632,A,5624309797761,2.3656616,-2.2626953,-2.2525787,0.112091064,-1.7405548,0.66589355
1632,A,5624360151765,2.2774506,-0.6877289,-1.697403,0.45465088,-0.9193573,0.7855377
1632,A,5624410505769,-5.737137,-7.942215,10.526016,1.1620789,-0.09617615,0.39146423
1632,A,5624460859773,-9.273163,-16.893082,10.523132,0.17071533,0.90701294,-0.9386902
1632,A,5624511213776,4.2470703,-13.794678,6.0053406,-2.1354675,0.5541229,-2.6548767
1632,A,5624561567780,6.2463837,-4.000473,-6.300308,-2.9967346,-1.512558,-1.3713074
1632,A,5624611921784,6.616806,-3.325653,-5.770447,-1.4253845,-1.2810211,-1.1881104
1632,A,5624662275788,5.802368,-14.700455,-5.1542816,-1.1862488,-0.4200592,-0.7113037
1632,A,5624712629792,1.3173828,-8.200012,11.341675,-1.233017,1.1068726,-0.53541565
1632,A,5624762983796,-3.4970856,-9.329956,1.1829834,-0.8084717,0.32254028,-0.9973297
1632,A,5624813337800,-3.4965363,-6.942566,-0.09614563,-0.43579102,0.9522095,-1.3310242
1632,A,5624863691804,-0.35165405,-7.884857,0.66522217,-0.08106995,0.5035248,-0.54141235
1632,A,5624914045808,1.5659027,-9.187622,1.9838562,0.6382446,0.5414276,0.22163391
1632,A,5624964399812,-2.8180542,-10.473694,0.22885132,2.0735931,1.1081238,2.012848
1632,A,5625014753816,-4.085373,-10.919144,0.80644226,1.7002563,-0.52885437,3.5348816
1632,A,5625065107819,-3.5498352,-14.21257,6.808777,1.2570038,4.282959,1.4161682
1632,A,5625115461823,0.7585907,-15.016754,7.9051514,1.2269287,0.27270508,0.53811646
1632,A,5625165815827,1.9349365,-14.271179,-1.070221,1.0926361,-0.99009705,0.89035034
1632,A,5625216169831,4.6413727,-16.285446,5.381912,0.4116516,-1.0460205,1.4692993
1632,A,5625266523835,2.0312653,-8.09552,-1.0329742,-0.6650696,-0.697876,0.7645416
1632,A,5625316877839,-1.0633392,-4.9996643,-0.68655396,-1.3498688,-1.4710236,-0.7490692
1632,A,5625367231843,0.8836212,-3.1130524,-2.285431,0.32907104,0.2003479,-0.46801758
1632,A,5625417585847,3.4303894,-1.2593536,-1.8743439,0.95184326,-1.2839813,1.4290771
1632,A,5625467939851,-0.8382416,-3.7913666,3.8978271,1.8550873,1.6086273,0.62677
1632,A,5625518293855,-17.625381,-17.619629,11.329117,-0.20367432,0.5605774,-1.265686
1632,A,5625568647858,1.2323303,-9.727386,6.7526855,-1.9434204,0.29769897,-2.7102966
1632,A,5625619001862,7.336136,-9.54837,-4.8301544,-3.3384705,-2.596115,-1.2570038
1632,A,5625669355866,5.701294,-2.4193115,-5.9479065,-1.0591888,-0.44787598,-1.065628
1632,A,5625719709870,5.4717712,-16.30162,-6.3733673,-1.0944214,-1.5275421,-0.27319336
1632,A,5625770063874,0.21382141,-9.199432,2.2275696,-1.1443024,1.1562042,-0.15682983
1632,A,5625820417878,-4.166153,-10.842346,-3.4321747,-0.6984253,1.0113525,-0.72584534
1632,A,5625870771882,-2.6824799,-6.6808624,0.3652954,-0.4375,0.9337158,-1.2631226
1632,A,5625921125886,1.3849335,-8.071411,2.7502441,0.0048828125,-0.086868286,-0.29518127
1632,A,5625971479890,2.5044403,-9.52301,2.3221436,1.1371307,1.1017914,0.4727173
1632,A,5626021833894,-2.0485992,-8.92543,-1.228714,2.0995789,1.1036835,2.2462616
1632,A,5626072187898,-6.5965424,-11.202209,0.7167969,1.5583344,-0.26643372,3.113327
1632,A,5626122541901,-2.0288696,-14.905853,3.5179138,1.4070587,4.3014526,0.69947815
1632,A,5626172895905,1.6100159,-15.130371,10.215424,1.0029297,-0.39138794,0.29605103
1632,A,5626223249909,4.5685577,-15.151489,-1.7720184,0.8729248,-0.009643555,0.974823
1632,A,5626273603913,3.342575,-12.6970215,6.7130737,0.2526703,-0.7575836,1.4081116
1632,A,5626323957917,0.98309326,-7.543274,-6.0687866,-0.82836914,-0.5244446,0.49702454
1632,A,5626374311921,-3.9290009,-3.5401459,1.0409241,-0.9038849,-1.343216,-0.97114563
1632,A,5626424665925,1.223526,-2.7930756,-3.0833893,0.24078369,0.44378662,-0.18823242
1632,A,5626475019929,3.8663025,-1.9934692,-1.3114777,0.60665894,-1.4835663,1.5299225
1632,A,5626525373933,-2.0086212,-5.4250793,3.9987183,0.54045105,0.5836487,0.06465149
1632,A,5626575727937,-18.225464,-18.924164,10.444611,-0.3998413,0.24861145,-0.49700928
1632,A,5626626081941,0.5482025,-6.886856,6.5601654,-1.0787048,1.6769409,-2.5253754
1632,A,5626676435944,1.3323212,-18.534912,4.378647,-1.8755188,-1.756485,-2.3760529
1632,A,5626726789948,8.353851,-2.255844,-3.487793,-2.158966,0.89190674,-2.016037
1632,A,5626777133239,7.765976,-11.585114,-6.013092,-0.9762268,-1.6238098,-0.5659332
1632,A,5626827487243,-0.32209778,-12.390869,-2.7665253,-0.94947815,0.03062439,0.13095093
1632,A,5626877841247,-4.902542,-11.497528,7.0854034,-0.799881,0.4889679,-0.7500763
1632,A,5626928195251,-3.8261719,-7.984375,0.6935272,-0.4942627,0.23939514,-1.2258148
1632,A,5626978549255,0.12106323,-7.3256073,0.6264801,0.2590027,0.76441956,-0.6584015
1632,A,5627028903259,1.7643433,-9.397598,-0.13163757,1.1500854,1.0504913,0.5025635
1632,A,5627079257263,0.5972748,-10.960388,1.6658783,2.3771667,-0.12730408,2.640274
1632,A,5627129611267,-6.180893,-12.618546,1.3907471,1.4964142,0.193573,3.3512573
1632,A,5627179965270,-4.319336,-15.7491455,6.635742,0.9451904,3.565918,0.8912506
1632,A,5627230319274,-0.09516907,-12.538376,3.9370728,0.7358093,-0.67233276,0.6913147
1632,A,5627280673278,4.392151,-17.534775,0.05836487,0.7780609,-1.117279,1.1701202
1632,A,5627331027282,3.9902496,-13.869156,5.9734344,0.3286438,-1.3452911,1.4138184
1632,A,5627381381286,1.462326,-6.1913147,-4.310623,-0.8267975,-0.95758057,0.42488098
1632,A,5627431735290,-2.2335052,-3.513092,0.4323883,-0.97483826,-1.0364838,-0.68063354
1632,A,5627482089294,2.5886993,-1.9900513,-3.2435608,0.93977356,-0.23823547,0.48083496
1632,A,5627532443298,3.734375,-1.842804,-1.3097687,0.73924255,-1.7176514,0.90808105
1632,A,5627582797302,-4.3184967,-8.689606,6.0171967,-0.13674927,-0.6839142,-1.3723907
1632,A,5627633151306,-16.150879,-16.14708,9.637024,-0.48587036,0.833374,-1.3246918
1632,A,5627683505310,4.4491425,-3.8571167,5.477844,-0.93522644,0.7859497,-1.2163086
1632,A,5627733859313,15.53981,-16.341751,14.989319,-2.3230286,-0.590271,-1.2913055
1632,A,5627784213317,0.13093567,-3.6825867,-3.7801208,-2.9572449,-1.8491364,-0.94125366
1632,A,5627834567321,3.4006195,-8.993591,-4.02684,-0.91693115,0.012557983,-0.82073975
1632,A,5627884921325,0.5157471,-14.458328,-2.8684387,-1.3345032,0.580246,-0.3163452
1632,A,5627935275329,0.44973755,-5.1870117,4.2528076,-0.73753357,1.398346,-0.92471313
1632,A,5627985629333,-4.233795,-9.344055,-2.9474792,-0.44062805,0.9732971,-1.1515503
1632,A,5628035983337,0.4507141,-7.714966,1.5348663,0.2064209,0.7407532,-0.52134705
1632,A,5628086337341,1.9277344,-10.205185,1.7205048,1.0554657,0.6353302,0.44006348
1632,A,5628136691345,-2.559082,-10.155701,-0.07215881,2.6067963,-0.1164093,2.2342377
1632,A,5628187045349,-5.1788635,-12.3893585,8.392334E-4,1.8514862,0.41696167,2.8852997
1632,A,5628237399353,-5.232254,-15.335739,2.7316742,1.006958,3.7262878,0.68573
1632,A,5628287753356,-6.2125854,-15.344696,-0.85876465,1.1781616,-0.21516418,0.7320862
1632,A,5628338107360,3.0142822,-17.316086,-1.4994049,1.1258087,-1.5743256,1.0945129
1632,A,5628388461364,8.381775,-16.484665,4.2108307,0.3495636,-1.2675171,1.250824
1632,A,5628438815368,0.8980255,-7.2621765,-5.204117,-0.8839569,-1.0377197,0.1545105
1632,A,5628489169372,-2.544098,-3.0620575,0.53201294,-0.66381836,-0.55189514,-0.87579346
1632,A,5628539523376,3.4091797,-1.1078796,-3.2642517,1.1819153,-0.049087524,0.10531616
1632,A,5628589877380,3.5283813,-0.7038269,-2.6441193,0.43746948,-1.2014008,1.0892944
1632,A,5628640231384,-4.6514435,-7.643982,5.2415924,-0.14709473,0.8476715,-0.3950348
1632,A,5628690585388,-12.867096,-14.916473,10.981781,0.013946533,1.6463928,-0.65527344
1632,A,5628740939392,3.722931,-3.5262756,0.37121582,-0.09712219,-0.6890869,-1.1311646
1632,A,5628791293395,4.7507477,-6.42218,-3.5678558,-1.8337555,-1.8615417,-1.1302643
1632,A,5628841647399,2.172699,-14.308456,0.56455994,-3.1125183,-0.8638458,-0.92137146
1632,A,5628892001403,4.1671906,-7.839157,-4.923294,-1.5710602,1.2340698,-0.9100647
1632,A,5628942355407,1.3563385,-12.886063,-5.0710754,-1.3736725,0.41748047,-0.4411621
1632,A,5628992709411,-0.114486694,-8.397476,1.6377411,-0.97772217,0.97340393,-0.8774414
1632,A,5629043063415,-0.28936768,-8.867783,4.7164,-0.478302,0.8751526,-0.97372437
1632,A,5629093417419,-0.3851471,-7.944641,1.2670593,-0.018920898,1.0997772,-0.6282654
1632,A,5629143771423,1.1614532,-10.46315,2.4467163,0.9129181,0.82533264,0.16519165
1632,A,5629194125427,-0.9825287,-10.217392,1.7173767,2.1264496,0.3228302,2.0136719
1632,A,5629244479431,-3.6617432,-11.672165,1.2663269,1.8352966,0.42263794,3.3574677
1632,A,5629294833435,-5.8835297,-14.3272705,2.5166473,1.3597107,1.0224457,2.3574677
1632,A,5629345187438,-4.713043,-16.76712,1.1504364,1.2741699,0.4179535,1.2557831
1632,A,5629395541442,4.788727,-18.194489,0.20983887,1.142395,-1.0032196,1.3502502
1632,A,5629445895446,8.567642,-16.124817,1.0818176,0.66474915,-1.201355,1.5624847
1632,A,5629496249450,3.387207,-9.105652,-1.2077637,-0.14157104,-1.1988678,0.610199
1632,A,5629546603454,-0.6595154,-4.900467,-1.389328,-0.73750305,-1.5072937,-0.6984863
1632,A,5629596957458,1.5719452,-1.8730011,-2.9311066,-0.1499176,-1.7229309,-0.16485596
1632,A,5629647311462,3.4998322,-0.09263611,-2.6066437,0.62150574,-0.53466797,1.1228485
1632,A,5629697665466,-1.6384735,-5.330475,7.5766754,0.5397339,0.5791321,0.4194641
1632,A,5629748019470,-7.0449524,-14.661514,14.771713,-0.21670532,0.84207153,-0.7886658
1632,A,5629798373474,0.70295715,-12.297897,6.832428,-1.5750122,0.377594,-2.1857147
1632,A,5629848727478,6.22876,-5.0589447,0.28460693,-2.7191772,-1.3620148,-2.107788
1632,A,5629899081481,5.441498,-5.7096863,-3.9004364,-2.190094,-1.8026886,-1.1460419
1632,A,5629949435485,6.1123962,-9.929672,-4.4601746,-1.1648254,-0.8452301,-0.7115631
1632,A,5629999789489,2.1079865,-11.9014435,3.3207092,-1.1925507,-0.31921387,-0.35220337
1632,A,5630050143493,-1.9992218,-9.154587,5.1471252,-1.0149536,0.23416138,-0.5881653
1632,A,5630100497497,-3.399353,-8.346954,-0.9694061,-0.5776367,0.70751953,-0.89875793
1632,A,5630150851501,-1.4727936,-7.276703,0.46681213,-0.27108765,0.99243164,-0.5480499
1632,A,5630201205505,1.0423431,-9.322845,1.4732361,0.14459229,0.76898193,-0.14476013
1632,A,5630251559509,-0.0289917,-10.642929,1.5061188,1.4920654,0.6101074,0.9157257
1632,A,5630301913513,-2.1313019,-11.540802,1.2469177,2.199173,-0.21868896,2.7444458
1632,A,5630352267517,-3.1269226,-14.068283,2.1251984,1.6897888,2.2627716,1.9335632
1632,A,5630402621520,-3.1708984,-13.926865,2.7426147,1.2142944,2.398529,0.6367645
1632,A,5630452975524,-0.32687378,-13.885712,-0.20726013,1.1277466,-0.56448364,0.9478607
1632,A,5630503329528,5.500702,-16.180786,1.6407166,0.94259644,-1.4281921,1.5346527
1632,A,5630553683532,4.973816,-12.401108,-1.342102,-0.011550903,-0.9495239,1.3838806
1632,A,5630604037536,-1.228363,-6.400238,-2.372757,-1.0950775,-0.5626221,0.2519989
1632,A,5630654391540,-0.19308472,-3.9537048,-0.5826416,-0.84840393,-0.13093567,-0.6961365
1632,A,5630704745544,4.5222015,-2.4783173,-2.2129974,0.29238892,-1.100296,0.31817627
1632,A,5630755099548,2.9201202,-2.6446228,0.15013123,0.4345703,-0.477005,0.63157654
1632,A,5630805453552,-9.662445,-12.074265,11.29689,0.12068176,1.3609924,2.746582E-4
1632,A,5630855807556,-9.320816,-15.90715,11.191849,-0.15071106,0.90278625,-0.75283813
1632,A,5630906161560,1.3552551,-6.4816437,-2.4794922,-0.44436646,0.9042053,-1.8612366
1632,A,5630956515563,3.9811249,-12.192825,-4.0808716,-1.500473,-0.7891693,-1.5479126
1632,A,5631006869567,3.8238525,-8.92218,-2.9408417,-3.4494781,-1.4571533,-1.3892822
1632,A,5631057223571,5.205536,-9.149689,-5.329239,-1.8007813,0.5592804,-0.9200592
1632,A,5631107577575,2.1794891,-11.454926,-4.1909943,-0.6142731,0.49128723,-0.40594482
1632,A,5631157931579,-1.8582458,-10.153168,0.56318665,-0.86924744,0.30245972,-0.71261597
1632,A,5631208285583,-4.29068,-9.353104,-1.0927124,-0.6389313,0.7177582,-1.0066833
1632,A,5631258639587,-1.7029114,-9.111374,-0.15447998,-0.12025452,0.60723877,-0.6955261
1632,A,5631308993591,0.9363861,-8.653915,1.4157867,0.21151733,0.51945496,-0.10105896
1632,A,5631359347595,-0.29988098,-10.024612,0.15307617,1.8728027,0.73327637,1.3197784
1632,A,5631409701599,-3.3091583,-11.651901,0.2955475,2.3610535,-0.17578125,2.9704742
1632,A,5631460055603,-4.4659424,-14.104523,2.5721893,1.6017456,3.7833862,1.4275208
1632,A,5631510409606,-2.0700073,-14.640305,3.356964,1.2038422,1.6233368,0.63160706
1632,A,5631560763610,1.0877991,-13.228394,-1.2936096,1.0186768,-0.6749878,1.1007843
1632,A,5631611117614,4.7206726,-16.137054,4.0009155,0.8959961,-1.3448639,1.6154633
1632,A,5631661471618,2.7467804,-11.629349,-2.6681213,-0.12295532,-0.7808075,1.1123047
1632,A,5631711825622,-2.3121948,-6.6985626,-0.9189911,-1.2385864,-0.71762085,-0.12657166
1632,A,5631762179626,0.96647644,-3.5960846,-1.4477997,-0.7028198,0.24343872,-0.97424316
1632,A,5631812533630,5.2276154,-1.3851166,-2.5509796,0.67689514,-1.8224945,0.8101654
1632,A,5631862887634,2.0056305,-2.5867462,0.40098572,0.025024414,-0.57977295,0.39701843
1632,A,5631913241638,-14.000793,-15.015549,11.273636,0.18838501,-0.013015747,-0.30697632
1632,A,5631963595642,-6.7191772,-13.048126,8.318939,0.0619812,0.9808197,-1.5333405
1632,A,5632013949645,4.7367096,-8.686661,-1.0438232,-1.3960724,-0.049240112,-2.3046722
1632,A,5632064303649,5.824646,-7.1001434,-3.683838,-2.585785,-2.3153229,-1.4076385
1632,A,5632114657653,6.0726013,-7.1063538,-4.031479,-1.46138,1.6251221,-1.7226563
1632,A,5632165011657,3.7405853,-11.59288,-3.9060059,-1.2905579,-0.66490173,-0.5786438
1632,A,5632215365661,0.50094604,-9.007202,-2.8041534,-0.9566345,0.7171936,-0.2184143
1632,A,5632265719665,-3.6413727,-10.674088,3.434082,-0.4907074,0.57369995,-0.80914307
1632,A,5632316073669,-2.8901825,-8.029709,2.1000214,-0.1377716,0.6580658,-0.95069885
1632,A,5632366427673,1.1984406,-8.897476,2.618515,0.09420776,0.8191681,-0.12652588
1632,A,5632416781677,1.3439941,-9.66803,1.0522766,1.9789734,1.0592499,0.7116852
1632,A,5632467135681,-3.0413666,-10.959351,-1.1462097,2.5415497,0.055038452,2.6325073
1632,A,5632517489685,-2.7619934,-13.121933,3.6511078,1.2861023,1.6629944,2.5277405
1632,A,5632567843688,-6.7172394,-15.580597,2.593399,1.341629,1.1975098,1.4203796
1632,A,5632618197692,-1.3573303,-16.038467,-0.8012085,1.2615356,-1.2748871,0.64923096
1632,A,5632668551696,8.098679,-17.34996,1.29982,0.57543945,-0.32914734,1.3731384
1632,A,5632718905700,7.542343,-11.393127,0.18904114,-0.08192444,-0.56066895,1.2392731
1632,A,5632769259704,1.5076447,-6.174347,-1.830658,-0.8988037,-0.7534332,-0.034698486
1632,A,5632819613708,-0.22555542,-3.77005,-1.1533356,-0.51756287,-0.9255066,-1.0455475
1632,A,5632869967712,2.7368774,-1.1230774,-2.3406372,0.34346008,-1.3647003,1.067749
1632,A,5632920321716,2.3500671,-0.9946747,-1.2039948,0.33906555,-0.09347534,0.74887085
1632,A,5632970675720,-10.972183,-15.657654,14.184982,0.73342896,0.9724426,-0.075683594
1632,A,5633021029724,-5.5038147,-14.980515,9.007797,-0.30723572,0.79226685,-1.3807678
1632,A,5633071383728,5.2055817,-5.61438,-1.1048584,-1.061554,0.38993835,-2.0571747
1632,A,5633121737731,5.4424133,-12.963135,-4.0127716,-2.7684479,-2.5415497,-1.2618103
1632,A,5633172091735,4.317581,-4.6529083,-4.201248,-1.1312408,1.619339,-1.7749939
1632,A,5633222445739,4.385269,-12.023605,-5.1036835,-1.1499481,-2.0551147,-0.049743652
1632,A,5633272799743,0.3947754,-9.75386,-2.7448578,-0.9180145,0.77511597,-0.017684937
1632,A,5633323153747,-4.8778076,-11.026794,1.4533997,-0.89442444,0.62376404,-0.8312683
1632,A,5633373507751,-2.4611359,-7.0797577,1.3453217,-0.7550659,1.2203217,-1.1996002
1632,A,5633423861755,1.7832642,-8.067612,0.8983917,-0.008224487,0.5692291,-0.23490906
1632,A,5633474215759,4.2869873,-8.773132,0.85632324,0.8965759,1.07547,-0.050857544
1632,A,5633524569763,-2.7736206,-11.153122,0.9047394,2.3530579,-0.14334106,2.3549957
1632,A,5633574923767,-3.2602997,-11.707184,1.4895782,1.7244415,-0.8769226,3.4442902
1632,A,5633625277770,-6.3742065,-15.224747,6.1624146,1.3841553,4.512375,0.78440857
1632,A,5633675631774,-3.6734161,-13.748642,5.161026,1.4694214,0.10739136,0.58961487
1632,A,5633725985778,2.7648926,-16.654633,-1.5158386,0.8627472,-0.4421234,0.9680786
1632,A,5633776339782,5.193817,-15.721893,5.7534943,0.48220825,-1.337677,1.3880005
1632,A,5633826693786,2.4408722,-6.461075,-7.5029144,-0.7125244,-0.6637726,0.58566284
1632,A,5633877047790,-4.1398926,-5.1469574,-0.12313843,-1.5801392,-1.2236176,-1.1187134
1632,A,5633927401794,2.119049,-2.5366974,-3.277893,0.094940186,2.0432434,-0.1829071
1632,A,5633977755798,5.634247,-0.7118225,-3.0135345,0.65260315,-1.7655945,1.5749359
1632,A,5634028109802,0.057250977,-4.5000153,2.9244995,1.4849854,1.8734436,1.0617676
1632,A,5634078463806,-19.581085,-19.278214,11.810287,-0.3979187,1.0930176,-1.0720978
1632,A,5634128817810,1.4611359,-5.9090424,6.280182,-2.0819244,0.27799988,-3.268509
1632,A,5634179171813,2.5371094,-15.115662,-5.759781,-2.1979065,-1.6246185,-2.6257935
1632,A,5634229525817,7.3750305,-3.010666,-7.3306885,-0.9059906,-1.4230194,-0.82748413
1632,A,5634279879821,7.1115417,-16.941666,-2.1742706,-1.513977,-1.2894745,-0.44197083
1632,A,5634330233825,-6.3630066,-8.711426,6.3713837,-1.0717316,-0.6776123,-0.62402344
1632,A,5634380587829,-0.37057495,-10.256348,-1.5426483,-0.8826599,0.41809082,-0.8457489
1632,A,5634430941833,-0.31881714,-6.208023,0.57785034,-0.45584106,0.95617676,-1.2067108
1632,A,5634481295837,1.3919067,-8.907883,3.3623352,-0.14572144,0.34346008,-0.49899292
1632,A,5634531649841,2.129715,-8.9392395,1.076767,0.49839783,0.6574402,0.40719604
1632,A,5634582003845,-0.38616943,-10.550171,0.056045532,2.3275146,0.6929321,2.142517
1632,A,5634632357849,-5.9575653,-12.959625,0.6891022,2.0561523,1.6227112,2.8865204
1632,A,5634682711853,-1.4311676,-15.21051,4.6906433,1.2188873,1.8022614,1.0695343
1632,A,5634733065856,-0.51194763,-14.007187,2.943985,1.7112122,1.0222015,0.41630554
1632,A,5634783419860,4.761032,-15.221985,-0.8473816,1.4933777,-1.1347504,1.1770782
1632,A,5634833773864,5.4770203,-12.496246,9.958267,0.5370178,-1.011734,1.0840149
1632,A,5634884127868,0.90797424,-7.2734222,-3.605194,-0.5589752,-0.7937317,0.27513123
1632,A,5634934481872,-0.4179077,-5.014389,0.40266418,-1.319931,-1.2415619,-0.588501
1632,A,5634984835876,2.50206,-1.7854004,-2.6633606,-0.017318726,0.0488739,0.08627319
1632,A,5635035189880,4.7526093,-1.3459167,-2.1297607,0.9465027,-1.5716553,0.96307373
1632,A,5635085543884,-2.1734467,-6.4288177,4.614258,-0.3603363,-0.61616516,-0.05886841
1632,A,5635135897888,-13.651825,-17.197845,15.626816,0.580246,-1.2680359,-0.6675873
1632,A,5635186251892,-0.07044983,-6.788986,5.3723297,-0.6269989,1.7070007,-1.7290802
1632,A,5635236605895,5.2749176,-16.187454,6.9805145,-2.8392792,-1.3795319,-1.6011353
1632,A,5635286959899,6.049835,-0.7384949,-6.029007,-3.2960205,-1.1699219,-1.1149902
1632,A,5635337313903,6.4178314,-8.489624,-6.8623047,-0.61076355,2.4620514,-1.2675629
1632,A,5635387667907,1.5773468,-12.336456,-3.881607,-1.0378418,-0.028533936,-0.011978149
1632,A,5635438021911,-1.5804138,-10.264557,-1.4336548,-0.881958,1.4355469,-0.47390747
1632,A,5635488375915,-3.777649,-11.673798,1.0250549,-0.61390686,0.25971985,-1.0153961
1632,A,5635538729919,-0.630188,-7.497299,0.97314453,-0.28282166,0.54400635,-0.7680664
1632,A,5635589083923,2.3499146,-9.2939,2.3889465,0.32411194,0.62184143,-0.14149475
1632,A,5635639437927,-0.12213135,-10.073395,-0.67845154,1.3481445,0.27392578,1.0095825
1632,A,5635689791931,-0.5865631,-11.403656,3.3437653,2.4919434,0.2889862,2.6255493
1632,A,5635740145935,-4.4235992,-13.32222,2.373886,1.4088898,1.1075134,2.8433838
1632,A,5635790499938,-4.6383057,-15.529068,4.0947876,0.89949036,1.836441,1.1877136
1632,A,5635840853942,1.8914032,-15.170776,0.89204407,1.0223236,-1.4746857,0.96821594
1632,A,5635891207946,6.5509186,-14.108841,-0.5412903,1.0039063,-1.135376,1.5116272
1632,A,5635941561950,3.705017,-11.527008,2.4987183,0.2775116,-1.3936615,1.0280609
1632,A,5635991915954,-1.3058777,-6.7217865,-1.9936676,-0.7055054,-1.024292,-0.055419922
1632,A,5636042269958,-0.9129181,-4.562042,-0.44155884,-0.5407715,-1.1696167,-0.67630005
1632,A,5636092623962,3.774414,-1.201767,-2.3642426,0.71180725,-0.42546082,0.66552734
1632,A,5636142977966,2.3284607,-2.3269958,1.1969147,0.42604065,-1.324295,1.2062225
1632,A,5636193331970,-5.510681,-10.127518,8.178986,-0.37513733,-0.615921,-0.46224976
1632,A,5636243685974,-11.1249695,-14.993362,8.251038,-0.058410645,0.31105042,-0.7483063
1632,A,5636294039978,3.5978699,-4.911804,4.760483,-0.8708954,0.9874878,-1.5337524
1632,A,5636344393981,6.335144,-7.9580383,3.1871643,-2.31839,-1.0666199,-1.7057953
1632,A,5636394747985,4.4521637,-6.2056274,-2.972992,-2.4376526,-1.0863495,-1.1332092
1632,A,5636445101989,5.5363464,-8.584839,-3.7798767,-0.89234924,0.81552124,-1.2214661
1632,A,5636495455993,1.9832153,-12.103958,-3.2034607,-1.224472,-0.6058502,-0.19233704
1632,A,5636545809997,-1.6574402,-9.680939,-1.717926,-0.85250854,1.1043549,-0.46636963
1632,A,5636596164001,-3.9762726,-9.70639,-1.0090485,-0.5853882,0.41363525,-0.951828
1632,A,5636646518005,-1.1633148,-7.571472,1.4191284,-0.28823853,0.80740356,-0.6522064
1632,A,5636696872009,1.7042847,-9.416534,1.8507385,0.3471985,0.4228363,0.1121521
1632,A,5636747228236,0.45262146,-10.039017,0.8014374,1.598465,0.550827,1.1230316
1632,A,5636797582240,-2.561203,-11.3593445,1.2741241,2.2898407,-0.028076172,2.67865
1632,A,5636847936243,-3.2697449,-13.352127,5.203171,1.4286804,0.9410248,2.2952423
1632,A,5636898290247,-2.6269684,-14.435501,7.690384,1.069107,1.6125793,0.9814148
1632,A,5636948644251,1.9542694,-14.681671,2.422821,1.1269989,-1.0098419,0.9528961
1632,A,5636998998255,4.7774506,-15.817352,0.98454285,0.795105,-0.96333313,1.358902
1632,A,5637049352259,3.3834076,-10.913925,2.6024628,-0.05682373,-0.70176697,1.0078125
1632,A,5637099706263,0.798645,-6.0455475,-2.008377,-0.92640686,-0.77381897,-0.25183105
1632,A,5637150060267,0.35505676,-3.8465576,-0.8357849,-0.90078735,-0.09310913,-0.68751526
1632,A,5637200414271,3.1913147,-1.5171509,-2.465805,0.2992859,0.31069946,0.64881897
1632,A,5637250768275,1.6572571,-2.5133514,1.124176,-0.030410767,-1.8183136,0.9525299
1632,A,5637301122279,-8.898361,-10.9466095,6.896118,-1.1281891,-1.3470917,-0.3996277
1632,A,5637351476283,-10.802353,-12.362061,7.371399,-0.04547119,0.14653015,-1.167633
1632,A,5637401830286,8.330948,-3.9515839,11.2621155,-0.6692047,0.15548706,-1.3648224
1632,A,5637452184290,12.048294,-5.084427,11.135132,-2.4879608,-0.93058777,-1.2642212
1632,A,5637502538294,3.6349792,-5.271393,-1.7784882,-2.2855225,0.57167053,-1.1754913
1632,A,5637552892298,3.457367,-9.457367,-4.5583344,-0.97039795,1.2602997,-0.82748413
1632,A,5637603246302,0.6529999,-11.185898,-2.9256134,-1.0458374,0.11239624,-0.29670715
1632,A,5637653600306,-1.9207306,-9.9882965,2.0770416,-0.8791046,0.6563721,-0.6779175
1632,A,5637703954310,-2.4815826,-9.970367,3.16008,-0.517746,0.63041687,-0.8065033
1632,A,5637754308314,-0.3183899,-8.776642,0.17616272,-0.2055664,1.1111145,-0.4914093
1632,A,5637804662318,0.73121643,-9.365494,0.21540833,0.9300842,1.1576996,0.29666138
1632,A,5637855016322,-0.29907227,-10.62059,1.4094696,2.258484,0.7395325,1.9140625
1632,A,5637905370326,-2.1279144,-11.74054,3.5206604,2.0107117,0.7723694,2.6354065
1632,A,5637955724329,-3.8585358,-13.564056,4.7317657,1.1499634,1.2874298,1.9440918
1632,A,5638006078333,-2.8927002,-15.040421,2.0451508,1.0002441,0.16574097,1.3190918
1632,A,5638056432337,3.6260223,-16.836609,-0.6154785,1.0940857,-1.2363434,1.4471283
1632,A,5638106786341,6.907318,-15.247299,-0.101745605,0.47242737,-1.2387085,1.4271698
1632,A,5638157140345,2.2171478,-8.763092,-0.75639343,-0.6425934,-0.9564514,0.31471252
1632,A,5638207494349,-0.78292847,-4.4680176,-1.4977264,-1.0344391,-1.1170502,-1.099823
1632,A,5638257848353,2.3996735,-1.8738098,-2.5065002,-0.17825317,-1.3251495,-0.10462952
1632,A,5638308202357,4.5597534,-1.30159,-1.7381134,0.40483093,-0.81318665,0.9744568
1632,A,5638358556361,-3.6441956,-8.231979,10.421524,0.466568,0.08207703,0.5424652
1632,A,5638408910365,-11.009735,-16.782822,13.52034,0.061965942,0.52937317,-0.43925476
1632,A,5638459264368,-3.4997864,-9.009552,1.5698853,-0.89749146,0.49240112,-1.7745667
1632,A,5638509618372,5.81102,-10.381577,-2.7804108,-1.680481,-1.2686157,-1.7319794
1632,A,5638559972376,6.880661,-9.510696,-3.3282166,-2.922882,-1.177597,-1.383316
1632,A,5638610326380,6.061737,-9.104828,-4.662018,-1.9908142,-0.4144745,-0.75416565
1632,A,5638660680384,2.2360535,-11.204712,-3.7754211,-0.8787842,0.49978638,-0.2298584
1632,A,5638711034388,-0.05278015,-9.314835,8.532364,-0.7434387,0.58436584,-0.7272644
1632,A,5638761388392,-2.4258728,-8.725296,5.3193054,-0.677124,0.7515869,-1.2343445
1632,A,5638811742396,-0.89671326,-8.168457,-0.37998962,-0.28790283,0.4922638,-0.5543518
1632,A,5638862096400,1.5041962,-9.317688,0.7658386,0.62228394,0.9390106,0.25608826
1632,A,5638912450404,-1.6031036,-10.23085,1.2021637,2.0828552,0.2984314,1.6698303
1632,A,5638962804408,-3.9384918,-11.334778,2.321106,2.2037354,-0.35720825,2.8437653
1632,A,5639013158411,-2.122879,-14.534973,5.7940063,1.2370911,2.9698944,1.6268768
1632,A,5639063512415,-1.13768,-13.587952,6.0999146,0.93162537,0.79185486,0.81959534
1632,A,5639113866419,2.152069,-15.495926,0.6556244,0.9288788,-0.81344604,1.2897949
1632,A,5639164220423,3.2461243,-15.050201,3.0009766,0.65579224,-1.1160431,1.5348206
1632,A,5639214574427,2.1958923,-9.547958,-2.0697021,-0.40402222,-0.7739258,0.81866455
