Subject-Id,Activity Label,Time stamp,Accel_x,Accel_y,Accel_z,Gyro_x,Gyro_y,Gyro_z
1631,A,1553872620859145,-3.2316895,0.9601288,1.223938,1.6522217,-2.7310333,0.6758728
1631,A,1553872671213149,-3.6880646,2.4863586,2.971283,1.8536987,-3.260315,-0.5675049
1631,A,1553872721567153,-2.923523,8.615723,5.365753,1.3326569,1.171524,-0.6727905
1631,A,1553872771921157,0.36264038,16.023514,7.0350494,2.863861,0.6200714,0.34725952
1631,A,1553872822275160,-5.205841,7.684662,6.512863,2.4957123,0.39535522,0.3357544
1631,A,1553872872629164,-3.4126434,12.777512,-5.446701,1.4494019,0.55545044,0.025756836
1631,A,1553872922983168,3.7197876,14.95578,-3.3392487,1.1363678,-1.6310577,-0.43434143
1631,A,1553872973337172,-1.5209656,7.331665,2.43396,0.2609558,-1.8016663,-0.6183624
1631,A,1553873023691176,-4.141266,9.406723,-3.959732,-0.43293762,0.90089417,-0.04196167
1631,A,1553873074045180,-0.661499,8.143173,-4.5077972,-1.4555359,0.37876892,0.137146
1631,A,1553873124402109,-1.699646,8.539581,-1.395813,-3.4160156,-0.05241394,0.7821808
1631,A,1553873174756113,-3.090088,10.590683,1.52594,-3.6654968,0.5301666,0.9593353
1631,A,1553873225110117,1.3585968,12.16153,1.0495605,-2.5333405,-0.67277527,1.5809937
1631,A,1553873275464121,3.707138,13.948837,-2.1414337,-1.8904724,1.4865417,1.9991455
1631,A,1553873325818124,-2.808731,13.124893,-4.6935883,-2.0206451,2.4912872,1.4132385
1631,A,1553873376172128,-4.9052124,10.255997,-4.8380737,-0.30317688,2.0865479,0.7531891
1631,A,1553873426526132,-6.613083,12.681595,0.4917755,1.3286285,0.5808716,0.29600525
1631,A,1553873476880136,-3.6030273,12.680664,0.28805542,1.9985962,-0.768692,-0.7962036
1631,A,1553873527234140,1.6863556,9.380112,-2.1359558,1.04245,-0.18089294,-0.6292877
1631,A,1553873577588144,-0.38850403,3.875351,1.3942719,1.4290161,-0.17926025,0.651947
1631,A,1553873627942148,-3.1566315,1.4168549,1.8519592,1.5448303,-1.4601593,0.27294922
1631,A,1553873678296152,-2.6207275,1.677124,1.7328491,1.4551239,-1.2249298,-0.50761414
1631,A,1553873728650156,-1.8902283,9.5482025,3.688797,2.007965,-0.7808533,-0.8172302
1631,A,1553873779004160,-1.9081573,10.056763,5.72406,1.259613,-0.09024048,0.035003662
1631,A,1553873829358164,-2.9113007,4.689621,0.042037964,0.81222534,0.2900238,0.45773315
1631,A,1553873879712167,-3.393631,11.823929,0.58657837,0.7587738,-0.22703552,-0.016906738
1631,A,1553873930066171,-3.686386,7.0448,0.9801483,0.8038788,-0.43598938,-0.60287476
1631,A,1553873980420175,-2.0804596,7.9098816,-4.194565,0.86431885,-0.7465668,-0.7105713
1631,A,1553874030774179,1.932663,11.756012,-1.3166809,0.37561035,-0.42681885,-0.55314636
1631,A,1553874081128183,1.0275726,9.314102,-1.7611237,-0.16041565,-0.60827637,0.032684326
1631,A,1553874131482187,-0.7025757,8.313599,-0.88020325,-1.951416,-0.70718384,0.8141327
1631,A,1553874181836191,-0.36634827,8.882019,-1.5029602,-3.2102203,1.1958466,0.8909912
1631,A,1553874232190195,-0.7176056,10.16777,-1.3626404,-3.0137634,0.10081482,1.1968842
1631,A,1553874282544199,1.1623535,11.294022,-1.5236053,-1.9850311,-0.0974884,1.7256012
1631,A,1553874332898203,2.4194336,13.944489,-0.21076965,-1.709671,1.1874695,0.9483185
1631,A,1553874383252207,-1.4206238,12.171005,-3.4284973,-1.1751404,1.5861969,0.4670868
1631,A,1553874433606210,-3.2383118,11.7721405,-1.9923706,0.33891296,0.49354553,0.26348877
1631,A,1553874483960214,-3.5127106,13.584366,1.7184143,2.362793,-0.45307922,-0.19520569
1631,A,1553874534314218,0.10954285,10.235153,0.19308472,1.389267,-2.2792816,0.09941101
1631,A,1553874584668222,0.49365234,6.586151,-2.1574554,0.7361908,-0.9229126,0.06878662
1631,A,1553874635022226,-3.0196075,2.970337,2.0059204,1.0811462,-1.0633545,-0.4408722
1631,A,1553874685376230,-2.410324,2.2593842,1.504715,1.8331146,-1.0293274,-0.6179962
1631,A,1553874735730234,-0.8281708,2.4662628,1.5801239,0.09875488,-0.9176178,-1.0404663
1631,A,1553874786084238,0.05154419,13.619553,9.104218,1.1396027,-1.0429993,-0.28605652
1631,A,1553874836438242,0.46046448,8.560516,3.383728,1.127655,0.062088013,0.06323242
1631,A,1553874886792246,-1.7925262,14.176437,-2.0349884,0.7514038,-0.23475647,-0.039886475
1631,A,1553874937146249,-1.128128,7.844803,-6.941498,0.7512207,-0.21440125,-0.6460724
1631,A,1553874987500253,1.1248474,10.711029,3.2818604,0.90078735,-0.33042908,-1.0462341
1631,A,1553875037854257,2.7623901,8.945267,-1.4403687,0.18965149,-0.18650818,-0.8041687
1631,A,1553875088208261,-0.016983032,9.096283,-2.2084808,-0.46121216,0.18057251,-0.05406189
1631,A,1553875138562265,-0.088653564,9.254959,-1.4905243,-2.286148,0.23069763,0.48846436
1631,A,1553875188916269,-0.1292572,8.8446045,-1.2226563,-3.292282,1.1732178,1.0305023
1631,A,1553875239270273,-0.3927307,10.521942,-1.5039978,-2.6194763,-0.3998108,0.8655243
1631,A,1553875289624277,1.9272003,12.522644,-0.6711273,-2.3579407,-0.27104187,1.7403412
1631,A,1553875339978281,1.9518433,12.0481415,0.3122406,-1.5449982,2.0839844,1.5387268
1631,A,1553875390332285,-0.0539093,10.484314,-4.1978455,-0.838501,2.640396,0.7322998
1631,A,1553875440686289,-3.2937622,13.712189,-0.121673584,0.41278076,1.1874847,0.41836548
1631,A,1553875491040292,-7.405014,14.22995,-0.5393524,2.1839447,-0.6717682,0.02394104
1631,A,1553875541394296,2.719345,10.001129,-0.233078,2.2014618,-2.1711578,-1.631897
1631,A,1553875591748300,3.6829224,7.714035,-0.6874237,0.76727295,-1.475357,0.046661377
1631,A,1553875642102304,-3.511444,3.671814,-0.18981934,2.26326,-0.34761047,-0.6850586
1631,A,1553875692456308,-3.9474182,1.4064941,-0.40963745,1.629242,-0.8168793,-0.09738159
1631,A,1553875742810312,-1.6631165,1.1107635,3.5860748,0.024627686,0.12890625,-1.7116089
1631,A,1553875793164316,-1.6125488,16.90709,1.1876068,2.74646,-2.315033,-0.46279907
1631,A,1553875843518320,0.8784485,-0.2073822,8.633759,0.4896698,1.2507172,-0.13438416
1631,A,1553875893872324,-3.6017609,13.236023,-11.760559,0.76864624,-0.23257446,0.10180664
1631,A,1553875944226328,-0.25730896,7.4572754,-1.7284698,0.742157,-0.60173035,-0.48683167
1631,A,1553875994580332,-4.0592804,0.008804321,-9.703629,0.8887787,-0.87283325,-1.1550446
1631,A,1553876044934335,3.1638184,9.527359,-10.566177,0.2624054,-0.62286377,-0.8521271
1631,A,1553876095288339,-0.15957642,10.310013,-1.0223694,-0.3742981,0.27978516,-0.10935974
1631,A,1553876145642343,0.21585083,8.600662,-1.4840088,-1.9933319,0.14205933,0.6919708
1631,A,1553876195996347,0.8325348,8.897644,-1.1556549,-3.6258545,1.8393707,1.1187286
1631,A,1553876246350351,-0.39042664,10.391174,-0.8530121,-2.8953705,0.20733643,0.31652832
1631,A,1553876296704355,1.0549011,11.668762,-0.7437134,-2.4302673,-2.5227966,2.7516327
1631,A,1553876347058359,3.2520752,11.521439,-1.0952606,-1.6549072,1.4884491,1.5901947
1631,A,1553876397412363,0.34121704,11.668106,-4.4745483,-0.7472992,2.7107086,0.87968445
1631,A,1553876447766367,-3.74234,12.358353,-0.02041626,0.5448761,1.6449432,0.58709717
1631,A,1553876498120371,-9.1059265,14.809448,-1.6754761,1.3631287,-0.72831726,-0.248703
1631,A,1553876548474374,3.8118896,9.816025,0.10316467,3.5464172,-2.3965302,-1.8780518
1631,A,1553876598828378,2.9565735,8.241959,2.696518,-0.63812256,-0.5940094,1.2387543
1631,A,1553876649182382,-1.8605957,3.4108124,-0.33396912,2.0052032,-0.51049805,-0.57315063
1631,A,1553876699536386,-2.6916046,2.2523956,0.35011292,-0.4945526,-0.29652405,-0.8625183
1631,A,1553876749890390,0.21273804,0.87727356,1.7344513,1.4355011,1.04245,-0.96580505
1631,A,1553876800244394,6.6440735,13.72493,7.233917,1.7208405,-0.82403564,-0.59799194
1631,A,1553876850598398,3.888977,11.807617,12.9808655,0.3626709,0.57554626,-0.36021423
1631,A,1553876900952402,-4.499756,7.440567,-8.020889,0.87080383,-0.32395935,0.13699341
1631,A,1553876951306406,0.9654236,11.443283,12.510483,0.76075745,-0.24810791,-0.28381348
1631,A,1553877001660410,-1.1085815,4.4018707,-9.414551,0.95713806,-0.47096252,-0.8930359
1631,A,1553877052014414,-2.5303345,12.536484,1.93013,0.6235504,-0.9711609,-1.0139313
1631,A,1553877102368417,1.0234528,9.297104,-2.2797241,-0.19692993,-0.5792999,-0.4337616
1631,A,1553877152722421,0.1113739,9.229126,-2.5253296,-1.1389313,0.014190674,0.47538757
1631,A,1553877203076425,-0.3079834,8.557571,-1.9943237,-3.279602,1.3133545,0.9632263
1631,A,1553877253430429,-0.78356934,9.533997,-1.4236755,-3.2819366,1.4854126,1.1863861
1631,A,1553877303784433,0.36228943,11.66391,-0.86265564,-2.6609802,-1.6580353,1.7014313
1631,A,1553877354138437,4.058777,12.9088745,-0.9548645,-2.394104,1.0218658,1.6799774
1631,A,1553877404492441,1.735611,14.119354,-0.20121765,-1.1875458,2.2093658,1.3082275
1631,A,1553877454846445,-2.5913696,12.037201,-1.2474518,-0.20883179,1.6019745,0.848526
1631,A,1553877505200449,-5.19458,14.202606,-1.169342,1.453125,-0.17926025,0.095825195
1631,A,1553877555554453,-2.6998138,10.511398,-0.4013672,2.4148102,-1.0562286,-1.160965
1631,A,1553877605908457,1.4437561,8.732147,2.588562,1.2668457,-1.496872,-1.4693604
1631,A,1553877656262460,-1.5934448,6.183075,-0.5420685,1.2985382,-0.36764526,0.20521545
1631,A,1553877706616464,-3.5796967,1.8278351,1.3665924,2.4553375,-1.9985809,-0.555542
1631,A,1553877756970468,-1.3379517,2.0768127,-0.24006653,1.6909332,-1.904953,-0.6898651
1631,A,1553877807324472,-1.5032196,5.3157043,3.282669,0.1582489,0.21820068,-1.5359802
1631,A,1553877857678476,-1.9750977,13.169128,6.0854187,1.4776917,-1.1080627,0.29515076
1631,A,1553877908032480,-1.8907776,0.97413635,1.710434,0.58000183,0.23765564,-0.13072205
1631,A,1553877958386484,-5.690338,13.055145,-15.453064,0.77337646,-0.1875763,-0.19340515
1631,A,1553878008740488,-0.5871277,3.1403198,-1.585144,0.8959656,-0.4525299,-0.7501221
1631,A,1553878059094492,-2.6723328,4.108124,3.0624237,0.707077,-0.92648315,-1.053894
1631,A,1553878109448496,0.82592773,7.8288574,-4.1496735,0.04685974,-0.7495575,-0.51841736
1631,A,1553878159802499,0.3477478,9.713135,-0.53671265,-0.95277405,-0.28781128,0.29467773
1631,A,1553878210156503,-0.19697571,8.364929,-1.9012604,-2.5513306,0.41506958,0.90463257
1631,A,1553878260510507,-0.60050964,9.080673,-1.5817719,-3.1862335,1.4837799,1.1627197
1631,A,1553878310864511,-0.08047485,11.775696,-1.228653,-2.6987915,-0.3076477,1.394516
1631,A,1553878361218515,1.5809937,12.78772,-0.19685364,-2.082367,-0.21336365,2.1002197
1631,A,1553878411572519,1.1815491,12.185669,-0.8366852,-1.1940918,2.108261,1.4680023
1631,A,1553878461926523,-1.1559753,11.75502,-2.066101,-0.49305725,2.4133759,0.86416626
1631,A,1553878512280527,-4.539627,12.394775,-1.5367737,0.6122284,0.91490173,0.3761444
1631,A,1553878562634531,-3.6768646,14.227631,-0.87991333,2.5291748,-1.0180969,-0.89208984
1631,A,1553878612988535,1.9335327,10.799149,1.9148407,1.9045563,-1.1388397,-0.7100525
1631,A,1553878663342539,0.87898254,6.3118744,0.25909424,0.5966034,-0.27131653,0.3635559
1631,A,1553878713696542,-2.808609,2.8108978,-1.3234863,0.46170044,-0.9575348,-0.37696838
1631,A,1553878764050546,-2.0430756,1.6828918,0.7516327,0.2610321,-0.9062042,-0.43429565
1631,A,1553878814404550,1.3721313,5.7579346,3.79776,2.119339,-0.41304016,-0.4745636
1631,A,1553878864758554,3.6271515,12.838196,9.612564,1.2330017,0.13044739,-0.3935089
1631,A,1553878915112558,0.92910767,9.706207,4.0645447,0.67111206,0.020843506,0.114730835
1631,A,1553878965466562,2.091629,11.166992,5.8098145,0.82051086,-1.2358551,-0.02041626
1631,A,1553879015820566,1.7790375,11.223465,3.633194,0.82225037,-1.1187592,-0.6727295
1631,A,1553879066174570,-3.3749237,6.576599,-6.0753784,0.6562195,-1.1877747,-0.96333313
1631,A,1553879116528574,2.0140228,10.257721,-0.7611084,0.021316528,-0.9330597,-0.55662537
1631,A,1553879166882578,3.2498932,9.425262,-2.879715,-0.7735138,-0.44618225,0.1802063
1631,A,1553879217236582,-0.41601563,8.626984,-2.047638,-2.6043396,0.29205322,0.7386322
1631,A,1553879267590585,-0.034866333,8.849335,-1.6391754,-3.2058563,1.6058655,1.0796814
1631,A,1553879317944589,0.37998962,11.0979,-1.1039886,-2.6840973,0.29151917,1.9091644
1631,A,1553879368298593,2.4140625,11.654846,-0.9282379,-2.7103424,0.12609863,1.9869995
1631,A,1553879418652597,3.5801392,12.334579,-0.51651,-1.7441406,1.6594696,1.4903564
1631,A,1553879469006601,0.99523926,11.235474,-0.44126892,-0.4338684,2.2489471,1.0874939
1631,A,1553879519360605,-2.9989471,14.167694,-1.3564606,0.46783447,1.0631866,0.23570251
1631,A,1553879569714609,-3.8653107,14.474716,-1.8295135,2.0207214,-0.9444275,-1.2940369
1631,A,1553879620068613,-0.12107849,9.230576,2.483078,0.8892975,-1.2219543,-2.6133575
1631,A,1553879670422617,0.45993042,7.000778,2.3038177,1.1191406,-0.37124634,-0.27459717
1631,A,1553879720776621,-1.8223114,4.4192657,1.1506958,2.5472565,-0.9064026,-0.32037354
1631,A,1553879771130624,-2.9014435,1.0134125,-0.9281006,2.693985,-3.250946,-0.19378662
1631,A,1553879821484628,-0.5932007,1.3395996,1.722229,0.30360413,-0.1265564,-1.0864868
1631,A,1553879871838632,2.000885,13.417252,5.6445923,1.3649292,-0.69322205,-0.18934631
1631,A,1553879922192636,4.3042297,6.524826,6.195221,0.9883728,-0.071380615,0.11885071
1631,A,1553879972546640,-4.719345,9.311829,-8.283966,0.5843506,0.03137207,-0.04663086
1631,A,1553880022900644,-3.6167297,7.1600494,-6.9892883,0.73353577,-0.41282654,-0.38679504
1631,A,1553880073254648,-2.7330017,3.781433,1.6637878,0.9386139,-0.6513672,-0.9495239
1631,A,1553880123608652,0.9647827,7.039215,-3.031662,0.6460266,-0.6579437,-1.0073242
1631,A,1553880173962656,0.47499084,9.981918,-1.9500885,-0.0309906,-0.25595093,-0.49913025
1631,A,1553880224316660,-1.1647034,9.484604,-1.237503,-1.3566437,-0.34028625,0.23490906
1631,A,1553880274670664,-0.7412567,7.979431,-1.5512695,-3.2109833,0.7915039,1.376236
1631,A,1553880325024667,-0.14614868,9.797501,-1.6222992,-3.0902252,1.0219269,0.898407
1631,A,1553880375378671,-0.07865906,11.159271,-1.2637482,-2.5141754,-1.9532471,1.819458
1631,A,1553880425732675,1.583725,11.188644,-2.074997,-1.9951172,0.6657562,1.6677246
1631,A,1553880476086679,1.2516937,13.977798,-2.8910675,-1.4407654,1.97995,1.2433472
1631,A,1553880526440683,-2.0921783,11.106705,-2.0810394,-0.21813965,1.1082764,0.95744324
1631,A,1553880576794687,-7.534149,14.318344,-0.6557007,1.0152588,-0.15708923,0.08274841
1631,A,1553880627148691,-1.291275,11.776138,0.956131,3.2988281,-0.66130066,-1.2890472
1631,A,1553880677502695,2.2120209,8.860107,0.97468567,-0.7404022,-0.82647705,0.69628906
1631,A,1553880727856699,-1.7817993,5.0561676,-0.65293884,1.6197357,-0.066986084,-0.4213562
1631,A,1553880778210703,-2.8889313,2.901886,-0.30819702,0.14041138,0.21472168,-1.3960266
1631,A,1553880828564707,-2.1703033,1.7728424,2.5782013,2.2321167,0.34703064,-0.085510254
1631,A,1553880878918710,-1.1967468,4.462631,4.201996,0.15576172,0.056549072,-1.0673065
1631,A,1553880929272714,9.460709,17.338303,10.571442,0.8833313,0.020339966,-0.20228577
1631,A,1553880979626718,5.5760193,6.1279297,1.8113403,1.0415344,0.14628601,0.112075806
1631,A,1553881029980722,-7.6393433,17.507492,0.75697327,0.8991089,0.15953064,-0.10838318
1631,A,1553881080334726,-0.18234253,4.7008667,-12.988861,1.0742035,-0.26531982,-0.73384094
1631,A,1553881130688730,-5.628891,12.134811,13.361664,0.9912262,-0.8933563,-0.992157
1631,A,1553881181042734,3.1042786,8.152344,-2.6946564,0.03390503,-0.6794739,-0.7137451
1631,A,1553881231396738,-2.4815369,10.022369,-1.5467377,-0.3299408,-0.16307068,0.27737427
1631,A,1553881281750742,-1.2235413,8.571945,-1.9288483,-2.3306885,-0.23756409,0.97247314
1631,A,1553881332104746,-2.2427826,7.962326,-1.8844452,-3.5056763,1.5379639,1.5962982
1631,A,1553881382458749,0.086380005,12.287094,-1.3394165,-2.7466888,-0.2243805,1.0733185
1631,A,1553881432812753,2.4647064,12.4791565,-1.4686127,-2.7185516,-1.2583771,1.8229218
1631,A,1553881483166757,0.8852997,12.666733,-0.4288025,-1.7707214,1.3957214,1.4435272
1631,A,1553881533520761,-0.674057,13.253708,-3.0567627,-1.13768,1.8560028,1.0433807
1631,A,1553881583874765,-5.4286804,12.45784,-0.85066223,0.61058044,0.39630127,0.21989441
1631,A,1553881634228769,-8.9262085,11.980301,-0.87805176,1.9292603,-0.24285889,-0.7992096
1631,A,1553881684582773,-0.30451965,11.19574,2.683792,3.078827,-1.2891235,-2.314621
1631,A,1553881734936777,0.39863586,7.580017,-0.9161377,-0.39100647,-1.2023926,1.1314087
1631,A,1553881785290781,-4.485977,1.73349,1.2658844,2.885315,-1.1264191,-1.7753143
1631,A,1553881835644785,-1.1304626,2.690033,-1.057312,1.4914703,-0.09552002,-0.21243286
1631,A,1553881885998789,-0.6809845,2.6204681,2.5788116,0.32000732,1.0458527,-1.4389343
1631,A,1553881936352792,2.3183136,17.464828,3.8553467,2.486908,-0.15875244,0.027359009
1631,A,1553881986706796,4.583435,4.284622,13.479218,0.3516388,0.28024292,-0.29867554
1631,A,1553882037060800,-4.2665253,11.207687,-12.491928,0.85705566,0.00630188,0.11431885
1631,A,1553882087414804,2.4400482,6.335373,2.3421783,0.7619934,-0.22142029,-0.3538208
1631,A,1553882137768808,-2.5749054,2.2068176,-9.847412,0.9322357,-0.6438904,-1.1057587
1631,A,1553882188122812,0.6764679,9.758301,-3.0864716,0.41983032,-0.8218689,-0.99642944
1631,A,1553882238476816,1.3193665,9.320511,0.056503296,-0.38476563,-0.07232666,-0.29637146
1631,A,1553882288830820,-0.854187,9.501999,-2.0067139,-1.5321198,0.067871094,0.70458984
1631,A,1553882339184824,-1.7391052,8.278534,-2.2699127,-3.4217987,0.64216614,1.3318329
1631,A,1553882389538828,-2.0225983,10.680054,-1.6986847,-2.9586487,0.25178528,1.4003601
1631,A,1553882439892832,-0.055038452,11.521866,-0.8208008,-2.3721008,-1.7232208,2.0777283
1631,A,1553882490246835,3.2815552,12.210617,-1.7058868,-1.7462158,1.1833191,1.884613
1631,A,1553882540600839,-0.41461182,13.845886,-1.7295685,-1.1615295,1.9792633,1.1878967
1631,A,1553882590954843,-4.0881042,10.987167,-1.1085815,0.1224823,1.4283905,0.61517334
1631,A,1553882641308847,-5.347229,14.007111,-1.3686523,1.659378,-0.38223267,-0.32861328
1631,A,1553882691662851,5.093384,11.1644745,-0.71817017,2.476242,-1.1777039,-0.86198425
1631,A,1553882742016855,1.8729401,8.954697,1.9446106,-0.19326782,-1.7031097,0.23803711
1631,A,1553882792370859,-2.0775604,3.879425,0.20457458,1.3862457,0.483963,-0.43530273
1631,A,1553882842724863,-3.030365,0.77835083,0.9121094,0.41667175,-0.18919373,-1.3191528
1631,A,1553882893078867,-1.5107117,2.1645813,0.7073059,2.2109375,-0.045669556,-0.1496582
1631,A,1553882943432871,0.4775238,6.5015106,5.7710724,0.3352661,-0.770813,-0.93573
1631,A,1553882993786874,10.878693,15.421738,9.321106,0.58470154,0.18644714,-0.2068634
1631,A,1553883044140878,-0.3199005,6.680374,-0.66290283,0.84451294,0.043701172,0.06732178
1631,A,1553883094494882,-8.64595,14.751526,-5.635132,0.7959595,-0.16854858,-0.43240356
1631,A,1553883144858224,-0.4304657,4.4302216,-5.1456604,0.8981781,-0.4026184,-1.0238495
1631,A,1553883195212228,-3.9477844,11.548553,10.546722,0.53590393,-0.7201996,-1.0794373
1631,A,1553883245566232,0.6662445,7.3559265,-3.0513458,-0.24871826,-0.5175934,-0.31196594
1631,A,1553883295920236,-1.6796875,9.039581,-2.4209747,-1.3920593,0.10699463,0.6658783
1631,A,1553883346274240,-1.4772491,8.665497,-2.2168121,-3.0766144,0.7622833,1.2917786
1631,A,1553883396628244,-1.4280701,9.545044,-1.4445038,-3.0569763,0.37545776,1.5455322
1631,A,1553883446982248,0.64756775,11.9487915,-1.0134125,-2.3577423,-1.1195374,1.6317291
1631,A,1553883497336252,2.158783,12.783554,-0.5341034,-1.9816437,0.40899658,1.9079437
1631,A,1553883547690255,0.48779297,12.67131,-0.6757965,-1.3023071,2.287384,1.365921
1631,A,1553883598044259,-2.6759338,13.332108,-1.6619263,-0.32133484,1.8562012,0.7310486
1631,A,1553883648398263,-5.743149,14.154297,-1.7456055,1.2325745,0.14561462,0.06159973
1631,A,1553883698752267,-2.426117,11.976105,-0.6882019,2.762436,-1.3428192,-1.3669281
1631,A,1553883749106271,1.2357635,9.43631,2.1334686,1.9080505,-1.4679413,-1.2163544
1631,A,1553883799460275,-0.57325745,5.5612946,-0.78401184,1.158432,-0.6274414,-0.1187439
1631,A,1553883849814279,-3.3866882,2.80336,-0.41175842,2.4679413,-0.5192108,-0.4194336
1631,A,1553883900168283,-1.6428528,2.1280823,0.566803,0.60317993,-0.017181396,-0.61872864
1631,A,1553883950522287,0.24427795,9.061554,2.6996155,1.132782,-0.9300842,-1.3619232
1631,A,1553884000876291,1.8072052,12.827301,6.6739197,1.6168213,-1.0442657,-0.49443054
1631,A,1553884051230295,-0.50224304,7.3647766,0.53344727,0.6331482,0.39826965,-0.096572876
1631,A,1553884101584298,-0.10702515,9.168686,-6.115341,0.83251953,-0.32107544,-0.24623108
1631,A,1553884151938302,-1.0187073,3.487671,-1.0002136,0.9671173,-0.5430603,-0.84317017
1631,A,1553884202292306,-2.2986755,5.659668,-7.214737,0.7663727,-1.0052795,-1.1086426
1631,A,1553884252646310,0.36003113,10.428848,-4.348648,0.07035828,-0.901474,-0.7147522
1631,A,1553884303000314,-1.445343,9.213364,-1.5121155,-0.8564148,-0.18096924,0.23043823
1631,A,1553884353354318,-1.5615845,8.468567,-1.8631744,-2.4634857,0.67129517,1.3139343
1631,A,1553884403708322,-1.6200256,9.414734,-1.956543,-3.3037415,0.7909851,1.4030151
1631,A,1553884454062326,-0.36128235,10.884216,-1.7224121,-2.7294006,-1.0811768,1.4431305
1631,A,1553884504416330,1.3747406,11.790451,-1.2612305,-2.0263214,-0.24049377,1.9508209
1631,A,1553884554770334,0.5418396,13.546341,-1.9333649,-1.5898895,1.7159119,1.6615753
1631,A,1553884605124337,-2.1986237,12.587814,-2.0357819,-0.71022034,1.7802429,1.0095367
1631,A,1553884655478341,-6.5010376,12.342987,-1.0457458,0.6641083,0.588974,0.38900757
1631,A,1553884705832345,-5.370636,11.828888,0.8737793,2.7187347,-0.30895996,-0.7550354
1631,A,1553884756186349,0.1666565,9.130554,1.1977539,0.74272156,-0.99772644,-0.5544586
1631,A,1553884806540353,0.074539185,6.3021545,-0.26478577,0.76501465,-0.6188812,-0.21211243
1631,A,1553884856894357,-2.7485504,3.3907776,0.4037323,0.6438141,0.19546509,-0.3246765
1631,A,1553884907248361,-1.6563416,2.8208008,0.766037,0.6713867,0.88853455,-0.31793213
1631,A,1553884957602365,-0.6566467,3.2280731,3.3787537,1.5048981,0.23098755,-0.66085815
1631,A,1553885007956369,1.9922943,13.401901,8.428513,0.7207184,0.026809692,-0.68048096
1631,A,1553885058310373,3.0296326,10.037186,5.573868,0.57754517,-0.23571777,-0.09577942
1631,A,1553885108664377,-2.8166504,14.120972,2.3864899,0.67678833,-0.5489197,-0.2245636
1631,A,1553885159018380,-0.7064667,8.036972,-4.869171,0.86213684,-0.5389862,-0.6681671
1631,A,1553885209372384,-3.551056,8.833572,1.3119507,0.9471283,-0.7469635,-1.0351105
1631,A,1553885259726388,-1.359436,9.122589,1.135498,0.3591919,-0.71183777,-0.9162903
1631,A,1553885310080392,-1.2966156,8.845612,-1.929306,-0.30459595,0.06665039,-0.127182
1631,A,1553885360434396,-1.769989,8.551239,-1.7801514,-1.7839508,0.09248352,0.7985382
1631,A,1553885410788400,-1.5543671,8.390121,-1.7313538,-3.189682,1.0898132,1.6122742
1631,A,1553885461142404,-0.5441437,10.385757,-0.88391113,-2.544815,0.12364197,1.7341003
1631,A,1553885511496408,1.4853363,12.996597,2.746582E-4,-2.386139,-0.70695496,2.386032
1631,A,1553885561850412,1.0157166,12.163483,-0.6911011,-1.6842041,1.2073822,1.9775085
1631,A,1553885612204416,0.8218689,12.576004,-1.1921387,-1.1097412,2.290802,1.1594849
1631,A,1553885662558420,-4.087311,11.691986,-0.5261688,0.011978149,1.1968536,0.6454468
1631,A,1553885712912423,-8.065353,12.073059,-1.0343475,1.3920746,-0.11743164,-0.19456482
1631,A,1553885763266427,-0.013839722,12.0477295,1.6338043,3.227356,-1.1551819,-1.9781342
1631,A,1553885813620431,2.3522186,8.501938,-0.33169556,0.029083252,-2.3233185,0.8373108
1631,A,1553885863974435,-2.5162048,5.144333,-0.4163971,2.109726,-0.7867584,-0.9082489
1631,A,1553885914328439,-3.1928558,3.184204,-0.3942871,-0.1532898,2.094818,-1.3145752
1631,A,1553885964682443,-1.5449829,1.8434296,1.126297,0.96777344,2.2534485,-0.77948
1631,A,1553886015036447,-0.12980652,9.427628,2.0142365,2.017624,-0.43489075,-0.47988892
1631,A,1553886065390451,9.684784,14.104919,7.157303,0.38432312,0.46409607,-0.3275299
1631,A,1553886115744455,3.5054016,8.518082,-2.117752,0.67129517,0.10523987,0.17645264
1631,A,1553886166098459,-4.4021454,17.517288,6.587143,0.65419006,-0.1253357,-0.04069519
1631,A,1553886216452462,-1.913269,5.812805,-8.363342,0.86276245,-0.17645264,-0.7221527
1631,A,1553886266806466,-3.563202,11.288345,0.20072937,0.8354492,-0.4815979,-1.1888123
1631,A,1553886317160470,1.0593414,9.32312,0.2227478,0.1784668,-0.37471008,-0.83065796
1631,A,1553886367514474,-0.6312866,9.764832,-1.9859467,-0.25842285,0.07527161,0.15574646
1631,A,1553886417868478,-2.0148468,7.9722595,-1.7961884,-1.9104004,-0.3127594,0.79159546
1631,A,1553886468222482,-1.5605774,8.955551,-1.9646149,-3.3246002,0.7045593,1.6862488
1631,A,1553886518576486,-0.8781433,10.447479,-0.91249084,-2.4022675,-0.021774292,1.6637573
1631,A,1553886568930490,1.5196838,12.51358,-1.5038452,-2.4075775,-0.8913269,2.2610168
1631,A,1553886619284494,1.6723938,12.704895,-0.13661194,-1.3273773,1.1468353,1.8496552
1631,A,1553886669638498,-1.2874756,13.198578,-2.3703156,-1.1444397,1.9594727,1.2188416
1631,A,1553886719992502,-4.2888184,11.144043,0.31533813,0.49328613,0.76000977,0.6214142
1631,A,1553886770346505,-7.0956116,12.468048,-0.71606445,1.6675873,-0.44747925,-0.46463013
1631,A,1553886820700509,1.9561157,11.099594,0.91645813,3.7240448,-1.120575,-1.9914856
1631,A,1553886871054513,1.1571198,8.230057,-0.73017883,-0.98062134,-2.2413788,1.7892151
1631,A,1553886921408517,-4.2341156,3.5872955,1.0227966,2.6513824,-1.3693695,-1.4368591
1631,A,1553886971762521,-1.4086914,2.591156,0.01373291,0.4474182,0.61972046,-0.3834076
1631,A,1553887022116525,-1.2609863,2.5035858,1.4760132,0.69589233,1.5232544,-1.6409607
1631,A,1553887072470529,-0.98573303,7.8943176,2.8261566,2.4773254,-1.5042114,-0.6822052
1631,A,1553887122824533,18.852722,19.371078,10.132004,0.50224304,0.5869446,-0.22610474
1631,A,1553887173178537,-2.2755432,6.56485,-9.476028,0.83270264,-0.021392822,0.09661865
1631,A,1553887223532541,-0.2104187,9.394562,3.9000854,0.68304443,-0.10243225,-0.17608643
1631,A,1553887273886545,-3.1224365,3.034439,-11.150772,0.8985748,-0.22798157,-0.9399872
1631,A,1553887324240548,2.5663147,12.619797,-4.8761444,0.64097595,-0.6832733,-1.0981445
1631,A,1553887374594552,-0.8088074,8.543701,-1.2575836,-0.16252136,-0.29364014,-0.5270996
1631,A,1553887424948556,0.46546936,9.741943,-1.9152832,-0.8204498,0.28541565,0.46495056
1631,A,1553887475302560,-1.357544,8.454102,-2.0459137,-2.921692,0.5370331,1.1974335
1631,A,1553887525656564,-1.6551056,8.840729,-2.2549896,-3.2125092,0.58891296,1.7393951
1631,A,1553887576010568,0.34249878,11.362122,-0.5977173,-2.184433,-1.6000519,1.6464539
1631,A,1553887626364572,3.2084503,11.96991,-1.7488861,-2.1026611,0.23049927,2.0578308
1631,A,1553887676718576,0.6638489,13.723907,-0.21055603,-1.2540283,1.9374084,1.624115
1631,A,1553887727072580,-2.210556,12.293167,-1.6441345,-0.5385895,2.0539246,0.8407593
1631,A,1553887777426584,-6.596405,14.291428,0.450531,1.0962372,0.1334076,0.16020203
1631,A,1553887827780587,-5.997345,10.272766,-1.4504395,2.3318024,-0.91922,-1.170517
1631,A,1553887878134591,1.4742126,11.17569,2.4385986,2.3793488,-1.1863098,-1.8072052
1631,A,1553887928488595,0.47802734,7.648926,-0.8800354,0.16845703,-1.4815826,0.49588013
1631,A,1553887978842599,-3.3391113,2.81633,0.52767944,2.5830536,-0.73280334,-1.4454651
1631,A,1553888029196603,-2.3355713,1.88414,-0.87835693,0.99108887,-0.46948242,0.06828308
1631,A,1553888079550607,-1.0269928,4.8489685,2.4314575,0.66056824,0.683197,-1.4623413
1631,A,1553888129904611,0.93096924,13.080078,6.416748,1.8863068,-0.9921875,-0.31739807
1631,A,1553888180258615,6.9018097,5.515976,6.6440735,0.41577148,-0.04647827,-0.26383972
1631,A,1553888230612619,-3.0891724,10.415115,-9.1119995,0.6477814,-0.4189453,-0.04888916
1631,A,1553888280966623,0.39320374,5.267151,2.1592102,0.75538635,-0.28868103,-0.34335327
1631,A,1553888331320627,-2.6507416,4.703766,-8.11348,0.83883667,-0.35772705,-0.95158386
1631,A,1553888381674630,1.2219543,10.130737,-3.5192108,0.45262146,-0.8487549,-1.0486908
1631,A,1553888432028634,-0.3288269,9.015442,-1.2099457,-0.2844391,-0.73327637,-0.37451172
1631,A,1553888482382638,-0.14482117,9.031631,-1.7880096,-1.4327698,-0.15306091,0.67996216
1631,A,1553888532736642,-0.947525,8.630005,-1.9873352,-3.173355,0.4576416,1.4090576
1631,A,1553888583090646,-1.1394501,9.739563,-1.9511719,-2.9937286,0.4293213,1.7493591
1631,A,1553888633444650,0.2594757,11.384628,-0.7927246,-2.0482788,-1.3197021,2.0893097
1631,A,1553888683798654,3.298996,12.50769,-0.49923706,-1.7973938,0.044387817,2.2250214
1631,A,1553888734152658,0.9842529,12.885117,-0.04032898,-1.0263519,1.7821198,1.3952942
1631,A,1553888784506662,-3.2647247,12.277634,-0.7935486,0.01524353,1.7100067,0.50053406
1631,A,1553888834860666,-5.879135,12.879028,-0.5719147,1.6075745,0.27275085,-0.45896912
1631,A,1553888885214670,-3.8295135,10.989304,-1.516922,2.7072754,-0.62709045,-1.6945953
1631,A,1553888935568673,0.89712524,9.727417,1.5983887,1.6637726,-0.72647095,-1.1384125
1631,A,1553888985922677,-0.3929596,6.037964,0.3736725,0.94351196,-1.5423431,-0.20129395
1631,A,1553889036276681,-2.0785065,2.8412323,0.46420288,2.17247,-1.6552277,-0.98309326
1631,A,1553889086630685,-1.16745,2.8197021,0.15145874,0.5471039,0.73088074,-0.21138
1631,A,1553889136984689,-2.1409302,8.7421875,3.022522,1.1059418,0.25177002,-0.8267212
1631,A,1553889187338693,0.011642456,12.294952,5.069687,1.5613403,-1.0259552,-0.29092407
1631,A,1553889237692697,1.3150635,6.447754,1.5258789E-5,0.5410156,0.6660309,-0.15733337
1631,A,1553889288046701,0.6345825,9.949005,-6.7313995,0.67329407,0.17147827,-0.1547699
1631,A,1553889338400705,0.8276825,5.8453064,-4.2403717,0.80033875,-0.1976471,-0.6443634
1631,A,1553889388754709,-3.1566925,6.518463,-5.9587555,0.72528076,-0.7207947,-1.0228424
1631,A,1553889439108712,-0.4600067,9.07077,-3.024063,0.12478638,-0.5635376,-0.76646423
1631,A,1553889489462716,0.1887207,9.398682,-2.3245087,-0.8107147,-0.2858734,0.0927887
1631,A,1553889539816720,-0.7133484,8.505569,-2.2400208,-2.5286713,0.17939758,1.0231781
1631,A,1553889590170724,-1.9955292,9.197952,-1.9860535,-3.2107697,0.63757324,1.5773621
1631,A,1553889640524728,-1.0181732,10.884628,-1.6728668,-2.4301453,-0.86808777,1.7597046
1631,A,1553889690878732,1.803894,11.396805,-1.3399048,-1.7876587,-0.87272644,2.0702972
1631,A,1553889741232736,1.8380585,12.895035,-0.4259491,-1.3291931,1.4338684,1.7099304
1631,A,1553889791586740,-1.4507141,11.821991,0.033615112,-0.42803955,2.1853638,0.9352112
1631,A,1553889841940744,-4.7180786,13.503754,-1.567337,0.6461029,0.8889618,0.04133606
1631,A,1553889892294748,-3.7064514,13.026657,-2.6704254,2.8233185,-0.49967957,-1.1438904
1631,A,1553889942648752,1.458664,9.297867,0.71655273,1.190094,-1.6511688,0.32537842
1631,A,1553889993002755,1.142456,7.0077057,0.9534149,0.96162415,-1.699646,0.44487
1631,A,1553890043356759,-2.2052612,3.1237335,-0.21456909,-0.59155273,1.2108307,-1.2365875
1631,A,1553890093710763,-2.244629,1.2849426,-0.72317505,0.2762146,0.9516754,-1.9664612
1631,A,1553890144064767,-1.6073608,2.0220642,3.466507,1.9543304,-0.32388306,-0.9744568
1631,A,1553890194418771,7.2175446,12.744202,9.353409,1.1490021,0.5223694,-0.2190094
1631,A,1553890244772775,4.844803,10.869293,0.6051483,0.5665436,-0.05319214,0.08013916
1631,A,1553890295126779,-6.066696,12.214386,0.87657166,0.64845276,-0.28349304,0.05480957
1631,A,1553890345480783,-5.0234222,7.2069244,-4.696457,0.8907471,0.015197754,-0.5776367
1631,A,1553890395834787,-1.9241791,9.360214,-3.2985535,0.81147766,-0.53544617,-1.0709534
1631,A,1553890446188791,1.2375488,10.412827,-1.7628937,0.18113708,-0.40005493,-0.9395294
1631,A,1553890496542795,0.647171,9.289139,-2.531021,-0.546463,-0.003768921,0.07991028
1631,A,1553890546896798,-0.8673706,8.797668,-1.5214539,-2.5248566,0.93592834,1.3143921
1631,A,1553890597250802,-2.2300262,8.877823,-1.7394409,-3.215683,1.8340607,1.8444366
1631,A,1553890647604806,1.1962585,10.722214,-0.5553436,-1.7561188,-1.1845245,1.8893585
1631,A,1553890697958810,2.7824097,12.230621,-1.0027008,-2.7091827,-0.7305298,2.1886597
1631,A,1553890748312814,2.3366852,13.4157715,0.7522583,-1.8916931,1.4545288,1.6684113
1631,A,1553890798666818,-1.0117035,12.248962,-3.5206757,-0.7433777,2.5969696,0.68348694
1631,A,1553890849020822,-5.84256,15.71994,-2.1385498,0.44885254,1.1389465,0.3005371
1631,A,1553890899374826,-9.950455,9.861923,-0.19802856,2.6949768,-0.6755829,-0.5246277
1631,A,1553890949728830,3.0840302,7.1782684,0.14855957,2.36409,-2.1434479,-1.2727203
1631,A,1553891000082834,3.342041,7.234268,-0.06317139,0.54826355,0.48646545,0.29592896
1631,A,1553891050436837,-1.4425049,5.141861,-0.144104,2.3012238,-1.3052979,-1.8266754
1631,A,1553891100790841,-2.6833344,0.83709717,-0.9797058,1.6328125,-1.2003174,-0.04536438
1631,A,1553891151144845,-1.0436096,0.19703674,2.3252106,-0.065597534,-0.9032898,-2.0700378
1631,A,1553891201498849,-6.241287,15.689499,-1.039566,1.7155609,-0.5839691,0.27523804
1631,A,1553891251852853,7.578354,2.7514954,4.576477,0.7580261,-0.74812317,0.15486145
1631,A,1553891302206857,-5.568741,15.754623,-10.842224,0.5263519,-0.909729,-0.05670166
1631,A,1553891352560861,0.49179077,4.0495605,4.0476074,0.6194,-1.0579529,-0.6482544
1631,A,1553891402914865,-5.815048,2.5277557,-3.434616,0.59580994,-1.2723389,-1.1255188
1631,A,1553891453268869,-0.5869751,7.9850464,-6.376526,0.09538269,-0.7649689,-0.89245605
1631,A,1553891503622873,0.73680115,10.793671,-0.014373779,-0.5013275,0.01637268,-0.039413452
1631,A,1553891553976877,-0.029968262,9.08667,-2.1529846,-2.0334625,0.80122375,0.77989197
1631,A,1553891604330880,0.9556885,8.768539,-1.5648193,-3.2103577,2.1239777,1.9477692
1631,A,1553891654684884,1.2265778,10.505066,-0.83180237,-2.1460876,0.075424194,1.1786041
1631,A,1553891705038888,3.5826416,11.719788,-2.2262726,-2.5134583,0.22892761,2.9981537
1631,A,1553891755392892,2.7084198,10.704559,0.39942932,-1.4823151,1.6301727,1.3709259
1631,A,1553891805746896,2.5836182,11.131439,-1.6054688,-1.1526184,2.3361816,1.1520233
1631,A,1553891856100900,-2.5795746,14.585495,1.3431396,0.49873352,0.8726349,0.7149658
1631,A,1553891906454904,-5.9696503,18.517105,-4.256897,1.7734528,-0.6386719,-0.15971375
1631,A,1553891956808908,5.38974,10.037689,-3.8311005,4.106598,-1.3659363,-2.4008179
1631,A,1553892007162912,4.074997,7.573471,1.602829,-0.68499756,-0.9805603,2.391098
1631,A,1553892057516916,-3.4108582,4.857025,-0.72384644,2.6954346,-3.233841,-1.2371521
1631,A,1553892107870920,-2.2668304,1.9673767,-0.8278351,-1.5757904,1.7283325,-0.4098816
1631,A,1553892158224923,0.22636414,2.2951355,1.4689484,2.113144,-0.1255188,-1.3334808
1631,A,1553892208578927,0.7078247,9.120605,4.755234,0.9875488,-1.7707977,-0.6050873
1631,A,1553892258932931,19.181702,19.574722,11.063309,0.784729,1.3007813,0.010253906
1631,A,1553892309286935,-0.16334534,5.3078613,-7.1705475,0.9815674,-0.844635,0.2780609
1631,A,1553892359640939,-2.8817444,11.318787,4.308304,0.6395111,-1.0496368,-0.5980072
1631,A,1553892409994943,-2.686081,1.5842438,-13.085205,0.7013855,-1.4617462,-0.95921326
1631,A,1553892460348947,-1.485672,13.430954,4.8559723,0.27633667,-1.2355499,-0.8354492
1631,A,1553892510702951,7.32222,9.070663,-6.0659027,-0.4396057,-1.0146637,-0.32792664
1631,A,1553892561056955,-1.7691498,10.075287,-3.7259521,-1.296341,0.44595337,0.57829285
1631,A,1553892611410959,0.993103,8.267212,-2.611557,-2.9633331,1.6911926,1.7731018
1631,A,1553892661764962,1.3764954,9.80896,-1.9130402,-2.380066,1.9765167,2.5081787
1631,A,1553892712118966,3.3355255,10.781464,0.23747253,-1.5287323,-1.4314575,2.174591
1631,A,1553892762472970,5.5707703,11.543671,0.029067993,-2.6038818,0.95687866,1.7138214
1631,A,1553892812826974,4.2194214,12.527206,-0.5288849,-0.85417175,2.2871552,0.8946533
1631,A,1553892863180978,-0.29833984,10.154892,-1.1041718,-0.12272644,1.5233154,0.6935272
1631,A,1553892913534982,-1.9267578,17.529388,-1.6071014,1.2049255,-0.58143616,-0.12463379
1631,A,1553892963888986,-6.625366,8.434372,-2.0753326,2.3891907,-1.4254456,-1.245575
1631,A,1553893014242990,7.921158,7.199478,4.5388947,0.093933105,-1.2789001,-0.3499756
1631,A,1553893064596994,-2.148056,5.631134,-2.0690155,0.7283783,0.26559448,-1.3064423
1631,A,1553893114955635,-3.8022766,2.9183197,-0.6619873,0.9402771,-0.14680481,-2.7857056
1631,A,1553893165309639,-1.0523682,2.4326477,-1.4553528,2.2000885,-0.7606354,-0.07525635
1631,A,1553893215663642,1.4436035,5.9359894,4.640747,0.06086731,-0.3582611,-1.5376434
1631,A,1553893266017646,7.108612,16.019196,6.144562,1.3128662,-0.380661,-0.29081726
1631,A,1553893316371650,-1.0411987,4.382492,-0.6546173,0.49273682,-0.64656067,-0.31881714
1631,A,1553893366725654,-9.1909485,15.629608,0.613678,0.45570374,-0.895401,-0.17630005
1631,A,1553893417079658,3.5775146,2.3973541,-4.442749,0.5450134,-0.6351166,-0.67155457
1631,A,1553893467433662,-2.4148865,8.553238,-2.4357605,0.39456177,-0.8383179,-0.9659424
1631,A,1553893517787666,0.41235352,7.535385,-3.4823914,-0.26757813,-0.6542511,-0.4519348
1631,A,1553893568141670,0.08621216,10.573242,0.010375977,-0.80548096,0.13821411,0.42152405
1631,A,1553893618495674,1.149826,9.013809,-0.8023987,-1.9221191,1.1062164,1.1263123
1631,A,1553893668849678,0.7214966,9.310257,-1.330658,-2.7919312,1.2406464,1.7437744
1631,A,1553893719203682,1.5989227,11.842026,-1.07341,-1.9962463,-0.09327698,2.091507
1631,A,1553893769557685,2.735672,11.985413,-0.3935089,-1.6502533,-0.21925354,2.730713
1631,A,1553893819911689,2.9646149,13.135529,-0.11349487,-1.0870667,1.36969,1.791626
1631,A,1553893870265693,-0.4126892,11.69545,-0.07739258,-0.28929138,2.1496582,0.95599365
1631,A,1553893920619697,-2.3695068,11.810501,-1.4963989,0.68740845,0.8228607,0.14013672
1631,A,1553893970973701,-1.3377686,14.981125,-3.9384155,2.128601,-0.70103455,-1.0997314
1631,A,1553894021327705,2.9567719,9.429672,0.09486389,1.983963,-1.2216492,-1.1507721
1631,A,1553894071681709,3.2586365,7.222229,1.5896149,0.22270203,-1.1245117,0.15635681
1631,A,1553894122035713,-1.239151,5.084427,-0.5112152,0.43063354,0.20835876,-0.98916626
1631,A,1553894172389717,-2.496704,3.5541687,-0.99313354,0.41389465,0.88591003,-1.5275421
1631,A,1553894222743721,-1.4836273,5.2656097,0.9717102,1.5159607,-0.52897644,-1.2635651
1631,A,1553894273097724,5.5189514,12.278702,4.2890778,0.47273254,0.13249207,-0.9661865
1631,A,1553894323451728,10.196625,15.572128,2.1863098,0.74812317,-0.03504944,-0.06236267
1631,A,1553894373805732,-4.2519073,11.046707,-1.8903046,0.5129852,-0.4708252,-0.14979553
1631,A,1553894424159736,-8.885712,10.749817,-4.3907166,0.5054474,-0.50149536,-0.43067932
1631,A,1553894474513740,-0.7965393,7.941864,-3.6480713,0.6177826,-0.34501648,-0.89094543
1631,A,1553894524867744,-0.4795227,9.746536,0.25769043,0.6028595,-0.41467285,-1.0229797
1631,A,1553894575221748,1.5973358,8.774124,-1.9008942,0.14990234,-0.074142456,-0.55329895
1631,A,1553894625575752,1.2034149,9.691086,-0.6672516,-0.5597534,-0.25305176,0.2796936
1631,A,1553894675929756,1.9134521,8.977478,-0.57540894,-1.8894653,0.100494385,1.2088318
1631,A,1553894726283760,-0.23016357,8.80069,-1.7840118,-2.7104034,1.0958252,1.6373444
1631,A,1553894776637764,-0.65301514,10.624115,-1.8861542,-2.1964417,0.37265015,2.3194427
1631,A,1553894826991767,2.0948334,11.503525,-2.5395966,-1.7314911,-9.460449E-4,2.6194916
1631,A,1553894877345771,2.885086,13.143906,-2.118744,-1.3600006,1.1700592,1.7729034
1631,A,1553894927699775,-0.6467743,11.955521,-1.6304169,-0.44935608,1.3981476,0.91693115
1631,A,1553894978053779,-2.4018555,12.553955,-2.8792114,0.69244385,0.49923706,-0.02003479
1631,A,1553895028407783,-1.2075348,12.94635,-2.724762,1.7335052,0.034088135,-1.1791992
1631,A,1553895078761787,1.3787537,9.644287,0.04248047,0.90016174,-0.46847534,-1.508316
1631,A,1553895129115791,1.5252075,7.948303,0.80152893,-0.057495117,-0.9031067,-0.3386383
1631,A,1553895179469795,-0.59329224,5.618973,0.047805786,1.4490814,-0.74580383,-2.1741333
1631,A,1553895229823799,-1.1863098,4.521103,-0.5179596,1.937973,-1.0262756,-0.76472473
1631,A,1553895280177803,-0.24821472,5.069916,0.6767578,0.40100098,-0.701004,-0.3948822
1631,A,1553895330531807,3.4990387,13.567184,8.914551,0.8972931,-0.9241028,-0.85401917
1631,A,1553895380885810,4.093643,10.449112,8.124756,0.7190857,-0.42991638,-0.37823486
1631,A,1553895431239814,-5.332062,6.3164215,0.22338867,0.4691925,-0.010879517,-0.27189636
1631,A,1553895481593818,0.3922577,8.375641,-0.87013245,0.65504456,0.0388031,-0.49853516
1631,A,1553895531947822,-1.4975739,3.9876099,-0.6630249,0.8611908,0.019851685,-0.7086487
1631,A,1553895582301826,-2.640976,6.2154694,-3.1405792,0.7312317,-0.34022522,-0.75154114
1631,A,1553895632655830,0.556839,10.273163,-2.2791595,0.11427307,-0.43391418,-0.34103394
1631,A,1553895683009834,0.5645447,10.772034,-1.5787811,-0.75302124,0.058258057,0.69792175
1631,A,1553895733363838,-0.81295776,8.516647,-2.1300812,-2.3162994,0.7746277,1.63591
1631,A,1553895783717842,-1.5234375,9.598114,-2.7483673,-2.760971,0.37420654,1.5253143
1631,A,1553895834071846,-0.41915894,10.712036,-1.4446259,-2.055313,-0.93740845,2.4242096
1631,A,1553895884425849,3.3955536,11.865097,-0.8028259,-1.7491913,0.3433075,2.341278
1631,A,1553895934779853,2.8105621,13.901093,-0.8447876,-1.2292023,1.706665,1.4280853
1631,A,1553895985133857,-1.9296112,11.9470825,-1.4554901,-0.25543213,1.224411,0.89250183
1631,A,1553896035487861,-4.9356995,12.320206,-2.828247,0.8798981,0.16140747,0.30082703
1631,A,1553896085841865,-0.13334656,11.813843,-2.6255493,2.5159454,-0.66638184,-1.170929
1631,A,1553896136195869,2.1999664,9.387909,0.2607422,0.26036072,-1.6282959,0.3395996
1631,A,1553896186549873,0.63442993,7.8515625,0.072891235,0.760025,-1.1130371,-0.14556885
1631,A,1553896236903877,-2.3982544,4.6405487,-0.041503906,-0.020141602,1.5995331,-2.606659
1631,A,1553896287257881,-0.89585876,3.5411835,-0.49073792,1.9060974,-0.003326416,-1.0486145
1631,A,1553896337611885,1.679718,5.290207,1.9580383,0.60150146,-1.4133759,-1.1886597
1631,A,1553896387965889,6.8313904,16.466507,8.052963,0.9335327,0.23164368,-0.06600952
1631,A,1553896438319892,0.7417755,7.1032867,-1.7889862,0.661499,-0.4942932,0.3297577
1631,A,1553896488673896,-9.637497,15.963867,-3.2381592,0.663147,-0.70098877,-0.30046082
1631,A,1553896539027900,-2.7337189,4.208374,-7.1532745,0.7536926,-0.76605225,-0.8918762
1631,A,1553896589381904,-3.3837585,9.086792,4.7100677,0.5050354,-0.99993896,-1.0227051
1631,A,1553896639735908,7.3051605,10.009506,-1.3204498,-0.16481018,-0.90431213,-0.6792908
1631,A,1553896690089912,0.28250122,10.116119,-1.4635468,-0.9690094,0.13546753,0.45367432
1631,A,1553896740443916,0.3890381,8.540726,-2.364029,-2.6455078,1.4017639,1.7071075
1631,A,1553896790797920,0.49917603,10.050919,-1.8043213,-2.728424,2.3336487,2.2301178
1631,A,1553896841151924,2.0566406,11.634033,-0.109054565,-1.6765289,-1.0349274,3.0028229
1631,A,1553896891505928,4.966446,11.538284,-0.8648529,-1.8322601,0.5247345,1.8301697
1631,A,1553896941859932,4.6208496,12.659073,-0.06852722,-1.1639557,1.9794617,1.2307129
1631,A,1553896992213935,0.730484,9.968323,-0.22277832,-0.21775818,1.6606598,0.8724518
1631,A,1553897042567939,-3.155838,17.267593,-4.257187,0.90878296,-0.3346405,0.19084167
1631,A,1553897092921943,-2.814743,10.329987,-1.7199097,3.0398254,-0.86857605,-1.4367828
1631,A,1553897143275947,5.49411,8.085312,1.7389221,-0.20037842,-1.5757904,0.75050354
1631,A,1553897193629951,-1.1016693,5.331009,-0.9758606,1.1686401,-0.6659546,-0.35728455
1631,A,1553897243983955,-2.6670532,3.3437042,-0.5508728,-0.47869873,1.2685089,-3.5602875
1631,A,1553897294337959,-1.5292664,3.3227234,-1.8139801,3.0984497,-0.59609985,0.024917603
1631,A,1553897344691963,1.5632629,5.133896,4.57576,-0.45370483,-1.8280182,-2.1936646
1631,A,1553897395045967,15.044861,19.067017,8.976181,1.5075989,0.45231628,0.3154602
1631,A,1553897445399971,-1.9503021,0.14277649,-6.1602325,0.4492798,-1.1312714,0.22297668
1631,A,1553897495753974,-7.5891266,19.217072,0.44841003,0.66929626,-0.7003174,-0.29185486
1631,A,1553897546107978,1.6452332,1.3987885,-8.931686,0.634552,-0.5985718,-0.797287
1631,A,1553897596461982,-6.481247,4.8320007,-0.32759094,0.5189514,-0.80096436,-1.1421356
1631,A,1553897646815986,4.919098,10.855911,-6.0338745,-0.16349792,-0.47280884,-0.8712616
1631,A,1553897697169990,-1.5224915,9.561539,0.09501648,-0.84121704,0.43266296,0.3408661
1631,A,1553897747523994,2.3179321,8.352203,-1.9163971,-2.716156,1.1103973,1.3019104
1631,A,1553897797877998,0.99263,9.387466,-1.5138397,-2.7881012,2.825943,2.479599
1631,A,1553897848232002,1.218216,12.15036,0.70155334,-1.7342377,-1.0014801,2.1206512
1631,A,1553897898586006,6.209381,12.895767,-0.6347656,-2.4573975,0.94055176,2.0115356
1631,A,1553897948940010,3.750473,13.279144,0.06715393,-0.9929352,2.332672,1.2210541
1631,A,1553897999294014,0.34957886,9.680374,-1.1265564,-0.39627075,1.8339996,1.0197449
1631,A,1553898049648017,-3.2833252,16.146149,-0.73628235,0.9953613,-0.22488403,0.27453613
1631,A,1553898100002021,-7.0647125,12.796036,-0.62924194,2.339508,-1.0124512,-1.3191223
1631,A,1553898150356025,6.3137054,8.332397,4.1461945,0.54678345,-1.0295715,-2.128189
1631,A,1553898200710029,-0.7504425,6.4563446,-1.8852386,0.3053131,-0.25276184,-0.7009125
1631,A,1553898251064033,-3.9936066,3.9934998,-0.6139984,1.3773804,-1.3742371,-2.5674133
1631,A,1553898301418037,-2.6199036,2.0765533,-1.7380524,2.1712494,-1.9506989,0.65026855
1631,A,1553898351772041,0.44578552,5.4847717,3.833435,0.012954712,-1.2153015,-1.8424072
1631,A,1553898402126045,0.6654053,16.228378,9.334274,1.5370483,-0.5062103,0.13146973
1631,A,1553898452480049,0.5861206,0.79530334,3.2244415,0.64546204,-1.1092224,-0.03804016
1631,A,1553898502834053,-3.9905853,16.38533,5.5703278,0.6898804,-1.0063171,-0.44360352
1631,A,1553898553188057,3.4326477,0.76434326,-0.67129517,0.72291565,-1.180893,-0.93011475
1631,A,1553898603542060,-4.763397,5.2025757,-2.8070526,0.48239136,-1.2493439,-1.0139008
1631,A,1553898653896064,3.2677917,10.583267,-5.0283356,-0.30848694,-0.84451294,-0.39892578
1631,A,1553898704250068,-1.3089905,8.634598,-0.90734863,-1.199295,0.097076416,0.7879181
1631,A,1553898754604072,0.64256287,9.109543,-2.2328491,-2.7701569,1.2877197,1.8130646
1631,A,1553898804958076,1.4141693,10.131165,-1.4109802,-2.8598938,1.800766,2.3789368
1631,A,1553898855312080,2.9227448,11.638336,-1.4474487,-2.4768066,-1.3479004,2.1750946
1631,A,1553898905666084,4.5646515,12.021469,-0.67723083,-2.0782318,0.014892578,2.11026
1631,A,1553898956020088,4.6153564,11.864151,0.19300842,-0.90644836,1.2533112,1.0746613
1631,A,1553899006374092,-0.8644104,11.77652,-1.0017548,0.03416443,0.51016235,0.23774719
1631,A,1553899056728096,-5.1162567,15.623703,-0.4724884,1.571701,-0.72094727,-1.220459
1631,A,1553899107082099,-4.550644,12.330917,1.7711945,2.1519318,-1.2393799,-1.2404633
1631,A,1553899157436103,4.1237793,6.999649,2.196167,0.86027527,-1.6556244,0.8074188
1631,A,1553899207790107,-1.2146454,4.845291,-0.23309326,0.46524048,1.3978882,-2.1186523
1631,A,1553899258144111,-1.7802887,2.4568634,-0.21871948,0.14068604,2.890091,-3.2943878
1631,A,1553899308498115,-1.1342926,1.259903,0.55485535,2.0390015,-2.0032806,0.23606873
1631,A,1553899358852119,7.693878,8.631592,7.996826,0.10826111,-0.5922394,-0.44265747
1631,A,1553899409206123,11.664932,12.989792,3.9908142,0.9048004,0.022979736,0.23960876
1631,A,1553899459560127,-8.034729,6.838516,-7.9957123,0.8078613,-0.6674042,-0.08482361
1631,A,1553899509914131,-10.021164,13.53212,-5.8202515,0.81788635,-0.93629456,-0.8130951
1631,A,1553899560268135,2.2196808,5.454788,-5.9272003,0.60624695,-1.1255188,-1.1398315
1631,A,1553899610622139,1.8190918,10.959839,2.6012726,-0.09327698,-0.68852234,-0.6649933
1631,A,1553899660976142,4.832123,9.066116,-3.7868958,-0.8705139,0.11753845,0.39968872
1631,A,1553899711330146,-0.8576355,9.518845,-1.763031,-2.0884705,1.1147614,1.5657959
1631,A,1553899761684150,0.4367218,10.010101,-2.1833496,-2.728531,1.2862701,1.8962402
1631,A,1553899812038154,1.2436218,10.900925,-1.6821594,-2.503296,-0.113464355,2.2761078
1631,A,1553899862392158,4.3454285,10.51886,-0.87687683,-2.054657,0.22219849,2.4373474
1631,A,1553899912746162,3.6080933,11.5394745,-1.1377258,-1.4449615,1.42453,1.322937
1631,A,1553899963100166,-0.20947266,13.644165,-0.55404663,-0.6184082,0.7745056,0.8782959
1631,A,1553900013454170,-4.6622314,14.991348,-1.7264404,0.6510773,-0.3244171,-0.043899536
1631,A,1553900063808174,-0.4564972,14.560669,-2.8338318,2.075882,-0.50079346,-1.6878662
1631,A,1553900114162178,4.397156,9.950165,-0.5109253,1.4466705,-0.80615234,-0.58992004
1631,A,1553900164516182,-0.90493774,6.7733,-0.36372375,1.1211548,-1.897171,0.3554535
1631,A,1553900214870185,-3.3999481,3.791809,-0.8881836,-0.20622253,0.3535614,-2.513092
1631,A,1553900265224189,-0.98535156,2.0792084,0.34013367,0.54818726,0.7698364,-1.8477631
1631,A,1553900315578193,2.443161,7.6003265,3.320404,1.2656708,-1.4315948,-0.7715454
1631,A,1553900365932197,11.348389,16.011627,7.454422,0.6578522,-0.5364227,-0.51361084
1631,A,1553900416286201,8.97702,11.477325,0.29678345,0.79255676,-0.29408264,0.20466614
1631,A,1553900466640205,-8.792297,12.789352,-3.5568085,0.6417694,-0.82289124,-0.2063446
1631,A,1553900516994209,-5.8062286,9.877808,-7.282196,0.7370453,-0.7269592,-0.7459564
1631,A,1553900567348213,-1.5691986,5.506256,-5.344742,0.7939148,-0.7067871,-1.1508484
1631,A,1553900617702217,2.3744354,10.640213,-2.5653229,0.2819214,-0.93070984,-0.9577179
1631,A,1553900668056221,2.454605,10.351776,-2.1617126,-0.2690277,-0.2570343,-0.14282227
1631,A,1553900718410224,-0.22424316,8.355103,-0.82281494,-1.4434662,0.5410156,0.75349426
1631,A,1553900768764228,0.91947937,8.849533,-1.8552704,-2.5213623,1.9960632,1.7316742
1631,A,1553900819118232,0.90293884,11.121429,-1.8990326,-2.0841522,0.67555237,2.4169006
1631,A,1553900869472236,3.8022919,12.537689,-1.2527313,-2.4636536,0.87265015,2.4983673
1631,A,1553900919826240,4.6040497,13.205063,-0.75146484,-1.9841614,1.8305359,1.7333832
1631,A,1553900970180244,1.4906158,10.979538,-0.67674255,-1.1372223,1.0289917,1.2162933
1631,A,1553901020534248,-1.6371155,13.16922,-0.39212036,0.033172607,-0.4430542,0.57670593
1631,A,1553901070888252,-4.1464233,12.626343,-1.2396698,1.5800476,-0.20111084,-0.8801575
1631,A,1553901121242256,0.06707764,10.48877,-0.17012024,0.77404785,-1.1534424,-1.580307
1631,A,1553901171596260,0.9585266,7.768173,-0.22451782,0.09118652,0.3383484,-0.3678131
1631,A,1553901221950264,-2.1002502,4.5283356,-0.34906006,1.6537933,-2.3302917,-2.115921
1631,A,1553901272304267,-2.1375122,2.1849213,-0.058792114,1.1596832,-3.119461,-0.73942566
1631,A,1553901322658271,1.1261139,3.1605072,1.5305328,1.2723083,-1.6405487,-1.2171783
1631,A,1553901373012275,5.858963,15.006348,8.822037,1.1714935,-1.2625885,-0.5481262
1631,A,1553901423366279,1.2499542,5.899811,5.510849,0.6358032,-0.36956787,-0.14350891
1631,A,1553901473720283,-3.026123,9.177048,-3.7908173,0.60969543,-0.57185364,-0.10406494
1631,A,1553901524074287,-0.5516205,9.067627,3.4942322,0.68588257,-0.6045227,-0.62205505
1631,A,1553901574428291,-2.2714539,2.9094238,-8.233185,0.74172974,-0.8662567,-1.1850433
1631,A,1553901624782295,2.138794,11.190689,0.9598236,0.14050293,-1.0429688,-1.0246124
1631,A,1553901675136299,3.0781555,10.069778,-1.4767914,-0.42156982,-0.15985107,-0.17793274
1631,A,1553901725490303,0.48010254,9.069794,-3.1499329,-1.600174,0.08457947,0.7654877
1631,A,1553901775844307,0.2946167,8.451935,-1.861206,-2.5756683,2.0121002,2.0155487
1631,A,1553901826198310,-0.846405,11.147476,-2.0305176,-2.2345123,0.49427795,1.8085022
1631,A,1553901876552314,3.5571442,12.230667,-2.293045,-2.2491913,0.2383728,2.4073029
1631,A,1553901926906318,2.4526215,12.32753,-2.1863098,-1.3360748,1.2004242,1.7249756
1631,A,1553901977260322,1.8766632,10.2018585,-0.92471313,-0.9495697,1.403305,1.3206177
1631,A,1553902027614326,-2.1643677,10.44278,1.1412659,0.33259583,0.22257996,0.559021
1631,A,1553902077968330,-5.2150116,14.186356,-1.9931183,1.8161621,0.12834167,-0.6512604
1631,A,1553902128322334,2.416626,11.364258,-1.8818207,1.291748,-0.88604736,-1.6641235
1631,A,1553902178676338,2.6025696,8.406265,-0.22174072,0.4474182,0.26872253,0.044052124
1631,A,1553902229030342,-2.1993408,5.1956024,-0.6317444,1.8773651,-2.2411041,-1.6191559
1631,A,1553902279384346,-3.0669098,1.0383301,-1.505722,-1.038269,0.29449463,-0.87002563
1631,A,1553902329738349,1.9411774,4.371994,0.37530518,1.9065857,-1.1893616,-1.1399841
1631,A,1553902380092353,3.5185852,18.187744,10.167404,1.6005249,-1.0171204,-0.7573395
1631,A,1553902430446357,2.0937042,4.1400604,1.7424774,0.4688263,-0.16508484,0.32832336
1631,A,1553902480800361,2.6979675,10.558701,-7.718872,0.7107239,-0.86756897,0.20223999
1631,A,1553902531154365,-3.159134,9.830292,7.8983765,0.7303467,-0.6157837,-0.786026
1631,A,1553902581508369,-3.2476501,0.32832336,-12.9435425,0.777359,-0.7947235,-1.1667786
1631,A,1553902631862373,-3.8131409,11.701096,0.47917175,0.26545715,-0.8785858,-1.1382751
1631,A,1553902682216377,11.433563,10.809906,-1.1053619,-0.33580017,-0.32191467,-0.21014404
1631,A,1553902732570381,-0.18099976,8.720474,-2.8339996,-1.2672119,0.4824829,0.91215515
1631,A,1553902782924385,0.060943604,9.570862,-1.7612915,-2.7590942,2.0727234,2.1259918
1631,A,1553902833278389,1.1980896,10.915329,-2.7361145,-2.2712555,0.59532166,1.7136841
1631,A,1553902883632392,3.6134796,10.785049,-2.4891052,-2.09906,-0.48431396,3.1267242
1631,A,1553902933986396,4.3243866,11.144363,-0.8727875,-1.4917755,0.86439514,1.8653107
1631,A,1553902984340400,2.6843414,12.518494,-1.982666,-1.2924652,1.2827148,1.1026611
1631,A,1553903034694404,-2.7596893,11.814804,-0.5244293,-0.20907593,-0.0016326904,0.4160614
1631,A,1553903085048408,-5.586075,13.843079,-3.7509766,0.9323883,0.18211365,-0.685791
1631,A,1553903135403772,4.648697,12.768997,-2.9040222,1.9206696,-0.3361206,-1.5531769
1631,A,1553903185757776,3.1255646,8.385666,0.34251404,0.3903656,-1.6765137,-0.4149933
1631,A,1553903236111780,-2.1521301,6.6463165,-0.7612152,1.1144257,-0.13290405,-0.5111847
1631,A,1553903286465784,-1.1300964,3.2031403,-0.32165527,1.6781464,-2.8053436,-3.522766
1631,A,1553903336819788,2.0397186,3.4119568,1.941391,2.3328857,-2.4520264,0.79592896
1631,A,1553903387173792,0.74017334,5.160553,4.718811,-0.060165405,-0.7630005,-1.2295074
1631,A,1553903437527795,12.333435,17.628998,6.7937164,1.0401764,-1.8235931,0.17462158
1631,A,1553903487881799,-2.3176727,2.157013,-2.9134064,0.39224243,-0.35650635,0.059036255
1631,A,1553903538235803,-7.632309,18.148087,7.9025574,0.87368774,-0.21928406,-0.43147278
1631,A,1553903588589807,2.7603455,5.5783997,-5.381653,0.95880127,-0.24127197,-0.9613342
1631,A,1553903638943811,-2.833847,5.990555,-2.5170288,0.5910492,-0.84187317,-1.0148468
1631,A,1553903689297815,4.6546936,10.296799,-2.572403,-0.16621399,-0.8322449,-0.33520508
1631,A,1553903739651819,1.2423706,8.430252,-1.4802856,-0.8033447,-0.09202576,0.4494171
1631,A,1553903790005823,0.17390442,9.023376,-2.719696,-2.2004242,0.42448425,1.2126617
1631,A,1553903840359827,-0.2782898,11.466614,-1.4888153,-2.7935333,1.444809,2.0605469
1631,A,1553903890713831,1.3955383,11.764267,-0.9551544,-2.2733917,-0.46479797,2.2128296
1631,A,1553903941067834,5.5673065,11.948776,-0.66204834,-1.9844971,-0.32382202,2.7274323
1631,A,1553903991421838,2.1245575,11.54895,-0.78585815,-1.2726135,1.1166077,1.5084381
1631,A,1553904041775842,-0.8589783,9.66333,-0.59754944,-0.88916016,1.5826111,0.7709656
1631,A,1553904092129846,-3.023117,13.351196,-0.34051514,0.21040344,0.25071716,-0.20137024
1631,A,1553904142483850,-1.7342529,14.466858,-2.9218903,1.5923767,-0.7640228,-1.0652008
1631,A,1553904192837854,5.477295,10.642288,2.830429,1.8358917,-0.8448944,-0.86177063
1631,A,1553904243191858,1.4889221,7.938858,0.5432129,0.51802063,-0.4602356,0.8248291
1631,A,1553904293545862,-1.0722504,4.252182,-0.31243896,1.435791,0.040725708,-1.5310364
1631,A,1553904343899866,-2.5754852,1.9292297,-0.05886841,2.028885,-1.4036102,-3.1225739
1631,A,1553904394253870,0.0037231445,3.9800568,2.0983887,2.509964,-2.6400146,1.0718994
1631,A,1553904444607874,7.246933,10.701736,7.5955963,-0.5492096,-0.08534241,-1.042099
1631,A,1553904494961877,12.805389,13.412674,6.722122,1.2345428,-1.195816,-0.08694458
1631,A,1553904545315881,-3.8588867,5.064438,-1.5476074,0.5068207,-0.14073181,-0.3559265
1631,A,1553904595669885,-3.6154175,15.044144,1.8778229,0.8424988,-0.29510498,-0.23104858
1631,A,1553904646023889,3.160324,4.0145874,-8.144913,0.6926117,-0.6856537,-0.67100525
1631,A,1553904696377893,-1.8650208,6.189453,-0.98579407,0.53990173,-1.0149994,-1.0121155
1631,A,1553904746731897,1.8568573,11.277298,-1.6796417,0.08666992,-0.9662781,-0.7719116
1631,A,1553904797085901,0.5791321,8.217438,-2.902771,-0.41593933,-0.52301025,-0.07220459
1631,A,1553904847439905,0.5490875,9.266815,-2.9850464,-1.5530701,0.48846436,1.0246124
1631,A,1553904897793909,0.22120667,9.186356,-1.9731445,-2.9332123,1.9802399,2.1007233
1631,A,1553904948147913,1.1761475,10.357285,-1.6127777,-2.541687,1.1294708,2.4123688
1631,A,1553904998501917,2.4384003,10.730103,-1.0262756,-1.914154,-1.0113678,2.191162
1631,A,1553905048855920,4.782913,11.866943,-0.8544464,-1.5606842,0.9288025,1.8189392
1631,A,1553905099209924,2.8275146,12.575134,0.22732544,-0.90966797,1.9397888,0.88249207
1631,A,1553905149563928,-1.4432373,13.032501,-0.48223877,0.2987671,0.657074,0.21438599
1631,A,1553905199917932,-7.116104,14.485809,-1.197586,1.9286957,-0.5913086,-1.1573029
1631,A,1553905250271936,-1.82164,10.690155,1.1460419,1.6791687,-1.6903687,-0.29492188
1631,A,1553905300625940,5.145157,7.9470825,-0.42521667,0.77282715,-1.5023499,0.64533997
1631,A,1553905350979944,-1.7806549,4.2763367,-0.7051697,0.09423828,1.5130615,-1.9590912
1631,A,1553905401333948,-2.647522,1.9605865,-0.50953674,0.74102783,1.1961975,-1.8115997
1631,A,1553905451687952,-1.1103821,2.0707397,1.187851,1.198349,-0.6700592,-0.7724457
1631,A,1553905502041956,9.627304,10.835114,7.6085815,0.5157776,-0.51564026,-0.91767883
1631,A,1553905552395959,9.60289,11.990997,1.1850739,0.92485046,-0.586792,-0.21585083
1631,A,1553905602749963,-9.168076,11.073334,-5.205017,0.51779175,-0.8273468,-0.045715332
1631,A,1553905653103967,-6.5550385,10.44603,-6.831955,0.457901,-1.0588379,-0.39741516
1631,A,1553905703457971,0.15341187,6.1983643,-2.5411377,0.5933533,-1.016922,-0.8004303
1631,A,1553905753811975,-1.3233643,9.66893,0.9613037,0.33441162,-0.88449097,-1.0077515
1631,A,1553905804165979,0.12571716,9.467621,-2.833908,-0.11437988,-0.3511505,-0.6946564
1631,A,1553905854519983,-0.15374756,9.400421,-1.5594025,-0.67878723,0.18049622,0.15777588
1631,A,1553905904873987,0.5071869,8.695419,-1.8595428,-2.0130615,1.1245728,1.373169
1631,A,1553905955227991,1.1329956,9.3134,-1.5565491,-2.7028503,1.3759003,2.0291595
1631,A,1553906005581995,1.3613281,10.925415,-1.2726898,-1.9900513,-0.16908264,2.6060028
1631,A,1553906055935999,3.913803,10.462021,-1.0430145,-1.7257996,0.12496948,2.164093
1631,A,1553906106290002,4.3255157,12.7778015,-1.4398804,-1.476532,1.633667,1.393753
1631,A,1553906156644006,-0.6942444,12.570816,-0.7845154,-0.5028076,1.6045532,0.88783264
1631,A,1553906206998010,-4.662918,13.953064,-2.7477112,0.59994507,0.43008423,0.19902039
1631,A,1553906257352014,-1.2857819,12.371628,-2.8975372,2.1333618,-0.54577637,-1.0566559
1631,A,1553906307706018,3.153656,9.909271,1.7579193,1.2969818,-0.97351074,-2.0703583
1631,A,1553906358060022,1.3499451,7.3812103,1.3365936,0.007888794,-0.43737793,-0.7692261
1631,A,1553906408414026,-1.8434143,4.0921783,0.46554565,1.1849213,-1.7475281,-1.5575409
1631,A,1553906458768030,-0.7580719,3.6959534,-0.37057495,1.7433167,-1.4814911,-0.42303467
1631,A,1553906509122034,-1.0802307,2.2247772,1.6173096,0.08433533,0.44389343,-0.94821167
1631,A,1553906559476038,-0.14898682,13.586533,6.186737,1.3564911,-0.6170502,-0.28842163
1631,A,1553906609830042,1.6492767,5.802368,6.0885315,0.9228821,-0.6983185,-0.0077667236
1631,A,1553906660184045,0.4581604,10.215012,-4.465149,0.49934387,-0.18313599,-0.07614136
1631,A,1553906710538049,0.8719635,8.627563,-4.2887115,0.64375305,-0.1952362,-0.31010437
1631,A,1553906760892053,-1.5398102,3.7424774,-5.4284973,0.7189026,-0.7837219,-0.89411926
1631,A,1553906811246057,2.3390808,7.537842,-5.8687286,0.3730774,-0.8932495,-1.0926819
1631,A,1553906861600061,1.0253296,9.728226,-2.12854,-0.0693512,-0.54263306,-0.6523285
1631,A,1553906911954065,-0.09799194,9.182175,-2.9633942,-0.55207825,0.3324585,0.24409485
1631,A,1553906962308069,-0.17311096,8.564758,-2.4931946,-2.3248138,1.4893799,1.3863983
1631,A,1553907012662073,0.18972778,10.2235565,-1.892395,-2.9431,1.9380951,2.165863
1631,A,1553907063016077,1.7219086,9.621002,-0.7300415,-1.8353577,-0.98031616,2.3700256
1631,A,1553907113370081,5.221878,10.592316,-0.7994995,-2.1683044,-0.20683289,2.0874481
1631,A,1553907163724084,4.459244,13.755005,-1.020935,-1.3029327,1.9792938,1.4415588
1631,A,1553907214078088,-0.14698792,11.709213,0.45991516,-0.4920044,2.1944427,0.8395386
1631,A,1553907264432092,-4.9341736,16.129425,-1.9247437,0.7015228,0.61924744,0.22035217
1631,A,1553907314786096,-5.1385193,11.377014,-0.28997803,2.0925293,-0.8438568,-0.98713684
1631,A,1553907365140100,5.7506256,9.61235,4.711487,2.3585815,-1.218811,-2.6561737
1631,A,1553907415494104,2.1137238,7.217865,-0.55522156,0.024795532,-0.09454346,-0.10644531
1631,A,1553907465848108,-2.2407837,3.478714,0.29084778,1.6352386,-2.1128082,-1.413269
1631,A,1553907516202112,-2.3206177,3.1643677,-2.2596436,0.081604004,1.3923645,-0.32572937
1631,A,1553907566556116,-1.6343384,1.822815,0.3895874,0.4951477,1.2931061,-1.0760193
1631,A,1553907616910120,-0.058242798,17.107681,4.8753204,2.0337524,-1.0295715,-0.27064514
1631,A,1553907667264124,7.293686,6.371353,7.8455353,0.6625061,-0.0067749023,-0.39476013
1631,A,1553907717618127,1.2551117,10.42099,-7.134079,0.5826416,-0.2596588,0.047454834
1631,A,1553907767972131,0.2881775,8.848175,2.263321,0.47010803,-0.59825134,-0.19989014
1631,A,1553907818326135,-1.8384552,3.4436493,-9.384201,0.6578522,-0.9243164,-0.7294159
1631,A,1553907868680139,1.6695709,10.64975,-3.491516,0.5336151,-0.81892395,-1.2028351
1631,A,1553907919034143,0.7926941,9.111359,-2.8867798,-0.03390503,-0.61058044,-0.847641
1631,A,1553907969388147,-0.7477875,9.343216,-2.8553162,-0.40820313,0.13131714,0.40135193
1631,A,1553908019742151,0.2093811,8.281189,-1.6681366,-2.4345093,0.97558594,1.2501373
1631,A,1553908070096155,0.76197815,9.969879,-1.7478943,-3.1115875,2.112503,2.4386292
1631,A,1553908120450159,1.3754272,9.36377,0.14024353,-1.9830475,-1.7531433,1.6693726
1631,A,1553908170804163,4.566498,11.474915,-1.3041382,-2.6685638,-0.3178711,2.708313
1631,A,1553908221158167,3.824997,12.569672,0.63194275,-1.1898804,1.6887054,1.1980591
1631,A,1553908271512170,1.546936,13.464798,-0.59017944,-0.5770416,1.746048,0.8352814
1631,A,1553908321866174,-5.5218964,15.836456,0.18522644,0.73387146,-0.22041321,-0.025909424
1631,A,1553908372220178,-9.358658,12.818283,-0.3088684,1.7524414,-1.2221832,-1.4435272
1631,A,1553908422574182,11.585724,9.744156,3.0010223,3.063446,-1.0463562,-2.805725
1631,A,1553908472928186,-0.91371155,7.2100677,-1.609375,-0.45993042,-0.18746948,0.9667511
1631,A,1553908523282190,-2.7626648,3.385727,0.9654846,1.5427551,-2.2263489,-1.3202362
1631,A,1553908573636194,-1.9760895,2.3027954,-2.3451538,-0.11705017,2.4400787,-1.2746735
1631,A,1553908623990198,0.12828064,3.8303833,1.2021637,0.9180603,-0.31126404,-0.9443054
1631,A,1553908674344202,2.1042328,15.062973,2.6161804,1.7996674,-0.86231995,-0.1002655
1631,A,1553908724698206,15.224396,11.007782,10.375198,0.5381775,0.028244019,-0.1722107
1631,A,1553908775052209,-3.0327454,8.6467285,-8.365265,0.51153564,-0.60472107,0.023345947
1631,A,1553908825406213,-5.415344,7.90921,0.97817993,0.4792328,-0.68992615,-0.17993164
1631,A,1553908875760217,0.7459717,2.4900055,-8.482269,0.5403595,-0.6953125,-0.69111633
1631,A,1553908926114221,2.4451752,11.693176,-1.3610992,0.36071777,-0.7407532,-1.0770874
1631,A,1553908976468225,0.005264282,9.096939,-2.6217957,-0.11253357,-0.49874878,-0.59991455
1631,A,1553909026822229,-0.20033264,9.737915,-2.0903168,-0.57777405,0.49865723,0.41362
1631,A,1553909077176233,1.1783142,8.118805,-1.8080597,-2.3326263,0.9777069,1.1471558
1631,A,1553909127530237,0.25187683,9.860016,-1.7239227,-3.070572,1.1159515,1.9555511
1631,A,1553909177884241,1.6738892,10.47496,-0.53027344,-2.1547089,-1.4715271,1.9577789
1631,A,1553909228238245,4.3797607,11.091812,-0.94281006,-1.8602753,-0.32878113,2.6550446
1631,A,1553909278592249,3.727356,12.654831,-0.4070282,-0.8712616,1.6228943,1.1896515
1631,A,1553909328946252,-0.006652832,14.305649,-0.16729736,-0.37794495,1.8064575,0.8086548
1631,A,1553909379300256,-5.4101105,12.981491,-0.0710907,0.94059753,0.14511108,-0.11445618
1631,A,1553909429654260,-3.1387024,13.043549,-0.8966217,1.9739685,-0.7623749,-1.4476318
1631,A,1553909480008264,10.327377,9.985733,0.06513977,2.0341187,-0.41645813,-1.5215912
1631,A,1553909530362268,-0.5534363,6.7061462,-0.5611725,-0.21160889,-0.7285309,0.8612671
1631,A,1553909580716272,-1.7743073,3.4794312,0.54948425,0.8008423,-0.6989441,-1.4909515
1631,A,1553909631070276,-1.7165527,2.8733368,-0.7526703,-0.47491455,3.4279022,-2.5628662
1631,A,1553909681424280,-0.19110107,5.450989,2.0821533,1.6011658,-0.048294067,-0.109939575
1631,A,1553909731778284,5.7170258,13.037521,6.4160156,0.24180603,-1.4093323,-0.25427246
1631,A,1553909782132288,12.744934,15.79007,5.961136,0.6360016,0.088150024,-0.24742126
1631,A,1553909832486292,-6.2918243,9.147217,-5.3654175,0.49398804,-0.83973694,0.059036255
1631,A,1553909882840295,-7.5631714,11.343369,-3.2579803,0.3939972,-0.48390198,-0.20100403
1631,A,1553909933194299,4.531784,4.690399,-5.1985474,0.5478821,-0.4936676,-0.5944061
1631,A,1553909983548303,0.05809021,12.991486,8.659561,0.4268341,-0.41455078,-0.98843384
1631,A,1553910033902307,0.9084015,9.316345,-3.3169403,-0.037979126,-0.08547974,-0.7314606
1631,A,1553910084256311,0.0066375732,9.972458,0.29733276,-0.62075806,0.37243652,0.0012969971
1631,A,1553910134610315,1.2845459,8.449326,-1.4815063,-1.9627686,0.8790436,1.0756378
1631,A,1553910184964319,0.50953674,9.646469,-1.7052155,-2.8766785,1.0235443,1.9786377
1631,A,1553910235318323,0.6049347,10.618164,-1.569107,-1.9545288,-0.16311646,2.6400452
1631,A,1553910285672327,2.2972412,10.43367,-0.8057251,-1.2328644,0.16958618,2.4999542
1631,A,1553910336026331,3.3689575,11.291016,-0.8094177,-1.0971222,1.86409,1.456253
1631,A,1553910386380334,0.6624298,12.767609,-0.82159424,-0.38560486,2.3932037,1.0654755
1631,A,1553910436734338,-3.2301788,12.54808,-1.9813385,0.70680237,0.753891,0.31950378
1631,A,1553910487088342,0.06484985,13.588211,-4.7202606,2.0989227,-1.0752411,-0.8070679
1631,A,1553910537442346,4.4142456,9.549683,-0.78904724,1.2159729,-0.4297638,-0.9908142
1631,A,1553910587796350,1.0238495,7.9888306,1.4658813,-0.33055115,0.25559998,-0.27459717
1631,A,1553910638150354,-1.4375,3.9500275,-0.7175293,1.2741699,-0.5398102,-1.3622437
1631,A,1553910688504358,-2.1649323,2.4896088,-0.87950134,1.5213318,-1.0829163,-0.816452
1631,A,1553910738858362,-1.6571808,3.935913,0.16473389,0.38645935,-0.77526855,-0.5860443
1631,A,1553910789212366,3.5041351,11.852249,5.9936523,1.0258179,-0.37522888,-1.0301056
1631,A,1553910839566370,4.847397,9.876282,6.173355,1.1783295,-0.41423035,-0.015945435
1631,A,1553910889920374,-0.1894989,8.835495,-3.1062164,0.53700256,-0.12023926,-0.114715576
1631,A,1553910940274377,2.3520966,11.25647,-0.16082764,0.4890442,-0.42451477,-0.12901306
1631,A,1553910990628381,-1.0084381,2.1105804,0.08538818,0.4351654,-0.6262665,-0.42227173
1631,A,1553911040982385,-2.2303772,6.8918915,-6.2070313,0.5009308,-0.71546936,-0.829834
1631,A,1553911091336389,1.41745,10.380569,-3.557312,0.21684265,-0.6742859,-0.9768524
1631,A,1553911141690393,-0.07064819,8.828705,-3.0668335,-0.2436676,-0.08610535,-0.2312622
1631,A,1553911192044397,-0.011291504,9.050583,-2.3182678,-1.4767151,0.75,0.7572937
1631,A,1553911242398401,1.0400238,9.425278,-1.5411682,-2.888733,1.4969788,1.780365
1631,A,1553911292752405,0.83084106,10.125839,-1.0899353,-2.624649,-0.71195984,1.8220825
1631,A,1553911343106409,2.5099335,10.727798,-0.9544525,-2.252182,-0.9484863,2.397171
1631,A,1553911393460413,4.0790405,11.063629,-0.52319336,-1.4893341,0.99684143,1.8329468
1631,A,1553911443814417,2.6173859,12.220734,-0.61053467,-0.8371124,2.2026672,0.9822693
1631,A,1553911494168420,-2.4712524,13.466202,0.61206055,0.28952026,1.316803,0.49137878
1631,A,1553911544522424,-7.076584,14.862793,0.52259827,1.3534241,-0.53637695,-0.45031738
1631,A,1553911594876428,4.8054657,11.763931,-0.3724823,2.9015656,-1.2747803,-1.9204559
1631,A,1553911645230432,5.567749,8.739807,-0.97909546,0.5189514,-0.9748688,0.24139404
1631,A,1553911695584436,-1.043045,5.3831024,0.3691864,0.64712524,-1.5704346,0.113708496
1631,A,1553911745938440,-2.4060364,2.5661774,-1.0117493,0.5970917,2.292862,-2.1162567
1631,A,1553911796292444,-1.3701935,2.32016,-0.8760834,1.275589,1.5927582,-1.0462952
1631,A,1553911846646448,-0.08856201,8.962006,4.073944,0.6790314,-0.63352966,-0.8444061
1631,A,1553911897000452,12.736984,16.733978,9.472168,0.55474854,-0.16111755,-0.5649719
1631,A,1553911947354456,4.7919617,7.0927124,-2.5626373,0.69555664,0.16412354,0.06581116
1631,A,1553911997708459,-8.542099,14.208572,-5.375458,0.4618988,-0.39268494,0.0045776367
1631,A,1553912048062463,-2.8900604,7.0989227,-6.5344696,0.5008087,-0.7732239,-0.48132324
1631,A,1553912098416467,-2.409851,9.125946,1.6634369,0.62680054,-0.67381287,-0.9775696
1631,A,1553912148770471,0.9596863,9.391922,-1.0497894,0.21347046,-0.5656433,-1.0681915
1631,A,1553912199124475,0.13026428,9.955505,-2.0834656,-0.18283081,-0.1794281,-0.5162201
1631,A,1553912249478479,-0.4611969,9.359009,-1.5336456,-0.7896576,-0.06037903,0.25628662
1631,A,1553912299832483,0.68299866,8.609497,-2.2644806,-2.5390472,0.973938,1.4202728
1631,A,1553912350186487,1.6946716,9.677109,-1.2751312,-2.8492737,1.6895599,2.2026672
1631,A,1553912400540491,0.85653687,10.632523,-1.3314819,-1.9121704,-0.66474915,2.5243988
1631,A,1553912450894495,2.9582825,9.621475,-0.92152405,-1.9468079,-0.234375,1.8521423
1631,A,1553912501248499,3.2401886,13.723373,-0.5324402,-1.1848907,1.7958984,1.3007202
1631,A,1553912551602502,0.13182068,10.460373,0.42352295,-0.18995667,1.9218445,0.88749695
1631,A,1553912601956506,-4.1893616,15.669388,-2.425644,0.8902893,0.10494995,0.09567261
1631,A,1553912652310510,-1.8330231,11.153183,-1.4708252,2.403778,-1.4440613,-1.3768921
1631,A,1553912702664514,4.5661316,9.444305,4.751343,0.2984314,0.041030884,-2.0685883
1631,A,1553912753018518,0.54216003,6.586914,0.30163574,-0.13127136,0.07659912,-0.24621582
1631,A,1553912803372522,-2.0982819,3.6601257,0.27600098,1.6952362,-1.8089752,-2.3246613
1631,A,1553912853726526,-1.4310455,3.162094,-2.0003052,1.1395111,-2.509079,0.26916504
1631,A,1553912904080530,-0.9043579,2.5631561,1.260788,0.044921875,0.37475586,-1.489685
1631,A,1553912954434534,5.1884766,17.518204,11.114502,1.9043427,-1.0875854,-0.04032898
1631,A,1553913004788538,3.3013153,0.55158997,4.652359,0.5673828,-0.74180603,0.02748108
1631,A,1553913055142542,-2.9159393,17.173294,-6.739975,0.33529663,-0.6157379,-0.0072021484
1631,A,1553913105496545,2.179718,4.7372894,1.8458252,0.37583923,-0.6055145,-0.12825012
1631,A,1553913155835794,-5.3867035,2.1524048,-8.215515,0.4104309,-0.50419617,-0.56178284
1631,A,1553913206189798,4.0905457,9.989288,-2.519516,0.35812378,-0.44332886,-1.0553894
1631,A,1553913256543802,0.61782837,10.752258,-1.182373,-0.058944702,-0.4103241,-0.8726959
1631,A,1553913306897806,0.43562317,8.811295,-2.6786194,-0.1903534,0.26348877,0.15621948
1631,A,1553913357251810,1.7033844,8.222305,-1.5144958,-2.0854034,0.63645935,0.8381195
1631,A,1553913407605814,1.0744019,9.579941,-1.4316254,-3.259964,1.9768372,1.9850311
1631,A,1553913457959818,0.27650452,10.231995,-0.91111755,-1.9652405,-1.1428375,1.7981873
1631,A,1553913508313822,3.9995728,10.74292,-1.7287445,-1.8766937,0.049606323,2.71904
1631,A,1553913558667826,5.2785034,12.970245,-0.49139404,-0.6362457,1.617569,1.4831848
1631,A,1553913609021829,0.6784668,12.546768,-0.35443115,-0.7396698,2.6962128,1.055069
1631,A,1553913659375833,-3.7583923,10.95253,0.8963165,0.845932,0.8857269,0.4557953
1631,A,1553913709729837,-5.474869,16.181107,-0.8916168,1.9223633,-1.0697784,-0.56999207
1631,A,1553913760083841,9.704086,9.358917,-1.8813782,3.1532288,-1.6095276,-1.9895477
1631,A,1553913810437845,1.539505,9.31015,-0.22851563,-0.5063629,-1.5487366,1.6938934
1631,A,1553913860791849,-1.6581726,4.0659027,0.56256104,1.2398224,-1.0152588,-0.7381134
1631,A,1553913911145853,-2.5718994,1.8786316,-1.2974854,1.9180908,0.14428711,-3.2402344
1631,A,1553913961499857,-1.0652008,3.7705383,-0.08190918,1.7505646,-0.63960266,0.2691803
1631,A,1553914011853861,0.8896637,12.945847,4.027725,-0.60476685,-0.48408508,-1.7167511
1631,A,1553914062207865,17.548157,17.872345,6.7202454,0.861969,-0.18539429,0.09136963
1631,A,1553914112561869,-1.4885101,1.1557007,-5.357361,0.48765564,0.04815674,0.19755554
1631,A,1553914162915872,-8.702469,17.837677,13.38205,0.48347473,-0.40597534,-0.23072815
1631,A,1553914213269876,1.8159485,0.24160767,-0.09516907,0.66119385,-0.5083313,-0.72605896
1631,A,1553914263623880,-5.7300415,9.307648,1.2437134,0.62109375,-0.72447205,-1.0945435
1631,A,1553914313977884,6.671585,8.369598,-3.1015625,0.08178711,-0.4793396,-0.9334717
1631,A,1553914364331888,-0.35154724,10.077988,-0.51971436,-0.36157227,-0.014373779,-0.24157715
1631,A,1553914414685892,-0.44561768,8.666824,-2.3060608,-1.4055634,0.6196747,0.82336426
1631,A,1553914465039896,0.521286,9.228104,-2.3458862,-2.8321838,1.2355957,1.943039
1631,A,1553914515393900,1.3182373,9.943359,-1.3330688,-2.4956055,0.14399719,2.303772
1631,A,1553914565747904,1.6393738,9.828796,-1.1002655,-1.5682526,-0.7690277,2.5327759
1631,A,1553914616101908,3.9687195,10.505753,-0.48893738,-1.7933655,0.84710693,1.3564453
1631,A,1553914666455912,1.5159149,13.993561,-1.5197601,-0.9345703,1.7120056,1.1424713
1631,A,1553914716809915,-2.884842,11.580933,-0.96969604,0.08874512,0.84924316,0.53627014
1631,A,1553914767163919,-4.12294,16.178345,-5.2156525,1.3404541,-0.54907227,-0.5580292
1631,A,1553914817517923,2.8759918,9.415039,-1.9542999,2.2937164,-1.3106079,-1.7037506
1631,A,1553914867871927,2.7273407,8.850906,3.3592682,0.48683167,-0.8232727,-1.4303589
1631,A,1553914918225931,-1.5728302,4.9396667,-0.5349121,0.4393921,0.21580505,-0.74858093
1631,A,1553914968579935,-1.1635284,3.560318,-0.2934265,1.7154236,-2.119461,-1.6411285
1631,A,1553915018933939,-0.26802063,3.3112793,-0.42378235,0.81233215,-1.3529663,0.23454285
1631,A,1553915069287943,1.1651306,6.4516296,4.729004,0.23979187,-0.18638611,-1.2433014
1631,A,1553915119641947,5.203369,14.000412,7.0767517,1.5153198,-1.1951752,0.027801514
1631,A,1553915169995951,0.22058105,6.043991,1.3749695,0.39668274,-0.80610657,-0.06991577
1631,A,1553915220349954,-1.4019165,14.8046875,-1.0432892,0.32235718,-0.7722626,-0.13415527
1631,A,1553915270703958,1.8649597,3.4259949,-2.317566,0.4826355,-0.6680908,-0.45872498
1631,A,1553915321057962,-2.8463745,5.8165894,-4.088135,0.48913574,-0.7043762,-0.81282043
1631,A,1553915371411966,3.3979645,9.633392,-1.5290222,0.13267517,-0.6644287,-0.89204407
1631,A,1553915421765970,-0.43075562,10.6401825,-1.4203644,-0.20323181,-0.24414063,-0.30819702
1631,A,1553915472119974,0.9633179,8.67392,-2.6621246,-1.1166534,0.56425476,0.57566833
1631,A,1553915522473978,1.2309265,8.632294,-1.8710175,-2.7231445,1.4273529,1.3477783
1631,A,1553915572827982,0.7420349,10.276688,-1.2156525,-2.8226318,0.43710327,1.8286438
1631,A,1553915623181986,2.3672638,10.516846,-0.90467834,-2.0931396,-1.3251343,1.9943542
1631,A,1553915673535990,5.513855,11.8572235,-0.92152405,-1.510376,0.73358154,2.0333862
1631,A,1553915723889994,2.4989471,13.092545,-0.060333252,-0.7306366,2.334198,1.3220367
1631,A,1553915774243997,-1.4184265,12.570068,0.4333954,-0.15072632,1.9158783,0.7900543
1631,A,1553915824598001,-4.817734,14.217285,0.72517395,1.1680756,-0.075286865,0.044647217
1631,A,1553915874952005,0.32182312,12.774719,-0.11105347,2.5856323,-1.3337708,-1.1800232
1631,A,1553915925306009,5.9957123,8.996658,-0.56669617,1.5637207,-1.5808105,-0.18870544
1631,A,1553915975660013,0.2992096,6.7752686,-0.4424591,0.19766235,-1.3902435,0.9031677
1631,A,1553916026014017,-1.8496552,3.3813477,-0.6496887,0.9411011,0.5060425,-1.8209839
1631,A,1553916076368021,-2.3581543,2.8131714,-0.9928131,1.3339691,0.7871094,-1.6267853
1631,A,1553916126722025,-0.9213257,7.2180786,2.0321045,0.9007416,-0.9468994,-0.8627167
1631,A,1553916177076029,8.864243,15.347366,6.1188965,0.39024353,-0.57247925,-0.9756775
1631,A,1553916227430033,9.369614,10.787582,0.98487854,0.80033875,-0.269516,0.2524414
1631,A,1553916277784037,-6.5160065,9.565643,-1.4517059,0.44447327,-0.5498352,0.04269409
1631,A,1553916328138040,-4.765152,10.376175,1.164093,0.5012207,-0.62939453,-0.39733887
1631,A,1553916378492044,-3.2950134,3.7738342,-1.2884064,0.6662445,-0.44664,-0.7832031
1631,A,1553916428846048,-0.5366974,8.419464,-1.5877686,0.3879547,-0.56643677,-1.01651
1631,A,1553916479200052,3.4831238,10.208542,-2.000412,-0.085372925,-0.5650635,-0.7471466
1631,A,1553916529554056,0.020523071,9.50679,-1.2452087,-0.52178955,-0.092437744,0.11457825
1631,A,1553916579908060,1.5515137,8.778473,-2.12854,-1.8791199,0.961853,1.2300568
1631,A,1553916630262064,0.88601685,9.966385,-1.8515472,-2.9069824,1.5587921,1.980896
1631,A,1553916680616068,0.29241943,10.534958,-1.4862671,-2.1339417,-0.3785553,2.341919
1631,A,1553916730970072,3.1547089,9.675827,-1.1652985,-1.8977966,-0.49795532,1.9752045
1631,A,1553916781324076,3.859192,12.074173,-0.98887634,-1.5572205,1.5140228,1.4740753
1631,A,1553916831678079,1.2079773,12.461533,-0.24356079,-0.6548004,1.9409943,1.0449677
1631,A,1553916882032083,-2.860611,14.699005,-2.1034546,0.44485474,0.52819824,0.33895874
1631,A,1553916932386087,-3.5984802,12.534317,-2.0952606,1.7802887,-0.74458313,-0.91093445
1631,A,1553916982740091,3.0093536,9.562668,2.4450226,2.5280457,-1.1213074,-2.3091736
1631,A,1553917033094095,1.943222,7.7803345,0.39248657,0.47447205,-0.58158875,-0.60427856
1631,A,1553917083448099,-1.7337036,4.489151,-0.17767334,0.76423645,-1.3122711,-1.1496277
1631,A,1553917133802103,-1.5804596,3.7460175,-1.0387421,1.8115082,-1.6156616,0.31384277
1631,A,1553917184156107,-1.2977905,2.7115936,0.42266846,0.585495,-0.27565002,-0.7935028
1631,A,1553917234510111,-0.83340454,13.342651,3.3211975,1.246933,-0.7664032,-0.8661957
1631,A,1553917284864115,7.4817505,10.796066,6.268585,1.0444641,-0.7374573,-0.38700867
1631,A,1553917335218119,-0.1481781,12.100098,0.7035675,0.68266296,-0.57403564,-0.15750122
1631,A,1553917385572122,2.6788483,6.989807,-3.1069794,0.48921204,-0.6130676,-0.20570374
1631,A,1553917435926126,-1.7132568,5.9561005,-4.4418335,0.55973816,-0.7502289,-0.61557007
1631,A,1553917486280130,-1.0697632,7.466873,-2.4025726,0.5364227,-0.65127563,-0.997345
1631,A,1553917536634134,0.9157257,8.828796,-1.200943,0.09791565,-0.7975311,-0.84410095
1631,A,1553917586988138,0.44174194,9.5620575,-1.9802551,-0.26948547,0.010650635,-0.056396484
1631,A,1553917637342142,1.11203,9.207108,-1.5990906,-1.5819092,0.45648193,0.6804352
1631,A,1553917687696146,0.83114624,8.900742,-1.8388367,-3.0039063,1.5218658,1.6250305
1631,A,1553917738050150,0.66275024,9.608719,-1.5899658,-2.6441956,-0.04257202,1.9739532
1631,A,1553917788404154,3.7218323,11.433395,-1.6927185,-1.8890381,-0.43624878,2.8387604
1631,A,1553917838758158,5.1604614,12.122147,-1.4824371,-0.9466858,0.64352417,1.8487396
1631,A,1553917889112162,1.3800659,13.010956,-0.7583008,-0.9926758,2.5045319,1.2892609
1631,A,1553917939466165,-2.1146088,10.545624,0.24101257,0.37849426,1.3233948,0.70321655
1631,A,1553917989820169,-3.8717957,15.156616,-3.2641602,1.3658295,-0.67051697,-0.38838196
1631,A,1553918040174173,6.335022,10.547485,-2.6887817,2.924179,-1.3376923,-1.9047546
1631,A,1553918090528177,2.0500946,9.510315,0.0026397705,-0.24302673,-0.84062195,1.0463715
1631,A,1553918140882181,-1.5815582,5.423004,0.23080444,0.89637756,-0.7217865,-0.09414673
1631,A,1553918191236185,-2.4743805,2.4135132,-0.47003174,2.0381927,-1.579773,-2.962143
1631,A,1553918241590189,-1.0253296,3.0822906,-0.79556274,2.0457306,-2.935791,0.287323
1631,A,1553918291944193,-1.8976593,6.164627,4.780655,-1.02594,0.16249084,-1.5991058
1631,A,1553918342298197,16.045334,17.677841,8.718552,1.5397949,-0.59661865,0.0052490234
1631,A,1553918392652201,1.1508484,-0.92503357,-4.9109497,0.7454376,-0.22798157,0.15304565
1631,A,1553918443006204,-9.418182,16.478806,15.775787,0.49137878,-0.44317627,-0.23956299
1631,A,1553918493360208,1.6394043,4.5189056,1.1361694,0.597702,-0.57595825,-0.60487366
1631,A,1553918543714212,-5.6499176,6.0101166,-2.076828,0.694397,-1.0415344,-1.1523132
1631,A,1553918594068216,5.9259186,8.034454,-6.7098846,-0.04234314,-0.6875763,-0.87942505
1631,A,1553918644422220,-1.2311096,10.791458,-1.3851776,-0.41822815,0.03781128,-0.21870422
1631,A,1553918694776224,0.031677246,8.877365,-2.581131,-1.2080994,0.54437256,0.61654663
1631,A,1553918745130228,0.557724,8.520187,-2.529358,-3.1068268,1.819519,1.8404999
1631,A,1553918795484232,1.2927399,10.188614,-0.73524475,-2.7147217,0.7643738,2.4285889
1631,A,1553918845838236,2.7252045,10.791122,-0.72717285,-1.3276978,-0.7691498,3.0529633
1631,A,1553918896192240,3.1132507,9.156769,-0.5825653,-1.5792236,0.8029175,1.4375916
1631,A,1553918946546244,3.4214325,13.3302,-1.8817444,-1.0993805,2.640747,1.2771606
1631,A,1553918996900247,-1.8995514,10.161224,0.10069275,0.087142944,1.905426,0.6769562
1631,A,1553919047254251,-4.8184814,18.07779,-6.141876,1.0825195,-0.40208435,-0.335083
1631,A,1553919097608255,2.9921875,9.193436,-2.9009094,2.8244934,-1.7342834,-1.732193
1631,A,1553919147962259,3.4306793,9.545181,3.7966614,-0.27851868,-0.16197205,-0.57206726
1631,A,1553919198316263,-0.9764557,5.1484833,-1.2470093,0.50575256,-0.41319275,-0.29507446
1631,A,1553919248670267,-2.7157288,2.4873505,-0.22764587,2.2103271,-3.0879822,-2.2418365
1631,A,1553919299024271,-1.81604,2.5985565,-2.2437592,0.8196869,-1.0013123,0.32048035
1631,A,1553919349378275,-1.576889,4.106781,4.2841644,0.37753296,0.54808044,-1.1530457
1631,A,1553919399732279,10.605698,18.563889,9.027191,1.9545593,-1.1723938,-0.008758545
1631,A,1553919450086283,-1.0897675,-0.8054962,0.054779053,0.33795166,-0.16950989,-0.1532135
1631,A,1553919500440287,-0.8681183,15.522659,-7.446823,0.560379,-0.21504211,0.036834717
1631,A,1553919550794290,1.204361,5.545227,-0.68948364,0.6427765,-0.5698242,-0.30088806
1631,A,1553919601148294,-3.1743622,3.9213257,-8.6436615,0.6321411,-0.77905273,-0.95150757
1631,A,1553919651502298,4.249588,10.146072,-3.5322723,0.44058228,-0.7267914,-1.0943756
1631,A,1553919701856302,0.14633179,8.861984,-1.857666,-0.14173889,-0.603714,-0.5576019
1631,A,1553919752210306,-0.16844177,8.953171,-3.5658722,-0.6996765,0.27079773,0.43806458
1631,A,1553919802564310,-0.046920776,8.586563,-1.7442932,-2.5235748,1.1577454,1.3417053
1631,A,1553919852918314,0.57606506,9.602905,-1.708435,-3.1145935,1.3354187,2.065567
1631,A,1553919903272318,1.4668732,10.559845,-1.4981995,-2.148285,-1.3532104,2.1550903
1631,A,1553919953626322,4.981735,11.461487,-1.4901123,-1.9584503,0.12802124,2.5870972
1631,A,1553920003980326,3.8394775,12.843201,-0.61195374,-0.9401398,1.8668365,1.2890167
1631,A,1553920054334329,-0.35058594,13.427765,0.07215881,-0.39816284,1.9550476,0.7841644
1631,A,1553920104688333,-5.1371307,13.034302,-0.090286255,0.9924011,0.08642578,0.024047852
1631,A,1553920155042337,-2.775116,13.970947,-1.1451569,1.9902649,-1.083435,-1.3566895
1631,A,1553920205396341,9.519287,9.39975,-0.9631653,2.0239105,-1.066803,-1.4176636
1631,A,1553920255750345,-0.44821167,7.228409,-1.0424957,-0.26338196,-1.3476868,1.0127258
1631,A,1553920306104349,-2.6979065,3.3463745,0.52433777,1.0011902,0.1461029,-1.341095
1631,A,1553920356458353,-1.6555328,2.592575,-1.1220703,0.35539246,3.5419464,-1.9947205
1631,A,1553920406812357,-0.49482727,4.7626038,1.92276,1.4884338,-0.18569946,-0.5545807
1631,A,1553920457166361,4.0784454,12.684998,7.90921,0.6966553,-0.38568115,-0.57977295
1631,A,1553920507520365,13.030762,15.212891,6.148163,0.7332611,-0.26408386,-0.15524292
1631,A,1553920557874369,-5.429367,7.4768677,-8.311584,0.6038971,-0.67141724,0.16802979
1631,A,1553920608228372,-7.2240143,11.687881,-5.300949,0.52471924,-0.8794861,-0.3014984
1631,A,1553920658582376,1.9759674,4.5492096,-5.0285034,0.60606384,-0.86582947,-0.8033447
1631,A,1553920708936380,-0.9326477,10.258179,3.5728912,0.28805542,-0.8470154,-1.0077515
1631,A,1553920759290384,1.3591919,9.927811,-2.7027893,-0.24725342,-0.34901428,-0.4597473
1631,A,1553920809644388,-0.87657166,9.750687,-1.9230347,-0.9794464,0.4013977,0.3738098
1631,A,1553920859998392,0.907547,8.271439,-2.2734222,-2.4603882,1.1484833,1.2359314
1631,A,1553920910352396,0.5023651,9.545273,-1.8564911,-3.029663,0.796463,1.9864502
1631,A,1553920960706400,2.1635742,10.875519,-0.591568,-2.094345,-0.5697479,2.7018433
1631,A,1553921011060404,4.264221,11.115982,-0.8502655,-1.2800751,0.3757782,2.702179
1631,A,1553921061414408,3.719345,12.276138,-0.4840088,-0.9013672,1.9415588,1.2823486
1631,A,1553921111768412,0.2565918,13.362793,0.026306152,-0.18780518,2.4226074,0.973114
1631,A,1553921162122415,-4.9112244,14.001633,-1.1187134,1.1008301,0.4222412,0.20854187
1631,A,1553921212476419,0.27676392,14.619476,-4.449585,2.5462189,-1.505661,-1.418457
1631,A,1553921262830423,6.8583374,8.745651,-2.6361694,1.7355804,-1.6604156,-0.79452515
1631,A,1553921313184427,0.13591003,6.7306213,0.18153381,0.09146118,-1.3096008,0.60757446
1631,A,1553921363538431,-2.6385498,2.7611084,-0.33665466,1.4800415,0.18408203,-1.4898682
1631,A,1553921413892435,-2.278778,1.164978,-0.9053955,1.6300354,1.2278442,-1.462204
1631,A,1553921464246439,-0.332901,6.6704254,1.5309753,0.6240387,-0.24635315,-0.8000183
1631,A,1553921514600443,9.065216,15.431183,6.881912,0.1893158,-0.6261139,-0.9676056
1631,A,1553921564954447,10.14769,10.569489,1.1049805,0.7608032,-0.26802063,-0.041107178
1631,A,1553921615308451,-6.391083,10.07666,-0.985199,0.6669464,-0.49717712,0.037872314
1631,A,1553921665662454,-6.315201,10.433884,2.2512817,0.56277466,-0.79074097,-0.5333252
1631,A,1553921716016458,-2.4786224,5.228119,1.1584015,0.5821686,-0.92874146,-0.9745941
1631,A,1553921766370462,-1.3957062,9.011856,2.4024048,0.13337708,-0.7986908,-0.9788513
1631,A,1553921816724466,1.4220886,8.914581,-1.138794,-0.3166809,-0.14692688,-0.2909546
1631,A,1553921867078470,-1.0011292,9.594879,-1.1673584,-1.2091522,0.46609497,0.5412903
1631,A,1553921917432474,0.43870544,8.483902,-2.3701935,-2.5141754,1.3039703,1.5425262
1631,A,1553921967786478,1.4120636,9.900024,-1.0405121,-2.6666412,0.3136444,2.1269073
1631,A,1553922018140482,3.1951141,11.2391815,-0.31854248,-1.9058075,-0.22680664,2.7670746
1631,A,1553922068494486,4.1857147,11.157257,-0.3978119,-1.3432922,0.553421,2.1934052
1631,A,1553922118848490,3.080124,11.989777,-1.1467285,-1.1002808,1.8423767,1.3063049
1631,A,1553922169202494,-0.96339417,12.239868,-0.06712341,-0.06288147,1.7654266,0.74710083
1631,A,1553922219556497,-4.721634,15.53241,-2.056305,1.0034027,0.020385742,-0.2447052
1631,A,1553922269910501,2.5737305,12.834137,-4.027359,2.5666199,-1.3099365,-1.6053619
1631,A,1553922320264505,4.788925,9.01445,-0.9937744,0.8630066,-0.47476196,0.08494568
1631,A,1553922370618509,-0.55229187,6.4172974,0.9944916,0.5819702,-0.15621948,0.19335938
1631,A,1553922420972513,-2.3541565,2.9919128,-0.23916626,0.8290405,0.89689636,-2.3888855
1631,A,1553922471326517,-1.2603912,2.702835,-1.1729431,2.300949,-0.21395874,-0.87705994
1631,A,1553922521680521,-0.66815186,5.2905273,2.5167694,0.33595276,-0.695343,-0.91023254
1631,A,1553922572034525,12.235596,15.016983,6.7908325,0.4695282,-0.39016724,-0.63716125
1631,A,1553922622388529,4.9842987,8.409729,-1.0788422,0.739563,-0.5721588,0.11038208
1631,A,1553922672742533,-10.8293915,13.941895,5.1436615,0.43182373,-0.69358826,0.049987793
1631,A,1553922723096537,0.61442566,9.660049,-4.9626617,0.5993042,-0.6833496,-0.2826538
1631,A,1553922773450540,-1.1419373,6.129959,0.23025513,0.6053467,-1.0026245,-0.94351196
1631,A,1553922823804544,0.47198486,9.054184,-0.57707214,0.16390991,-0.8908081,-1.0105438
1631,A,1553922874158548,-0.6780853,10.515335,-1.6859894,-0.30575562,-0.07714844,-0.37123108
1631,A,1553922924512552,0.60873413,8.908279,-1.9204559,-1.3480377,0.72657776,0.75050354
1631,A,1553922974866556,0.4191742,8.536896,-2.801117,-2.7901459,1.7226715,1.9256592
1631,A,1553923025220560,1.0320282,10.039001,-1.3023987,-2.875351,-0.7893219,1.9925842
1631,A,1553923075574564,2.5632782,10.339523,-0.63067627,-1.9620667,-0.54844666,3.1829376
1631,A,1553923125928568,3.5353088,9.381088,-0.7511749,-1.4089203,1.267456,1.5644073
1631,A,1553923176273702,3.1584015,13.227203,-2.2605896,-1.1519623,2.4939117,0.88468933
1631,A,1553923226627706,-3.820984,13.614487,0.1516571,0.016311646,1.4898376,0.4914856
1631,A,1553923276981709,-7.0173187,16.828888,-3.2830963,0.92585754,-0.7775879,-0.314682
1631,A,1553923327335713,6.499832,10.813614,-5.56987,2.9096832,-1.1156921,-1.6065521
1631,A,1553923377689717,4.9217834,8.72731,-1.1727448,0.06376648,-1.5474243,0.81604004
1631,A,1553923428043721,-1.5014648,5.1903687,-0.44670105,0.37716675,-0.06364441,-0.2027893
1631,A,1553923478397725,-3.8595734,2.2792206,-0.79359436,2.3296356,-2.4141388,-2.8100739
1631,A,1553923528751729,-1.2228241,2.1556244,-1.5184937,1.4848633,-2.5271301,-0.059951782
1631,A,1553923579105733,-0.821167,4.8714905,5.044281,-0.3703766,-0.6211548,-1.319046
1631,A,1553923629459737,16.083908,17.378708,8.213547,1.3086853,-1.2760315,-0.22932434
1631,A,1553923679813741,-0.58843994,1.5000305,-1.0998383,0.71788025,-0.51660156,0.04573059
1631,A,1553923730167745,-8.292145,16.205704,5.9836884,0.32147217,-0.5392151,-0.04437256
1631,A,1553923780521749,2.155899,5.2065277,3.1971283,0.34205627,-1.0074921,-0.4198761
1631,A,1553923830875752,-5.1053925,5.4260864,-1.9805145,0.45762634,-1.0294342,-0.86938477
1631,A,1553923881229756,3.9756775,7.076767,-4.4832764,-0.015136719,-0.85157776,-0.89027405
1631,A,1553923931583760,0.32705688,10.532898,-0.9187012,-0.27885437,-0.24429321,-0.43304443
1631,A,1553923981937764,-0.3519287,9.430145,-2.7848206,-1.4332733,0.6976166,0.6545105
1631,A,1553924032291768,0.4061737,8.237625,-2.307251,-3.218048,1.9979095,2.0142365
1631,A,1553924082645772,2.0716553,9.6124115,-0.5048523,-2.4918823,-0.6056366,2.0948029
1631,A,1553924132999776,1.0331573,10.261978,-1.1611938,-1.6426544,-0.15821838,3.494522
1631,A,1553924183353780,5.946686,9.414703,-1.5683746,-1.0893097,1.6469421,1.4004974
1631,A,1553924233707784,4.583435,13.566589,-0.9602814,-1.0097046,2.9681854,1.2204132
1631,A,1553924284061788,-2.1029205,11.994995,0.018569946,0.4393463,1.6418152,0.642334
1631,A,1553924334415792,-6.9552307,19.244171,-4.415619,1.2659302,-0.75405884,-0.33525085
1631,A,1553924384769795,9.921204,9.445847,-5.7100677,3.4027405,-1.5553284,-1.9796906
1631,A,1553924435123799,3.0518494,8.587311,0.97369385,-0.66104126,0.1971283,1.3596039
1631,A,1553924485477803,-1.9341278,4.198044,-0.43229675,0.99612427,-0.38293457,-0.11378479
1631,A,1553924535831807,-3.1901703,1.3036804,-1.3121338,2.271103,-2.2468872,-2.9007263
1631,A,1553924586185811,-1.7818298,2.9473572,-1.9330139,2.23703,-2.265091,0.8070984
1631,A,1553924636539815,0.022399902,7.4434204,5.559952,-0.7438965,0.6012268,-1.7162018
1631,A,1553924686893819,18.625687,19.004166,7.3112183,2.1240082,-1.6874237,0.62646484
1631,A,1553924737247823,-1.2725067,0.2883911,-1.1017609,0.40821838,-0.5912781,0.22756958
1631,A,1553924787601827,-8.216782,19.048676,1.6588287,0.31750488,-0.7895813,-0.11959839
1631,A,1553924837955831,4.645996,4.439209,-2.6102448,0.61099243,-0.7680664,-0.41355896
1631,A,1553924888309834,-5.930298,4.7828217,-3.8814545,0.6040802,-1.0222473,-1.0534973
1631,A,1553924938663838,4.9302063,10.737228,-7.128189,0.031188965,-0.9376068,-0.90626526
1631,A,1553924989017842,-2.0838013,9.225739,-1.676178,-0.3299713,-0.007293701,-0.28056335
1631,A,1553925039371846,2.1275482,8.066254,-2.3995056,-1.1217041,0.31896973,0.520813
1631,A,1553925089725850,0.8460388,8.46553,-2.1257324,-2.9239807,1.311676,1.6314392
1631,A,1553925140079854,-0.21469116,10.351135,-1.2275085,-2.5980835,1.0756989,2.2886047
1631,A,1553925190433858,2.694458,10.756363,-0.89730835,-1.7141571,-1.1125946,2.1385803
1631,A,1553925240787862,5.0688934,9.578888,-0.7258301,-1.879715,0.5405426,1.6251526
1631,A,1553925291141866,2.3613129,13.0074005,-0.45625305,-0.9079132,2.1485443,1.2748718
1631,A,1553925341495870,-1.0645599,10.635712,0.7054138,0.11419678,1.4125519,0.78222656
1631,A,1553925391849874,-4.6893616,15.110718,-3.356369,1.3321991,-0.65426636,-0.32505798
1631,A,1553925442203877,-2.546814,9.441574,0.24754333,2.0687408,-1.2216339,-2.012619
1631,A,1553925492557881,6.439438,8.751907,2.9305878,0.81303406,-0.53144836,-2.608139
1631,A,1553925542911885,-1.8945465,5.9044647,-1.2559357,0.11439514,-0.062683105,-0.6296234
1631,A,1553925593265889,-2.6389923,3.5551605,-0.0761261,1.4299316,-1.2638702,-1.9943695
1631,A,1553925643619893,-0.812027,3.1445313,-1.8921509,1.6997223,-1.3654022,-0.05055237
1631,A,1553925693973897,0.4517975,5.8118744,4.453125,0.29386902,-0.48825073,-1.0535583
1631,A,1553925744327901,3.2980957,15.956558,9.887848,1.2726135,0.058273315,-0.32287598
1631,A,1553925794681905,-0.5708618,7.514801,5.3657837,0.5774536,-0.3312683,-0.19519043
1631,A,1553925845035909,-8.0456085,14.843002,1.8885498,0.63038635,-0.0033416748,-0.2984314
1631,A,1553925895389913,3.4906158,2.7400513,-5.3500824,0.6329346,0.046722412,-0.57533264
1631,A,1553925945743917,-2.2424622,9.223312,-1.8867798,0.5360718,-0.3977661,-1.0593567
1631,A,1553925996097920,0.26020813,7.796158,-1.7431946,0.0922699,-0.6394806,-0.981781
1631,A,1553926046451924,0.014770508,8.731064,-0.6310272,-0.5609741,-0.2853546,-0.2039032
1631,A,1553926096805928,2.0009918,9.05835,-1.9726715,-1.846344,0.5437927,0.99246216
1631,A,1553926147159932,0.34561157,8.925766,-1.6704407,-3.3167725,1.2268982,2.109604
1631,A,1553926197513936,-0.48020935,9.231354,-2.1638184,-2.3643188,0.008514404,2.9172974
1631,A,1553926247867940,1.6691742,10.476425,-1.572586,-1.3116608,-0.7973938,2.6876068
1631,A,1553926298221944,4.2834473,11.569061,-0.850235,-1.3700714,1.0129852,1.3415985
1631,A,1553926348575948,1.5341644,12.825348,-0.030960083,-0.5319977,2.4807892,0.86099243
1631,A,1553926398929952,-2.0650024,13.174149,-1.564331,0.57366943,1.3109436,0.2230072
1631,A,1553926449283956,-3.8281403,15.62558,-5.014633,2.044571,-1.0004272,-0.9694214
1631,A,1553926499637959,2.6459503,8.41571,0.19920349,1.8833618,-1.558258,-0.91874695
1631,A,1553926549991963,5.4341125,7.946472,3.3069458,0.09321594,-0.3346405,0.32925415
1631,A,1553926600345967,-1.7078094,4.006912,-0.7606201,1.2896118,-0.5294037,-1.5316162
1631,A,1553926650699971,-3.1747284,1.6819763,-1.6505737,2.020584,-1.5840149,-1.5396271
1631,A,1553926701053975,-1.8895874,1.9200745,-0.32789612,0.8931122,-0.80693054,-0.36489868
1631,A,1553926751407979,6.960907,10.130936,5.421997,0.2577057,0.03765869,-1.1901245
1631,A,1553926801761983,10.585724,11.15593,1.7356567,1.0813751,0.08119202,-0.22569275
1631,A,1553926852115987,-5.625458,7.2276917,4.299164,0.5856476,-0.3983612,-0.01651001
1631,A,1553926902469991,-4.1359406,10.944031,10.625122,0.51142883,-0.5853424,-0.2266388
1631,A,1553926952823995,0.7910156,3.710022,-1.0810852,0.64985657,-0.6083832,-0.683609
1631,A,1553927003177999,-1.3499908,8.575546,-2.6850739,0.42396545,-0.7680359,-0.98628235
1631,A,1553927053532002,0.8513794,8.472824,-3.4008942,-0.0973053,-0.5269928,-0.76345825
1631,A,1553927103886006,-0.3601532,9.358063,-1.5821075,-0.7122803,0.09465027,0.10398865
1631,A,1553927154240010,0.5986786,8.2434845,-1.9798279,-2.0322876,1.1626129,1.3690491
1631,A,1553927204594014,0.14015198,9.624451,-1.826355,-2.8318176,1.0054626,1.9903717
1631,A,1553927254948018,0.65309143,11.227402,-0.9365845,-2.0126953,-0.42105103,2.592575
1631,A,1553927305302022,3.7538605,10.209824,-0.17115784,-1.4836273,0.046875,2.1430054
1631,A,1553927355656026,4.8628387,11.821945,-0.9081116,-1.4255219,1.5957184,1.3722382
1631,A,1553927406010030,0.17643738,12.965759,-0.4217682,-0.41531372,0.9608612,1.0635529
1631,A,1553927456364034,-4.623047,14.373917,-2.806549,0.64793396,0.10751343,0.13072205
1631,A,1553927506718038,-0.8899231,12.655319,-4.4969177,2.0727844,-0.14726257,-1.455658
1631,A,1553927557072042,3.670288,9.455307,0.034484863,1.0062714,-1.1386108,-1.7458038
1631,A,1553927607426045,0.4000702,7.553421,0.8029022,-0.20373535,-0.9325714,-0.8591614
1631,A,1553927657780049,-1.3136597,3.8795319,-0.35281372,1.08844,-1.3442993,-1.8818359
1631,A,1553927708134053,-1.221817,3.2723083,0.2420044,2.0073547,-0.8968048,-0.5031433
1631,A,1553927758488057,-3.4829712,2.5846252,2.1651154,0.31358337,-0.32185364,-0.78404236
1631,A,1553927808842061,3.9244232,12.193466,6.577652,0.8408661,-0.32278442,-0.7305145
1631,A,1553927859196065,4.9443665,6.250763,3.8265228,1.0465088,-0.14910889,-0.03100586
1631,A,1553927909550069,-1.9617157,10.62442,3.539566,0.5722656,-0.011917114,-0.03340149
1631,A,1553927959904073,1.6537323,8.275574,-1.5283508,0.717041,0.019210815,-0.24993896
1631,A,1553928010258077,-1.2127686,2.7312012,-3.2758484,0.7815857,-0.4716034,-0.8842163
1631,A,1553928060612081,1.224762,7.4950104,-4.2323914,0.29603577,-0.768631,-0.970932
1631,A,1553928110966084,1.5569305,9.968552,-2.065979,-0.14955139,-0.34661865,-0.63713074
1631,A,1553928161320088,-0.11260986,9.430084,-1.5617065,-0.702301,0.25234985,0.31970215
1631,A,1553928211674092,-0.49316406,8.705551,-2.3644562,-2.3624878,1.2823639,1.4733429
1631,A,1553928262028096,0.28424072,10.279251,-1.8547058,-2.8691254,1.3524933,2.3567505
1631,A,1553928312382100,0.90419006,10.884796,-0.99601746,-1.6215668,-0.57707214,2.6157074
1631,A,1553928362736104,3.8594055,9.436584,-1.2415314,-1.6524048,-0.1355133,2.0709686
1631,A,1553928413090108,3.7403107,12.276398,-0.9692688,-1.380722,1.7951202,1.2616882
1631,A,1553928463444112,0.26797485,11.330032,0.73994446,-0.31948853,2.3265533,0.7836609
1631,A,1553928513798116,-3.3386688,15.951599,-3.8190002,0.80895996,0.3360138,0.10316467
1631,A,1553928564152120,-5.112381,11.943451,-2.3110352,2.5285187,-1.4282684,-1.3131104
1631,A,1553928614506124,5.375458,9.230942,2.8344421,0.2419281,-0.21800232,-0.911026
1631,A,1553928664860127,1.596344,6.140396,0.019424438,0.47758484,0.80462646,-0.32414246
1631,A,1553928715214131,-3.2595978,2.6213226,-0.024765015,2.0451355,-2.6587982,-2.4736938
1631,A,1553928765568135,-2.5780334,1.5992279,-2.559021,2.0265503,-3.1009674,-0.38560486
1631,A,1553928815922139,-0.7953186,2.4593964,2.4267426,0.0920105,-0.45854187,-1.326767
1631,A,1553928866276143,10.953125,15.810944,8.270386,1.4821625,-1.7764282,0.040405273
1631,A,1553928916630147,1.7623901,2.5954895,0.09597778,0.49160767,-1.0783234,0.31452942
1631,A,1553928966984151,-9.630798,15.126007,4.587082,0.4446869,-0.86787415,-0.05680847
1631,A,1553929017338155,0.2689972,5.9905853,1.127533,0.64837646,-0.583786,-0.35281372
1631,A,1553929067692159,-4.032593,2.58078,-4.001114,0.554718,-0.90083313,-0.8878937
1631,A,1553929118046163,4.161209,9.5864105,-0.5623627,0.102127075,-0.9441376,-1.0591888
1631,A,1553929168400167,-0.571228,10.5069275,-0.70448303,-0.19761658,-0.530365,-0.3738098
1631,A,1553929218754170,0.85757446,7.9874268,-2.5453796,-1.0832825,0.20610046,0.4103241
1631,A,1553929269108174,1.2361755,8.501389,-1.7346344,-2.8559113,1.5148621,1.6636505
1631,A,1553929319462178,-0.5858612,10.811218,-1.4465332,-2.6363068,0.9573059,2.4126587
1631,A,1553929369816182,2.9684448,10.075165,-1.4910278,-1.4810028,-0.83403015,3.0003357
1631,A,1553929420170186,4.6516113,9.498154,-0.03213501,-1.9703674,0.27552795,1.5379333
1631,A,1553929470524190,3.9230194,13.837067,-0.2687683,-1.2441406,2.255478,1.1952667
1631,A,1553929520878194,-0.9020233,11.039551,-0.035995483,0.009033203,1.7652435,0.6820984
1631,A,1553929571232198,-4.77034,18.007843,-5.474411,0.74409485,-0.2138977,-0.1716919
1631,A,1553929621586202,-0.26843262,9.494598,-3.8660583,2.9427185,-1.5890198,-1.6479034
1631,A,1553929671940206,6.571213,9.236343,5.7094574,-5.950928E-4,-0.63075256,-1.7756348
1631,A,1553929722294209,-1.275238,5.4076385,-0.59288025,0.07437134,0.15509033,-0.2623291
1631,A,1553929772648213,-2.6476898,2.8457642,-0.62657166,2.0676575,-3.055603,-3.3415222
1631,A,1553929823002217,-0.8301697,2.8927917,-2.58255,1.2765045,-1.9125824,0.84866333
1631,A,1553929873356221,-0.9896698,2.1382446,4.1173553,-0.5397339,0.8943634,-1.6821289
1631,A,1553929923710225,6.72789,19.254501,8.653458,1.6322937,-0.8996887,-0.03186035
1631,A,1553929974064229,0.7537689,-3.2229156,2.993805,0.63090515,-0.2912445,-0.009094238
1631,A,1553930024418233,-6.637787,19.240402,-0.74534607,0.49842834,-0.10310364,-0.1710968
1631,A,1553930074772237,5.326355,1.6501007,-3.2333832,0.79148865,-0.2870636,-0.7168884
1631,A,1553930125126241,-4.356186,7.4418793,-1.7259979,0.57543945,-0.90193176,-1.2078247
1631,A,1553930175480245,2.1328735,6.3013763,-4.448929,-0.06576538,-0.6448517,-0.78718567
1631,A,1553930225834249,-0.8261566,10.667633,0.09135437,-0.49012756,0.16551208,0.047546387
1631,A,1553930276188252,-0.8843994,8.74115,-3.40596,-2.038437,1.560669,1.2110443
1631,A,1553930326542256,-0.21862793,9.326065,-1.9313354,-3.054718,1.6341248,2.236084
1631,A,1553930376896260,2.0848846,10.710556,-0.6758423,-2.1796875,-2.0101929,1.7227936
1631,A,1553930427250264,2.9533691,10.350281,-0.6796875,-2.24057,-0.18807983,2.910736
1631,A,1553930477604268,3.0033875,8.859192,-0.65101624,-1.20755,1.8456268,1.1322784
1631,A,1553930527958272,3.1475983,14.059311,-2.248413,-0.8677521,2.0783997,1.0002747
1631,A,1553930578312276,-5.8932037,15.805557,0.7306061,0.6510925,0.18887329,0.1802063
1631,A,1553930628666280,-8.972504,14.545685,0.6192627,1.648819,-1.0313416,-1.1023865
1631,A,1553930679020284,10.167465,9.155197,-1.157959,2.9827118,-1.1772461,-1.8556519
1631,A,1553930729374288,0.3517151,7.7256165,-0.77809143,-0.48789978,-0.74212646,1.2254181
1631,A,1553930779728292,-2.807663,3.7623138,0.22332764,1.4133911,-0.8739929,-1.1811981
1631,A,1553930830082295,-2.277481,1.5018463,-1.5848846,-0.08203125,3.688446,-1.8431091
1631,A,1553930880436299,-0.031280518,3.8957672,0.43008423,1.4520416,-0.25834656,-0.5384979
1631,A,1553930930790303,4.5059967,10.182541,6.9176636,0.4990692,0.20397949,-0.26863098
1631,A,1553930981144307,15.616608,17.247818,10.344803,0.84768677,0.29100037,0.013183594
1631,A,1553931031498311,-4.690048,6.4689484,-9.171799,0.62872314,-0.37617493,0.0020599365
1631,A,1553931081852315,-8.197449,10.116653,-5.64917,0.60910034,-0.73527527,-0.52363586
1631,A,1553931132206319,3.5745544,3.4674988,-5.0595703,0.74053955,-0.9332733,-0.95236206
1631,A,1553931182560323,2.5131683,10.796417,3.1029053,0.35325623,-1.1877441,-1.057312
1631,A,1553931232914327,0.5973816,9.072983,-3.1165466,-0.15229797,-0.7316742,-0.4671936
1631,A,1553931283268331,-1.2284546,9.959808,-0.85961914,-0.9718628,0.28056335,0.58210754
1631,A,1553931333622334,0.50531006,8.056915,-2.3932953,-2.7959442,1.3313141,1.5888824
1631,A,1553931383976338,0.394516,9.313232,-2.0401306,-3.0504608,0.9450073,2.2029266
1631,A,1553931434330342,2.048706,10.791672,-0.0927887,-2.1726532,-1.407135,2.0545502
1631,A,1553931484684346,5.308426,11.957703,-0.5935669,-2.0751038,0.5181885,2.154831
1631,A,1553931535038350,3.5859375,13.774826,-0.12892151,-0.8545532,2.189804,1.2986755
1631,A,1553931585392354,-0.34472656,14.434494,-0.3296051,-0.18959045,2.0646362,1.0444336
1631,A,1553931635746358,-7.2525635,14.502502,0.83166504,1.2796631,-0.040664673,0.25582886
1631,A,1553931686100362,-1.7531738,11.501236,0.19322205,2.607376,-1.2828827,-1.5694427
1631,A,1553931736454366,8.894562,8.356873,0.50801086,2.458786,-0.9830017,-2.067276
1631,A,1553931786808370,-1.7780609,5.7973785,-0.9441986,0.6983795,-1.1288452,0.06556702
1631,A,1553931837162374,-2.9926147,3.0233612,-0.8516083,0.9147644,-1.1898804,-1.0599976
1631,A,1553931887516377,-2.1018066,1.5184021,-1.2146606,-0.0022888184,1.1128235,-0.6812134
1631,A,1553931937870381,0.6329193,7.5745697,1.1950378,1.57547,-0.23417664,-0.94706726
1631,A,1553931988224385,6.4651184,15.281372,5.023117,0.56811523,-0.2513733,-0.45162964
1631,A,1553932038578389,10.147766,10.101685,2.4044342,0.5268707,0.026473999,-0.11155701
1631,A,1553932088932393,-0.9658661,10.106018,-6.2255096,0.49038696,-0.6104431,0.009979248
1631,A,1553932139286397,-3.2444916,5.5255737,-4.763489,0.51312256,-0.76231384,-0.40953064
1631,A,1553932189640401,-2.1861267,5.713028,-6.5319824,0.57559204,-0.7037506,-0.9584961
1631,A,1553932239994405,0.75050354,11.6744995,0.9359894,0.28755188,-0.6350708,-1.0836182
1631,A,1553932290348409,-0.2358551,8.556793,-3.550003,-0.18876648,-0.13139343,-0.39135742
1631,A,1553932340702413,-0.3307953,8.967209,-1.4602509,-1.1478882,0.6586304,0.65293884
1631,A,1553932391056417,0.931015,8.506363,-1.6094971,-2.6642761,1.5478821,1.5901947
1631,A,1553932441410420,0.6060791,9.854187,-1.2476196,-2.9741058,0.48796082,1.8590851
1631,A,1553932491764424,2.7066498,10.870071,-0.6856384,-2.2103271,-0.9592743,2.4422302
1631,A,1553932542118428,4.737625,11.835709,-0.7835083,-1.428009,0.3420105,2.4310303
1631,A,1553932592472432,3.2443542,12.161102,-0.66967773,-0.9382019,1.8833313,1.2639923
1631,A,1553932642826436,-1.1959991,13.3484955,-0.019882202,-0.047607422,1.9630432,0.7256317
1631,A,1553932693180440,-6.180786,14.895569,-0.62579346,1.1814423,0.20501709,-0.21865845
1631,A,1553932743534444,1.2163086,12.660919,-2.6565552,2.690277,-1.3721771,-1.6663666
1631,A,1553932793888448,6.484207,8.380981,-1.1696167,1.4475555,-1.3514099,-0.25334167
1631,A,1553932844242452,-0.50787354,5.8094482,0.23112488,0.48339844,-0.66127014,0.42695618
1631,A,1553932894596456,-2.2440033,2.2107544,-0.6201782,1.382904,0.6116791,-1.835434
1631,A,1553932944950459,-2.2204285,1.6197052,-1.1464539,2.1703033,0.007461548,-1.1212006
1631,A,1553932995304463,0.072250366,7.1369476,1.9848175,0.9158783,-0.5929718,-0.79364014
1631,A,1553933045658467,10.930176,15.832214,8.809982,0.5879669,-0.50341797,-0.6690674
1631,A,1553933096012471,8.448273,10.804108,1.0224457,0.86302185,-0.8048096,0.20355225
1631,A,1553933146373815,-7.9155426,12.306519,3.005127,0.49960327,-1.0292664,0.020767212
1631,A,1553933196727819,-3.9427948,9.789276,1.3593903,0.5469055,-1.0731354,-0.3351593
1631,A,1553933247081823,-1.6899414,5.43692,-1.8687134,0.54875183,-0.909256,-0.83380127
1631,A,1553933297435827,0.8771515,9.769119,-1.838211,0.31759644,-0.89242554,-0.93655396
1631,A,1553933347789831,0.5439148,10.555878,-2.9398499,-0.20750427,-0.1510315,-0.44970703
1631,A,1553933398143835,0.5232239,8.764572,-1.8409119,-0.9087677,0.28944397,0.32582092
1631,A,1553933448497839,1.9348297,8.219406,-1.9073639,-2.460556,1.5414276,1.4524994
1631,A,1553933498851842,0.62179565,9.218948,-1.0783691,-2.7948456,1.4763947,2.206543
1631,A,1553933549205846,1.7401581,11.215866,-1.5187836,-1.7579498,-0.3010254,2.8338165
1631,A,1553933599559850,5.280487,11.358032,-0.48779297,-1.2093506,0.31201172,2.1726532
1631,A,1553933649913854,3.283661,13.25531,-0.96954346,-1.2232361,2.3209076,1.3575134
1631,A,1553933700267858,-0.7020111,11.398285,-0.5847168,-0.27383423,2.217926,0.82328796
1631,A,1553933750621862,-3.5359497,14.709778,-4.2611084,0.7702637,0.29457092,0.02658081
1631,A,1553933800975866,-0.8433838,12.006805,-2.894928,2.325943,-1.2605286,-1.3038788
1631,A,1553933851329870,2.9945526,10.358963,1.2271271,0.63565063,-0.67193604,-1.0023041
1631,A,1553933901683874,0.63812256,6.4571686,-0.31871033,0.39390564,0.011505127,-0.28344727
1631,A,1553933952037878,-2.6834717,2.3276062,-0.31936646,1.7623596,-1.681839,-2.5480042
1631,A,1553934002391882,-2.629898,2.0137177,-1.733429,2.11557,-3.124466,-0.18051147
1631,A,1553934052745885,-2.0033417,2.230194,1.4933319,0.008605957,-1.0297394,-1.1177979
1631,A,1553934103099889,7.8859863,14.693771,5.14299,1.1500702,-1.1890717,-0.2538147
1631,A,1553934153453893,3.2211304,3.7383423,1.2677612,0.6936798,-0.55929565,0.11526489
1631,A,1553934203807897,-8.542221,14.311325,5.131607,0.56936646,-0.590744,-0.083847046
1631,A,1553934254161901,0.93200684,5.8186646,2.8613281,0.49398804,-0.7206726,-0.39834595
1631,A,1553934304515905,-3.9998016,2.7719421,-2.4924316,0.43894958,-1.0420532,-0.86460876
1631,A,1553934354869909,4.727112,9.444504,-0.81632996,0.1505127,-1.2098236,-1.1729584
1631,A,1553934405223913,1.065979,10.130173,0.36053467,-0.20483398,-0.48965454,-0.84739685
1631,A,1553934455577917,0.24702454,9.082703,-1.7285614,-0.5378418,-0.26011658,0.21542358
1631,A,1553934505931921,0.33589172,8.535339,-1.9285583,-2.4319916,1.6044617,1.6181488
1631,A,1553934556285924,0.91563416,9.567688,-1.7818451,-2.3445587,3.5845795,2.4539948
1631,A,1553934606639928,-0.33795166,10.765259,-3.2319794,-1.8562317,0.14628601,2.9006805
1631,A,1553934656993932,7.266159,10.314682,-0.58703613,-2.0124207,0.98091125,2.0093842
1631,A,1553934707347936,3.5404205,16.61818,-0.5291443,-1.3937683,1.6407776,1.2800903
1631,A,1553934757701940,1.8894348,10.542694,0.74642944,-0.1774292,0.85650635,0.9424591
1631,A,1553934808055944,-3.7296753,14.957474,-3.4487305,1.0600586,-0.80200195,-0.26678467
1631,A,1553934858409948,-1.6384277,12.575104,-1.0105438,2.5924072,-0.5919342,-2.1566925
1631,A,1553934908763952,2.4942474,9.710876,-0.9108124,0.4225769,-0.7124176,1.4395752
1631,A,1553934959117956,-1.9209442,5.649704,-0.81166077,1.130188,-1.227066,-0.3983307
1631,A,1553935009471960,-2.4907837,2.2666473,0.0014038086,-0.66362,2.9608307,-2.4354553
1631,A,1553935059825964,-1.9067535,3.1693878,-1.9939575,2.4611053,-0.7419586,-0.53544617
1631,A,1553935110179967,0.80003357,2.7841492,2.3384094,0.30636597,-1.6270752,-0.8847656
1631,A,1553935160533971,17.881592,18.3396,10.340637,0.7666931,-0.23388672,-0.44288635
1631,A,1553935210887975,-0.23065186,7.5603943,-5.3247986,0.7207794,-0.6053467,0.117385864
1631,A,1553935261241979,-15.291138,14.482376,-4.200989,0.50942993,-0.7487793,-0.32182312
1631,A,1553935311595983,2.230774,0.7803345,-9.850433,0.76431274,-0.87493896,-0.66322327
1631,A,1553935361949987,-0.38009644,14.561325,6.482971,0.53279114,-0.83122253,-1.2882538
1631,A,1553935412303991,2.5292358,8.397583,-3.3842773,-0.13679504,-1.1328888,-0.8509064
1631,A,1553935462657995,-1.2140045,9.511154,-2.4833527,-0.49180603,0.6166229,0.20043945
1631,A,1553935513011999,0.8969574,8.076935,-1.1199036,-2.129425,0.7200928,1.170166
1631,A,1553935563366003,0.14250183,8.778488,-2.358429,-3.4686127,2.3783264,2.2816772
1631,A,1553935613720007,0.7682953,9.918045,-1.0470276,-2.2126007,-1.0457764,1.8936768
1631,A,1553935664074010,3.0618439,11.936951,-0.42974854,-2.4260254,0.1478424,3.3568115
1631,A,1553935714428014,5.3283386,11.346893,-1.0848083,-1.2263031,1.7406158,1.2054443
1631,A,1553935764782018,0.68151855,12.675156,-1.1226654,-0.7415619,2.3780975,1.0916901
1631,A,1553935815136022,-4.7797394,14.3004,3.701126,0.83296204,0.034347534,0.12277222
1631,A,1553935865490026,-7.348831,17.429413,-3.5660248,1.621933,-2.0150757,-1.2519684
1631,A,1553935915844030,13.753677,10.301559,2.4356232,1.0468445,0.7168884,-2.0752106
1631,A,1553935966198034,-1.9436951,5.876999,-0.38424683,0.84942627,-0.73139954,-0.27685547
1631,A,1553936016552038,-4.467331,3.4663086,-0.3837738,1.6546326,-3.1244812,-2.2310333
1631,A,1553936066906042,-3.1848755,0.45524597,-2.2896423,-1.1529083,3.1204681,-1.9122009
1631,A,1553936117260046,0.9089203,3.4179688,1.4299164,2.19635,0.1334076,-0.5587921
1631,A,1553936167614049,0.69706726,17.997513,17.820724,0.30445862,-2.8561707,0.01335144
1631,A,1553936217968053,5.950485,4.4243164,3.294159,0.338562,0.4846344,-0.23612976
1631,A,1553936268322057,-2.7788239,11.171677,-8.061829,0.6932068,-0.77516174,0.09692383
1631,A,1553936318676061,-5.301361,8.416901,3.5759125,0.70614624,-0.96333313,-0.56855774
1631,A,1553936369030065,2.5123749,1.3592682,-13.320572,0.6605377,-1.13591,-1.0100098
1631,A,1553936419384069,0.20706177,13.9583435,13.337143,0.21212769,-1.2225189,-0.9179077
1631,A,1553936469738073,1.3635406,8.381836,-4.3267365,-0.28370667,-0.6468811,-0.16056824
1631,A,1553936520092077,-1.7209167,8.795364,-3.0656128,-1.3586884,0.5336609,0.793396
1631,A,1553936570446081,0.61883545,8.445465,-1.7114716,-3.137024,1.7182312,2.0059357
1631,A,1553936620800085,-0.44223022,9.641769,-2.234436,-2.393097,1.0954437,2.8888092
1631,A,1553936671154089,2.557953,10.577026,-0.6412201,-1.5449371,-0.9220123,2.5160828
1631,A,1553936721508092,7.407898,11.397385,-0.23420715,-1.8933868,1.1625519,1.8293304
1631,A,1553936771862096,3.537262,14.4938965,0.45906067,-1.0038452,2.4776764,1.1999359
1631,A,1553936822216100,-1.0988617,12.429794,-0.7684326,0.19848633,1.6425323,0.63694763
1631,A,1553936872570104,-5.067917,15.922424,-2.508728,1.478241,-0.49475098,-0.46401978
1631,A,1553936922924108,-2.0162048,9.662308,1.036789,1.812973,-1.1211853,-1.7939453
1631,A,1553936973278112,7.0312653,8.689255,3.118927,-0.01399231,-0.13171387,-1.4653625
1631,A,1553937023632116,-2.430252,4.3326874,-1.1316223,1.3603668,-0.56463623,-1.0878448
1631,A,1553937073986120,-3.3383026,1.5850677,-0.9558258,2.0925598,-3.454422,-1.9198303
1631,A,1553937124340124,-1.545105,0.97377014,-1.2368622,1.0592957,-1.9446106,0.026794434
1631,A,1553937174694128,0.48384094,6.403366,6.5355988,0.32174683,-0.71798706,-1.0147247
1631,A,1553937225048132,3.792038,13.139511,10.025742,1.2548523,-1.3762512,0.17500305
1631,A,1553937275402135,-1.8778076,4.8988953,-0.16073608,0.39039612,-0.25170898,-0.095062256
1631,A,1553937325756139,-4.4782867,14.384644,-2.5009308,0.5014343,-0.573822,-0.17059326
1631,A,1553937376110143,1.0862579,2.1488953,-2.2892609,0.57310486,-0.72917175,-0.5625305
1631,A,1553937426464147,-0.6788788,4.2156677,-3.2183075,0.5347748,-0.9541321,-1.0204163
1631,A,1553937476818151,4.2617188,11.198563,2.594345,0.09577942,-0.8189697,-0.94480896
1631,A,1553937527172155,-0.6586151,9.094025,-1.6538544,-0.49171448,-0.19798279,-0.2672882
1631,A,1553937577526159,0.4893036,8.653641,-2.0380707,-1.7513123,0.9697418,0.95777893
1631,A,1553937627880163,0.74746704,9.056274,-1.7476807,-3.0628815,1.7941284,2.2065277
1631,A,1553937678234167,0.91845703,10.14061,-1.2923126,-2.2282257,0.4454956,2.744873
1631,A,1553937728588171,2.9947968,10.276794,-0.6070862,-1.6481781,-0.6078644,2.281021
1631,A,1553937778942174,5.614746,12.111542,-0.6510315,-1.7338867,1.6167145,1.6446075
1631,A,1553937829296178,3.1571198,13.13443,0.1466217,-0.7653198,2.6681366,1.1213989
1631,A,1553937879650182,-1.7206268,13.358398,-0.58795166,0.35258484,1.5990448,0.54104614
1631,A,1553937930004186,-5.1545258,14.693176,-1.4636536,1.6660919,-0.4665985,-0.6352997
1631,A,1553937980358190,0.5446472,9.67157,1.8489838,1.4589691,-0.91308594,-2.0751953
1631,A,1553938030712194,5.5499573,8.045502,1.9730988,0.3877411,0.39405823,-1.3784027
1631,A,1553938081066198,-2.0465698,4.6964264,-0.8920288,1.2934113,-1.2079926,-1.2383881
1631,A,1553938131420202,-3.0938263,2.5346375,-1.5931549,1.7422638,-2.3871613,-0.98135376
1631,A,1553938181774206,-2.1915894,1.7879028,-1.2662506,0.8782196,-0.16217041,-0.37313843
1631,A,1553938232128210,0.113967896,9.894806,8.725967,1.2415466,-0.08244324,-0.77911377
1631,A,1553938282482214,2.7256165,9.976334,9.172653,1.1374817,-0.4309845,-0.17832947
1631,A,1553938332836217,0.30870056,8.357758,-3.509842,0.46495056,-0.30052185,-0.027557373
1631,A,1553938383190221,-0.6432495,10.188736,-3.7325592,0.5598602,-0.47372437,-0.108810425
1631,A,1553938433544225,-0.51278687,2.480774,-5.890808,0.64897156,-0.6878052,-0.5968933
1631,A,1553938483898229,-1.070221,5.7184143,-5.841278,0.53790283,-1.0693817,-0.96121216
1631,A,1553938534252233,0.5340576,9.303696,0.14892578,0.09442139,-0.89826965,-0.9075165
1631,A,1553938584606237,0.063323975,9.344894,-1.9601593,-0.2311554,-0.07434082,-0.11781311
1631,A,1553938634960241,0.07974243,8.717773,-2.0388184,-1.5940857,0.7311249,0.8265991
1631,A,1553938685314245,0.2693634,9.102341,-1.8473053,-2.9025269,1.5369263,1.7583008
1631,A,1553938735668249,0.15371704,10.267212,-1.306778,-2.674118,-0.3317566,2.004776
1631,A,1553938786022253,4.69606,10.297882,-1.2109833,-2.0674744,-0.8972473,2.5558014
1631,A,1553938836376257,5.3115997,11.660004,-1.2954254,-1.357727,0.8699951,2.0091095
1631,A,1553938886730260,1.5052032,12.410812,-0.70913696,-0.886734,2.3585815,1.1562805
1631,A,1553938937084264,-2.9862823,12.720169,0.26202393,0.28468323,1.5053253,0.5770874
1631,A,1553938987438268,-6.7936707,15.783203,-0.3980255,1.3027496,-0.5075989,-0.54504395
1631,A,1553939037792272,4.9393005,12.975464,-0.5465851,2.99617,-1.2230835,-2.2950592
1631,A,1553939088146276,5.412613,8.839203,-1.0539703,0.77915955,-0.5919647,-0.20166016
1631,A,1553939138500280,-2.5056152,5.009552,0.649765,1.2319489,-1.9787903,-0.45043945
1631,A,1553939188854284,-3.0499878,2.4671326,-1.1697388,-0.11187744,1.5688629,-1.3469086
1631,A,1553939239208288,-1.2851563,1.8842621,-1.2949219,1.2173462,0.9971771,-1.0777588
1631,A,1553939289562292,0.4583435,9.474213,4.0638885,0.9928436,-0.63272095,-0.6893463
1631,A,1553939339916296,12.801651,14.172333,10.648621,0.74858093,0.2346344,-0.44093323
1631,A,1553939390270299,4.787216,10.413605,-3.1062927,0.8346405,-0.18315125,0.014678955
1631,A,1553939440624303,-5.6806335,10.453491,-4.8147583,0.53674316,-0.74568176,-0.16708374
1631,A,1553939490978307,-3.3213959,4.83992,-9.77475,0.6005249,-0.90448,-0.5323181
1631,A,1553939541332311,-0.16403198,9.193405,-2.0201874,0.5774689,-0.89819336,-0.9389801
1631,A,1553939591686315,1.2688293,9.009811,-3.2612762,0.10002136,-0.8350067,-0.9560852
1631,A,1553939642040319,-1.1133118,9.738098,-2.958725,-0.40818787,0.14559937,-0.13569641
1631,A,1553939692394323,0.15966797,8.821915,-1.5371857,-1.7904968,0.59461975,0.7950287
1631,A,1553939742748327,0.7180176,8.546127,-1.8704224,-3.1783905,1.6729279,2.0845184
1631,A,1553939793102331,1.1261749,9.7356415,-0.61061096,-2.6810303,-0.79248047,2.1696625
1631,A,1553939843456335,3.2792816,11.722,-0.59487915,-2.296173,-0.36317444,3.2306519
1631,A,1553939893810339,4.182068,11.325104,-0.33163452,-1.3745728,1.181839,1.6763916
1631,A,1553939944164342,2.2530365,12.55394,-1.2089081,-1.1083527,2.8001404,1.1968842
1631,A,1553939994518346,-2.8311768,13.526474,2.3720703,0.5960846,1.4299622,0.6070862
1631,A,1553940044872350,-7.451599,18.323624,-3.0926666,1.5817108,-1.0179749,-0.5160675
1631,A,1553940095226354,8.266022,10.712982,-1.467804,3.7138824,-1.1980896,-2.7710724
1631,A,1553940145580358,3.5056305,7.726883,-0.29408264,0.3084259,0.13572693,0.2361908
1631,A,1553940195934362,-3.3899841,3.9111328,0.21669006,2.162201,-2.9757233,-0.97746277
1631,A,1553940246288366,-3.458191,1.0408478,-1.8056335,-1.2138214,3.1817017,-1.6994476
1631,A,1553940296642370,-1.259018,0.49427795,-0.427948,1.7343292,0.41879272,-1.2759094
1631,A,1553940346996374,2.4797974,12.921341,3.1596375,1.0970612,-0.9564209,0.031204224
1631,A,1553940397350378,12.915329,11.751892,12.915756,0.51179504,0.45561218,-0.30148315
1631,A,1553940447704382,-0.7392273,12.10025,-7.6389465,0.6043701,-0.7605133,0.04536438
1631,A,1553940498058385,-5.4613953,9.700745,-1.0270844,0.51712036,-0.97236633,-0.1485138
1631,A,1553940548412389,-0.64616394,0.55545044,-14.845337,0.75361633,-0.9450531,-0.6326294
1631,A,1553940598766393,2.0279083,13.386459,6.0038605,0.59620667,-0.86798096,-1.1056213
1631,A,1553940649120397,0.16912842,8.782196,-2.8274841,-0.057373047,-0.68125916,-0.80288696
1631,A,1553940699474401,-0.7016449,9.689346,-1.8997192,-0.43920898,0.27215576,0.19238281
1631,A,1553940749828405,1.1333771,7.693802,-1.9364929,-2.5168,0.75393677,0.9394226
1631,A,1553940800182409,0.6967926,9.754501,-1.9890137,-3.346634,1.9859924,2.2434082
1631,A,1553940850536413,0.9369354,10.523468,0.20465088,-1.971405,-2.2567291,2.0645752
1631,A,1553940900890417,4.5078125,12.136215,-0.8769989,-2.350418,-0.034591675,3.2761383
1631,A,1553940951244421,4.442505,12.227982,0.54289246,-1.0492859,2.1869812,1.0536346
1631,A,1553941001598424,0.39579773,12.23645,-1.0613098,-0.7387085,3.1930084,0.8778839
1631,A,1553941051952428,-4.623535,13.966797,2.45401,0.86654663,0.84350586,0.30418396
1631,A,1553941102306432,-8.708328,19.296204,-1.2312775,1.7033234,-1.4519043,-0.79776
1631,A,1553941152660436,14.037048,9.565308,1.2666473,4.0476074,-0.9786835,-3.1368256
1631,A,1553941203014440,1.2430573,7.6905975,-1.9580994,-0.57502747,-0.31632996,0.9081726
1631,A,1553941253368444,-5.3277435,3.5670166,0.26176453,1.9626312,-3.372116,-1.5634155
1631,A,1553941303722448,-3.2188263,1.3404999,-2.6105347,0.114486694,2.2590637,-0.48788452
1631,A,1553941354076452,-0.35087585,1.5819092,0.15104675,1.1932526,-0.41297913,-1.0436554
1631,A,1553941404430456,2.2363129,15.782028,3.950241,1.7165222,-1.0853424,0.1974945
1631,A,1553941454784460,15.21257,11.267044,12.507736,0.56274414,-0.21414185,-0.044906616
1631,A,1553941505138464,-3.1479645,14.649094,-10.768738,0.6468811,-0.46940613,-0.08508301
1631,A,1553941555492467,-1.6217041,5.2983093,-0.031845093,0.596756,-0.6569519,-0.44166565
1631,A,1553941605846471,-0.22076416,0.039901733,-11.602707,0.77653503,-0.8604889,-0.91908264
1631,A,1553941656200475,3.5066528,12.096634,0.6612091,0.34649658,-1.0115967,-1.0277405
1631,A,1553941706554479,-0.52575684,8.437836,-3.7679443,-0.2702179,-0.71635437,-0.516098
1631,A,1553941756908483,0.05506897,9.875275,-2.1767426,-0.86976624,0.37413025,0.37426758
1631,A,1553941807262487,0.47312927,7.9974823,-1.8656616,-2.646469,1.271164,1.352005
