Subject-Id,Activity Label,Time stamp,Accel_x,Accel_y,Accel_z,Gyro_x,Gyro_y,Gyro_z
1604,A,18347181709209,1.6212006,6.5334473,-4.0969543,0.19332886,-0.31227112,-2.296997
1604,A,18347232063213,8.512909,12.271927,-0.8478241,0.39015198,-0.13490295,-2.3062592
1604,A,18347282417217,6.2317505,5.612381,-0.29385376,-0.2197113,0.63031006,-0.5452728
1604,A,18347332771221,3.7528381,7.6620636,2.611435,-1.4218292,1.0559235,1.0509033
1604,A,18347383125225,3.4129486,7.2304688,1.795639,-1.0212708,0.5680237,1.088089
1604,A,18347433479229,3.5463257,9.952591,-0.6930237,-0.518692,0.50468445,0.5240631
1604,A,18347483833233,3.9883728,12.87439,0.03366089,-1.0688324,1.0708771,0.3030243
1604,A,18347534187237,1.7159119,11.422852,0.20503235,-0.6776581,0.9555969,0.021453857
1604,A,18347584541241,1.4964447,13.155365,2.6549225,0.06996155,1.3417358,0.5201111
1604,A,18347634895245,1.9262848,13.577698,3.4110107,0.59458923,1.2940369,0.6001129
1604,A,18347685249249,1.8572693,11.42926,0.7800751,1.0534668,0.92251587,0.26179504
1604,A,18347735603252,1.3500214,6.9161377,-0.53674316,1.0884247,0.65419006,0.035690308
1604,A,18347785957256,-0.2614441,5.35466,0.33935547,-0.7681122,0.9388275,0.15232849
1604,A,18347836311260,-0.8597717,4.485718,-0.07695007,0.47450256,0.27111816,-1.5258789E-4
1604,A,18347886665264,1.4621124,4.0942993,0.16442871,-0.122024536,-0.32237244,0.6784973
1604,A,18347937019268,6.1207275,15.858734,2.5914917,-0.06575012,0.21269226,-0.29519653
1604,A,18347987373272,4.1335297,10.100159,4.638977,0.36013794,-0.8329468,-0.24803162
1604,A,18348037727276,2.9972382,13.741455,1.6015167,0.19622803,-0.8383026,-0.33753967
1604,A,18348088081280,3.6697998,15.131668,0.36253357,0.88305664,-0.66075134,-0.8894806
1604,A,18348138435284,-0.39205933,6.1817017,-3.0198822,0.9152832,-0.6772156,-0.53871155
1604,A,18348188789288,2.5807953,11.732788,-1.5031891,0.41358948,-0.701416,-0.4705963
1604,A,18348239143291,1.1405182,10.15773,-1.2456207,0.014785767,-0.4905548,-0.7838745
1604,A,18348289497295,2.9427338,8.433289,-0.8548889,-0.0029144287,-0.4970398,-1.076004
1604,A,18348339851299,2.0186157,7.828537,-0.009109497,0.10897827,-0.3670044,-0.89071655
1604,A,18348390205303,2.0007172,8.258209,-0.6564331,0.47125244,-0.116867065,-0.2144165
1604,A,18348440559307,2.4658508,8.546722,-0.33966064,-0.8639221,0.5456543,0.4696808
1604,A,18348490913311,1.6694031,8.548111,0.14404297,-1.9559937,0.786026,1.3368378
1604,A,18348541267315,5.5661163,8.80043,-1.0127716,-0.26075745,0.9497986,1.0320129
1604,A,18348591621319,2.9293518,15.50499,0.6781311,-1.0260468,0.79216003,0.6668396
1604,A,18348641975323,2.8024902,13.66272,0.50123596,-0.67404175,1.3494873,1.8377533
1604,A,18348692329327,0.34846497,14.103989,0.42042542,-0.27604675,1.1270447,1.5538635
1604,A,18348742683331,1.8703613,11.451996,0.4449463,-0.21220398,1.5772095,1.217392
1604,A,18348793037334,2.1680603,9.350159,0.47247314,0.28631592,1.1143036,0.66015625
1604,A,18348843391338,-0.36003113,8.11055,1.7451477,1.1721344,0.6348114,-0.18536377
1604,A,18348893745342,-1.0914917,6.8253326,-0.5704498,0.114746094,1.817276,-0.62542725
1604,A,18348944099346,-1.7843323,4.7644653,0.36079407,-2.1396942,1.3695374,-0.05870056
1604,A,18348994453350,-1.2134705,5.6952972,3.1399994,0.32713318,0.51763916,0.4001007
1604,A,18349044807354,2.809906,8.474365,3.6702423,1.6035767,-0.33329773,-0.3293152
1604,A,18349095161358,3.6823425,14.061829,5.533432,1.6156006,-1.8605957,0.37557983
1604,A,18349145515362,4.700882,5.2481995,3.795578,-0.15229797,-1.454422,0.87612915
1604,A,18349195869366,1.5716705,-2.9060059,1.9168243,0.7394409,-1.4849854,-0.7792053
1604,A,18349246223370,-3.1456451,3.0689697,-0.8635254,0.6782074,-1.2054443,-1.3350983
1604,A,18349296577374,-7.7011566,15.08757,-6.2900543,0.79200745,-1.4068146,-1.5720825
1604,A,18349346931377,-3.8270264,2.331131,3.7360992,0.99838257,-1.5730438,-0.986969
1604,A,18349397285381,6.6956787,17.497574,-2.8044128,0.87838745,-1.3253632,-1.030716
1604,A,18349447639385,1.960144,10.81427,-0.11833191,0.36592102,-0.9713135,-0.95436096
1604,A,18349497993389,3.395462,10.542404,-0.46318054,0.33000183,-0.8213043,-1.0187378
1604,A,18349548347393,3.7731934,8.14534,-1.4406891,-0.43551636,-0.4150238,-0.44807434
1604,A,18349598701397,3.4394379,7.390442,-0.38542175,-1.2922363,-0.13458252,0.29663086
1604,A,18349649055401,2.1792755,6.961792,0.71377563,-1.584732,0.52700806,1.2910614
1604,A,18349699409405,3.5542755,7.4927216,0.939209,-1.0018768,1.0218506,1.354065
1604,A,18349749763409,3.9462128,8.2938385,0.4953003,-0.64208984,0.7438507,1.2828064
1604,A,18349800117413,3.1910858,11.061035,0.031799316,-0.49014282,0.486557,1.302063
1604,A,18349850471416,2.1880188,15.467545,0.95903015,-0.27262878,1.0769958,0.7379761
1604,A,18349900825420,1.155426,15.372223,2.2202759,0.035736084,0.91378784,0.49378967
1604,A,18349951179424,0.10398865,13.479095,1.2030182,0.6876831,0.6736603,0.0393219
1604,A,18350001533428,-1.2161407,9.758804,-0.16551208,1.4030151,0.60591125,-0.6226959
1604,A,18350051887432,-0.9643097,4.748596,0.23712158,0.80921936,0.27882385,-0.276062
1604,A,18350102241436,-1.6085663,2.2644806,0.08151245,-0.035583496,0.10391235,0.056655884
1604,A,18350152595440,-0.75131226,2.6611023,0.3132019,0.08709717,-0.66018677,0.34553528
1604,A,18350202949444,3.2046814,8.650772,3.0638885,0.15615845,-0.8435211,0.30560303
1604,A,18350253303448,4.153885,13.581085,5.886261,0.24824524,-1.0394135,-0.28041077
1604,A,18350303657452,1.2245026,12.710114,4.3971405,0.06991577,-1.224289,-0.5578003
1604,A,18350354011456,3.273941,13.774612,0.2514801,0.23364258,-0.980423,-0.68444824
1604,A,18350404365459,0.88079834,8.981384,-2.2608643,0.82917786,-0.87971497,-0.5279236
1604,A,18350454719463,-0.81559753,10.8229065,-0.73669434,0.35403442,-0.8642731,-0.47773743
1604,A,18350505073467,1.1426392,11.691696,-1.0498505,0.105026245,-0.68333435,-0.727005
1604,A,18350555427471,2.7114563,7.933075,-1.9394989,0.14884949,-0.11022949,-0.97831726
1604,A,18350605781475,1.9519501,7.819275,-0.16471863,0.07858276,0.08564758,-0.82211304
1604,A,18350656135479,2.2241364,7.6808777,-0.24526978,-0.6020813,0.48872375,-0.16041565
1604,A,18350706489483,3.5457916,8.999161,-0.24853516,-1.827591,0.3227234,1.1828461
1604,A,18350756843487,3.2040863,9.505295,0.29937744,-1.6345978,0.4814453,1.3382263
1604,A,18350807197491,2.981079,9.533981,-1.0696716,-0.99658203,0.5912018,0.7374878
1604,A,18350857551495,3.310135,12.282486,0.9543915,-0.59591675,0.27330017,1.2878265
1604,A,18350907905499,0.2649231,14.326981,2.8696594,-0.067230225,0.4444275,1.6396637
1604,A,18350958259502,0.5245056,14.351486,4.483139,0.34718323,0.61016846,0.8604431
1604,A,18351008613506,1.3446198,12.133148,1.84758,1.0081024,1.3622894,0.2604828
1604,A,18351058967510,0.123794556,7.779648,-1.3640137,1.4851227,0.59532166,-0.055725098
1604,A,18351109321514,0.85206604,6.4388275,-0.27192688,0.33099365,0.22209167,0.021347046
1604,A,18351159675518,0.37954712,4.5339355,1.4617004,0.12168884,-0.24716187,0.050109863
1604,A,18351210029522,0.2513733,4.3444824,0.84147644,-0.48854065,-0.48506165,0.009094238
1604,A,18351260383526,3.5586853,9.685501,3.1735687,0.2803955,-0.9323578,-0.8269806
1604,A,18351310737530,1.8428802,12.736664,4.7718353,0.20529175,-1.759903,-0.48336792
1604,A,18351361091534,2.161087,14.67514,-0.65919495,-0.4136963,-1.3486328,-1.1132813
1604,A,18351411445538,-1.0569916,2.9107666,-1.6611786,0.7917633,-1.2330933,-1.1899567
1604,A,18351461799541,1.4278564,14.024277,-5.273575,0.88394165,-1.3860168,-0.050308228
1604,A,18351512153545,1.4219513,8.652084,-1.7067719,0.077819824,-0.8571472,-0.5787964
1604,A,18351562507549,2.82872,9.310806,-2.2659607,0.065719604,-0.5531616,-0.94810486
1604,A,18351612861553,4.4033356,7.6948853,-1.5605316,0.0849762,0.040161133,-1.051178
1604,A,18351663215557,1.3990173,7.24794,0.072250366,0.32435608,-0.3886261,-0.29884338
1604,A,18351713569561,3.143753,7.6262054,-0.019195557,-1.7435608,0.28710938,0.62210083
1604,A,18351763923565,3.4934692,8.53746,1.0874023,-1.5285034,0.1802826,2.1163177
1604,A,18351814277569,3.1203308,7.646042,-1.6171417,-0.99305725,1.7914886,0.5316162
1604,A,18351864631573,2.5210266,11.710236,1.7421722,-0.39045715,0.27371216,1.3829651
1604,A,18351914985577,1.5985413,11.574524,0.2810669,-0.06968689,1.1309662,0.830307
1604,A,18351965339581,-0.93455505,15.54306,2.5002747,-0.12599182,1.0132599,0.6495056
1604,A,18352015693584,4.443802,13.062393,1.3269196,0.30511475,0.6558533,0.60479736
1604,A,18352066047588,-1.8740692,12.193359,1.4660187,0.8047333,0.73161316,0.26098633
1604,A,18352116401592,0.9199066,7.395813,-2.01445,1.1004181,0.80041504,-0.4901886
1604,A,18352166755596,0.120788574,5.8152313,-0.31874084,0.48945618,0.21948242,-0.51042175
1604,A,18352217109600,-1.0653381,3.4721527,0.17237854,-0.34527588,-0.074905396,0.09260559
1604,A,18352267463604,-0.37446594,5.2049255,0.21284485,0.5582886,-0.6989136,-0.0927124
1604,A,18352317817608,1.3596802,8.882736,1.9853363,-0.0016784668,-0.9198761,0.66908264
1604,A,18352368171612,5.8502502,16.75084,4.689789,0.22099304,-0.6347809,-0.31982422
1604,A,18352418525616,2.2836304,8.893417,3.8845673,-0.13235474,-1.8410187,-0.15698242
1604,A,18352468879620,2.944641,11.886276,1.2204285,-0.3627777,-1.27388,-0.66137695
1604,A,18352519233624,3.2508087,9.950714,-1.5486603,0.4419403,-1.1075134,-1.199173
1604,A,18352569587627,-2.7783203,6.3820343,-2.578415,0.71588135,-0.8015442,-0.7598572
1604,A,18352619941631,2.0318909,11.771683,-0.82762146,0.302063,-0.72909546,-0.38342285
1604,A,18352670295635,2.2526855,9.759216,-1.8200226,0.12619019,-0.23886108,-0.82440186
1604,A,18352720649639,3.0553894,8.329407,-0.64097595,0.3131714,0.08488464,-0.8787689
1604,A,18352770994470,2.9088898,7.8822937,0.1714325,0.2828369,0.11488342,-0.46629333
1604,A,18352821348474,2.579239,7.2812805,0.005493164,-0.48033142,0.21479797,-0.06851196
1604,A,18352871702478,2.8314514,7.553055,-0.2932129,-1.575592,0.36434937,1.0280609
1604,A,18352922056482,3.368393,9.36232,-0.47280884,-1.394989,0.56425476,1.5901489
1604,A,18352972410486,3.070572,12.117996,0.50276184,-0.8257904,0.6161041,0.87294006
1604,A,18353022764490,2.177414,13.571243,1.154129,-1.040451,0.36053467,1.1465759
1604,A,18353073118493,0.10153198,13.345596,1.1547394,-0.69921875,0.65719604,1.3081512
1604,A,18353123472497,-0.2358551,14.240997,1.4500732,-0.09902954,0.76123047,0.6043701
1604,A,18353173826501,3.203003,12.385422,1.2900085,0.67904663,0.96087646,-0.057785034
1604,A,18353224180505,-0.27238464,9.157303,0.88526917,1.5365448,0.38194275,-0.49545288
1604,A,18353274534509,-1.0243988,6.320938,-0.16436768,0.9710541,-0.028900146,-0.18032837
1604,A,18353324888513,0.21414185,4.5342255,-0.07081604,-0.20681763,0.03199768,0.18812561
1604,A,18353375242517,-0.16043091,3.346222,0.55496216,-0.23147583,-0.70422363,0.40208435
1604,A,18353425596521,1.5895691,6.374649,1.2080536,0.44580078,-0.6207123,-0.18182373
1604,A,18353475950525,3.105713,12.640839,5.029541,0.546402,-1.1323853,-0.4743805
1604,A,18353526304529,2.2054749,13.881989,3.3939667,-0.19055176,-1.5200348,-0.27238464
1604,A,18353576658533,3.65802,12.504211,0.08409119,-0.19172668,-1.2136078,-0.8720093
1604,A,18353627012536,1.9113922,8.997574,-2.1535034,0.7857208,-1.041336,-1.2176208
1604,A,18353677366540,-0.2735138,8.362534,0.23971558,0.9656677,-0.9360962,-0.5867462
1604,A,18353727720544,0.786026,9.9431305,-0.67666626,0.20664978,-0.7125244,-0.4789734
1604,A,18353778074548,2.9150085,8.56189,-2.122818,0.10089111,-0.3269348,-0.8452759
1604,A,18353828428552,3.1522827,8.476898,-0.710083,0.2434845,0.15750122,-0.8250885
1604,A,18353878782556,1.8387604,8.455811,0.27244568,0.21377563,0.32829285,-0.20375061
1604,A,18353929136560,3.0470428,8.062698,0.0181427,-0.9159241,0.96585083,0.60865784
1604,A,18353979490564,3.6267395,8.963516,-0.02003479,-1.7510376,0.8403168,1.4436951
1604,A,18354029844568,3.3384705,10.607834,-0.7566986,-1.5610352,1.166565,1.1102142
1604,A,18354080198572,2.1976318,14.541397,1.3178711,-0.91552734,0.23240662,1.1570892
1604,A,18354130552576,3.0042572,14.51329,0.02229309,-0.5850525,0.39945984,1.4410858
1604,A,18354180906579,-0.22203064,12.057999,1.7272186,-0.18948364,0.6897583,1.1665344
1604,A,18354231260583,-0.3755188,11.886871,0.44052124,0.39793396,0.84672546,0.20045471
1604,A,18354281614587,1.1838379,8.904404,-1.0556641,1.1919556,0.51838684,-0.34303284
1604,A,18354331968591,-1.2427521,7.512451,0.46948242,1.2887268,-0.041748047,-0.5807495
1604,A,18354382322595,0.8688202,5.8217773,-0.49702454,-0.1131134,0.03375244,-0.1395874
1604,A,18354432676599,-0.17112732,3.820282,-0.5474701,0.1986084,-0.37335205,0.18000793
1604,A,18354483030603,0.6737213,5.7947693,1.5990295,0.251297,-0.6615753,-0.27449036
1604,A,18354533384607,4.9542084,13.349457,4.712448,0.7541504,-1.4168854,-1.1517487
1604,A,18354583738611,1.059433,11.955185,4.1624603,0.38217163,-1.2042999,-0.6648712
1604,A,18354634092615,3.187561,13.841034,0.18836975,-0.19030762,-1.2292633,-0.41114807
1604,A,18354684446618,-3.0135803,0.024612427,-0.27279663,0.3904724,-0.5668335,-1.6631927
1604,A,18354734800622,7.514267,14.885849,-6.075302,0.9495392,-0.9957428,-0.27752686
1604,A,18354785154626,-0.5354004,8.028488,-2.95755,0.012878418,-0.9059143,-0.47898865
1604,A,18354835508630,0.39274597,8.462051,-1.0667725,0.32499695,-0.46253967,-0.82595825
1604,A,18354885862634,1.4109192,15.111557,0.33166504,0.08312988,0.028701782,-0.6969757
1604,A,18354936216638,1.6155548,7.2818146,-0.8450165,-0.19877625,-0.38150024,-0.14932251
1604,A,18354986570642,2.1612244,7.7767334,-1.4296265,-1.6970215,0.56430054,0.3652649
1604,A,18355036924646,3.0289154,9.160812,-1.1501312,-1.9597778,0.73716736,2.0062714
1604,A,18355087278650,2.916687,10.259277,-0.38967896,-0.9615021,0.032562256,1.9969635
1604,A,18355137632654,3.2827606,11.471588,0.2839203,-0.015975952,-0.26493835,1.2845459
1604,A,18355187986658,3.606598,12.657181,1.5187836,-0.2932434,0.8115082,1.2933044
1604,A,18355238340661,-0.502655,13.111328,0.09434509,-0.1781311,0.9139557,0.76815796
1604,A,18355288694665,1.8864594,15.622467,2.087555,0.29956055,0.90615845,0.19934082
1604,A,18355339048669,0.46166992,11.311035,1.6941833,1.0255737,0.7630005,-0.4804535
1604,A,18355389402673,-1.4894562,8.715622,-2.4284058,1.330658,0.10903931,-0.48413086
1604,A,18355439756677,-2.3264313,5.381729,1.3649292,0.56489563,0.32463074,0.07884216
1604,A,18355490110681,-0.42492676,3.545166,0.08729553,-0.2773285,0.20948792,0.041122437
1604,A,18355540464685,0.69454956,5.1965637,-1.0267639,0.17687988,0.14471436,-0.28240967
1604,A,18355590818689,3.7967224,11.163666,1.4503326,0.29403687,-1.6161041,0.21351624
1604,A,18355641172693,6.4888763,17.390549,2.4753113,0.51916504,-0.5175934,-0.84036255
1604,A,18355691526697,0.23962402,9.195969,2.0487976,-0.13061523,-1.7679596,-0.637146
1604,A,18355741880701,1.5380249,6.7367096,-1.0594177,-0.26719666,-0.8314209,-0.9232483
1604,A,18355792234704,1.0135651,7.3325043,-1.4442902,0.23999023,-0.7830963,-1.2272491
1604,A,18355842588708,1.5147705,9.836533,-3.570816,1.0778809,-0.7126465,-0.64263916
1604,A,18355892942712,0.08013916,8.168304,0.36709595,0.8534241,-0.6691742,-0.2692871
1604,A,18355943296716,2.2193604,9.916183,-2.6771088,0.12757874,-0.36305237,-0.70614624
1604,A,18355993650720,3.702774,8.923935,-1.7161407,0.14152527,0.1224823,-0.86206055
1604,A,18356044004724,1.8233337,7.8132935,-0.21556091,-0.07298279,0.21781921,-0.35676575
1604,A,18356094358728,1.7711792,7.859741,-0.0773468,-1.3563843,0.24197388,0.69592285
1604,A,18356144712732,2.984848,8.684036,-0.5518646,-2.5020294,0.50320435,1.7335815
1604,A,18356195066736,2.4833984,9.390396,-1.062439,-1.5551758,0.027069092,1.6710052
1604,A,18356245420740,2.011673,11.9787445,-0.11218262,-0.44960022,-0.66934204,1.4961853
1604,A,18356295774743,1.4694214,14.386597,2.8162842,-0.2387085,0.089035034,1.4018707
1604,A,18356346128747,0.0087890625,14.377808,1.6241913,-0.059631348,1.1057434,0.7012329
1604,A,18356396482751,0.4151001,14.005844,-0.30552673,0.48431396,0.8851776,0.06492615
1604,A,18356446836755,1.7556458,10.36998,1.3549652,1.0910797,0.7531891,-0.49508667
1604,A,18356497190759,-0.7324066,6.8585205,1.1977997,1.1022797,0.5964508,-0.4456482
1604,A,18356547544763,-1.4066162,4.392227,-1.1851501,0.33232117,0.011276245,0.06304932
1604,A,18356597898767,-1.6635284,3.14859,-0.9128113,0.30981445,-0.14886475,0.572525
1604,A,18356648252771,-0.41285706,5.6112213,0.01612854,0.14953613,-1.236969,0.40914917
1604,A,18356698606775,5.7493286,13.677475,2.7678375,0.29614258,-0.7406311,-0.766098
1604,A,18356748960779,3.2715454,16.020538,4.517334,0.23406982,-0.93844604,-1.0501099
1604,A,18356799314783,2.9598694,15.559509,0.32426453,-0.036514282,-1.0656586,-0.585022
1604,A,18356849668786,-1.3644409,8.145828,0.7331848,0.019866943,-0.80155945,-0.781662
1604,A,18356900022790,1.4985809,10.71814,-4.5330963,0.9707184,-0.7696533,-0.82640076
1604,A,18356950376794,2.9343414,11.058716,-4.339035,0.7977905,-0.74031067,-0.414505
1604,A,18357000730798,0.965683,9.309799,-2.1829224,0.37660217,-0.3892517,-0.6568756
1604,A,18357051084802,1.9635162,9.064819,-1.4241943,0.21871948,-0.0115356445,-1.0697021
1604,A,18357101438806,2.578308,7.7595215,-0.513031,0.1929779,0.47846985,-0.72161865
1604,A,18357151792810,1.9155273,7.9426727,-0.0026397705,-0.49240112,0.7173004,0.065826416
1604,A,18357202146814,2.3495483,8.887695,-0.5649719,-1.8018799,0.52001953,1.2096863
1604,A,18357252500818,2.771225,9.42424,-1.0995941,-1.6074677,1.2949371,1.2041321
1604,A,18357302854822,3.6323395,11.14772,-2.5035095,-1.2712402,0.2554474,1.4036713
1604,A,18357353208826,3.4844208,15.864441,0.5367737,-0.42745972,0.5719452,1.0959167
1604,A,18357403562829,-0.91539,12.729279,2.463623,0.105407715,0.65948486,1.6048737
1604,A,18357453916833,0.05305481,12.778564,-0.18629456,0.39762878,0.84739685,1.1439056
1604,A,18357504270837,0.047302246,13.474075,-1.02565,0.83631897,0.808609,0.31481934
1604,A,18357554624841,1.7602997,10.878342,0.44441223,1.1265411,0.8522949,-0.42056274
1604,A,18357604978845,0.4092102,8.995132,-0.20463562,1.3864746,0.05215454,-0.65904236
1604,A,18357655332849,-0.07040405,5.041794,-0.4790039,-0.052871704,0.021484375,0.017944336
1604,A,18357705686853,-1.5651855,3.3443909,-0.83052063,0.306839,0.040649414,0.18740845
1604,A,18357756040857,0.5763092,5.9022827,-0.50572205,0.005508423,-1.7310181,0.28146362
1604,A,18357806394861,4.847275,14.251297,4.287918,0.53234863,-0.16133118,-0.42070007
1604,A,18357856748865,2.8522491,14.48111,4.076645,-0.01461792,-1.8957825,-0.5653229
1604,A,18357907102868,0.33638,8.811325,-3.1549988,-0.50961304,-0.065322876,-0.74580383
1604,A,18357957456872,4.13443,7.0684967,-0.93281555,-0.3514557,-0.107543945,-1.2207031
1604,A,18358007810876,0.13442993,5.6348267,-0.9841614,0.92552185,-0.26707458,-0.41888428
1604,A,18358058164880,1.276123,11.774048,0.49879456,0.483963,-0.5612488,-0.38441467
1604,A,18358108518884,1.2105865,10.103592,-3.7133484,0.40795898,-0.5337219,-0.7834778
1604,A,18358158872888,2.138916,9.0998535,-0.38407898,0.39164734,-0.35069275,-1.0367432
1604,A,18358209226892,0.9788208,8.140366,-0.06259155,0.046524048,-0.061553955,-0.59025574
1604,A,18358259580896,1.4407501,8.077148,-0.94718933,-0.9332886,0.2677307,0.1437378
1604,A,18358309934900,2.0650482,8.956741,-1.052002,-2.3401794,0.2654419,1.4200745
1604,A,18358360288904,2.5731964,9.850418,-0.49230957,-1.5190125,-0.11097717,2.0256195
1604,A,18358410642908,3.8588715,10.586624,-0.87739563,-0.5135498,-0.18811035,0.9168396
1604,A,18358460996911,2.7174377,14.020065,1.612915,-0.10733032,0.8066406,1.7562408
1604,A,18358511350915,1.3426361,12.37468,-0.5432129,-0.26960754,0.7965851,1.1849823
1604,A,18358561704919,-2.0720825,16.342941,1.5658112,0.4174347,0.5719757,0.71640015
1604,A,18358612058923,0.64068604,10.69133,0.3932953,0.9772339,0.8641815,-0.08016968
1604,A,18358662412927,-0.04699707,8.735565,-2.1024323,1.26857,0.44511414,-0.7234497
1604,A,18358712766931,-0.9523468,6.1165466,0.21307373,0.79151917,0.039749146,-0.64823914
1604,A,18358763120935,0.36817932,4.468399,0.0024261475,-0.27581787,0.44448853,-0.040390015
1604,A,18358813474939,0.21098328,3.7325592,-0.465271,0.14501953,-0.095321655,-0.1751709
1604,A,18358863828943,2.6645355,7.8020935,1.5025024,-0.43440247,-1.6669769,0.07035828
1604,A,18358914182947,5.137207,13.893311,5.194229,0.04814148,-0.47480774,-1.271637
1604,A,18358964536951,2.2416077,9.771347,1.7857971,0.3105011,-1.2940521,-1.0390015
1604,A,18359014890954,0.033859253,7.9626007,-1.0640259,0.124053955,-0.6274872,-0.5905762
1604,A,18359065244958,-3.234314,5.4864807,2.4690094,0.855011,-0.33399963,-0.7098541
1604,A,18359115598962,0.93504333,10.297241,-3.3329163,0.76467896,-0.85668945,-0.42530823
1604,A,18359165952966,1.7767029,8.536682,-1.929306,0.12878418,-0.75323486,-0.66230774
1604,A,18359216306970,1.4318085,9.353714,-2.1525574,0.081466675,-0.27490234,-0.8239136
1604,A,18359266660974,1.7880707,8.483643,-1.2812653,0.16305542,-0.053085327,-0.7418976
1604,A,18359317014978,1.527771,8.08963,-0.76078796,-0.43466187,0.22813416,-0.19607544
1604,A,18359367368982,2.4418335,8.789154,-0.68969727,-1.8631592,0.66030884,0.9915924
1604,A,18359417722986,2.706009,9.382553,-0.8294983,-2.0304565,0.63508606,1.8973541
1604,A,18359468076990,3.3245087,9.913605,-0.9948273,-0.98939514,0.4577484,1.2949066
1604,A,18359518430993,4.3507843,12.494659,1.0665588,-0.44084167,0.40968323,1.2135468
1604,A,18359568784997,3.3190002,13.4309845,2.6234283,-0.22071838,0.5827942,1.4489594
1604,A,18359619139001,1.4058228,15.226456,3.0383759,0.14572144,0.49523926,0.9555359
1604,A,18359669493005,1.8676758,14.064926,2.9969025,0.80326843,0.721344,0.31999207
1604,A,18359719847009,0.5781708,9.806046,0.9804535,1.1908569,0.6865387,-0.42274475
1604,A,18359770201013,-1.1428833,7.202484,-0.25990295,0.7267456,0.50401306,-0.5058136
1604,A,18359820555017,-1.2312775,5.104126,0.23457336,0.17912292,0.35379028,-0.20954895
1604,A,18359870909021,-0.74116516,4.279907,0.020751953,0.2505188,-0.4223175,0.08039856
1604,A,18359921263025,1.8697357,6.6156464,0.15003967,0.51504517,-1.2354431,0.044937134
1604,A,18359971617029,5.613495,13.631882,3.0528717,0.3648529,-0.9985504,-1.0513153
1604,A,18360021971033,3.698288,15.687225,0.85517883,0.46110535,-0.55397034,-1.2898865
1604,A,18360072325036,3.248932,18.023926,1.6811523,-0.14189148,-0.8440552,-0.8766022
1604,A,18360122679040,-1.3036804,6.5078735,-0.19537354,0.335495,-0.72462463,-0.6164856
1604,A,18360173033044,-0.015304565,12.106857,-1.7237396,0.91223145,-0.7218323,-0.11123657
1604,A,18360223387048,0.498703,7.697006,-2.4218597,0.3442688,-0.5394287,-0.39286804
1604,A,18360273741052,2.020691,8.148453,-2.5756378,0.27731323,-0.38502502,-0.6947479
1604,A,18360324095056,3.2343597,9.649155,-1.4311371,0.33677673,-0.28489685,-0.8198395
1604,A,18360374449060,1.2918854,8.809647,-0.0056915283,0.25935364,0.20161438,-0.73664856
1604,A,18360424803064,1.6794891,8.802689,-0.9243469,-0.70970154,0.22392273,0.20991516
1604,A,18360475157068,1.8429871,9.019379,-1.3065643,-2.6482544,0.3960266,1.206955
1604,A,18360525511072,1.6530914,9.75087,-1.1322784,-2.289505,0.5494385,1.791565
1604,A,18360575865076,4.4358063,10.511444,-2.7383118,-1.1320648,0.68515015,0.90527344
1604,A,18360626219079,1.5331116,15.221268,1.5578308,0.6869049,-0.31661987,1.8952332
1604,A,18360676573083,1.6282196,12.214859,2.831543,0.14881897,1.724289,1.5361023
1604,A,18360726927087,-0.18659973,15.744614,0.1736145,0.49058533,1.3644714,1.0449524
1604,A,18360777281091,1.6576691,11.13382,-1.0749207,0.9007721,1.2341461,0.3902893
1604,A,18360827635095,1.2061005,8.714539,0.46513367,1.1154175,0.9728699,-0.20335388
1604,A,18360877989099,-1.3742981,7.245453,-2.0382538,1.177414,0.70176697,-0.5253906
1604,A,18360928343103,-2.0004883,5.780792,-1.5639038,-0.21809387,0.04711914,-0.012466431
1604,A,18360978697107,-2.2099762,3.9853363,0.012298584,0.18351746,0.61938477,-0.20144653
1604,A,18361029051111,0.08175659,6.4010468,-0.7974396,0.122024536,-1.3709564,0.48498535
1604,A,18361079405115,6.233902,13.823608,3.1871796,0.25872803,-0.45812988,-0.816452
1604,A,18361129759118,2.1079712,12.3168335,4.8411713,0.36587524,-0.7723694,-0.7279663
1604,A,18361180113122,1.2575684,11.357513,-0.5957031,-0.20915222,-1.2720032,-0.8050995
1604,A,18361230467126,-1.9064178,2.7493744,-1.3809204,0.31755066,-1.1525726,-1.0487366
1604,A,18361280821130,1.4658356,15.012543,-4.8803864,1.030777,-1.2199249,-0.27355957
1604,A,18361331175134,-1.0809784,7.3404694,-1.922409,0.39474487,-0.8825226,-0.44592285
1604,A,18361381529138,0.8434143,10.1467285,-1.8451385,0.06544495,-0.67207336,-0.5525665
1604,A,18361431883142,2.428543,8.121506,-1.678833,0.19651794,0.104156494,-0.9337616
1604,A,18361482237146,1.5865326,7.9164734,-0.9768982,0.008850098,0.12686157,-0.6475525
1604,A,18361532591150,3.2749176,8.098206,-0.80818176,-0.5218048,0.104003906,-0.029556274
1604,A,18361582945154,2.7610626,9.546646,-0.5583496,-2.249771,0.3631134,0.9955902
1604,A,18361633299158,2.3866425,9.439087,0.019485474,-1.7853241,0.54177856,1.8329926
1604,A,18361683653161,2.9197083,11.409851,-0.9335785,-0.9279938,0.46661377,1.1677551
1604,A,18361734007165,0.32843018,15.393143,2.0893097,-0.64572144,0.3480072,1.3754883
1604,A,18361784361169,1.1743927,12.390564,-0.67211914,-0.4651184,0.8283539,1.3415833
1604,A,18361834715173,-1.2913971,13.834503,-2.67247,0.29360962,0.91067505,0.81025696
1604,A,18361885069177,1.429184,11.047043,-1.0625153,0.9146576,0.87016296,0.21617126
1604,A,18361935423181,0.57373047,9.101471,0.71136475,1.4866638,0.42636108,-0.24291992
1604,A,18361985777185,-1.622879,6.9629517,0.1670227,1.0613708,-0.042495728,-0.3070221
1604,A,18362036131189,-0.34603882,4.8901367,-0.7482605,-0.106277466,0.23782349,-0.17550659
1604,A,18362086485193,-0.96347046,3.9416504,-0.24725342,0.15045166,-0.44728088,0.04814148
1604,A,18362136839197,2.070465,7.789612,1.3661499,0.12640381,-1.4005127,0.45448303
1604,A,18362187193201,5.2365265,12.6783905,5.5229034,0.37071228,-1.1443787,-0.7853546
1604,A,18362237547204,3.0906067,11.952011,4.7931366,-0.0053100586,-1.6940918,-0.996109
1604,A,18362287901208,3.6251678,10.495499,-1.7186279,-0.40489197,-1.2173157,-0.80526733
1604,A,18362338255212,3.6644287,8.770294,-3.4495392,0.20941162,-0.9692993,-1.061264
1604,A,18362388609216,-2.4100952,8.250229,-2.64328,0.843277,-1.0123138,-0.47076416
1604,A,18362438963220,0.056900024,11.163406,-1.6434174,0.4225464,-0.8725891,-0.23860168
1604,A,18362489317224,1.2486725,9.060608,-2.7368622,0.014083862,-0.3960266,-0.6576996
1604,A,18362539671228,2.9597015,8.1454315,-1.4627228,0.0052337646,0.010818481,-0.9040985
1604,A,18362590025232,2.794754,7.9763184,-0.27767944,-0.08818054,-0.18087769,-0.62480164
1604,A,18362640379236,2.272171,9.06575,-0.23275757,-0.5601654,0.35359192,-0.19758606
1604,A,18362690733240,2.0638733,9.364075,-0.28053284,-1.4387817,0.20611572,1.0357056
1604,A,18362741087243,2.3994293,9.3680725,-0.2873993,-1.4170532,0.40904236,1.4132233
1604,A,18362791450327,2.0210266,10.588104,-0.53685,-1.1233978,0.2980194,0.94618225
1604,A,18362841804331,3.4304962,12.957275,0.113967896,-0.76364136,-0.09425354,1.0854187
1604,A,18362892158335,-0.28475952,13.31868,1.8695068,-0.11984253,0.5928192,1.3591614
1604,A,18362942512339,-0.7227478,12.685089,0.5358124,0.3509674,1.0754547,1.1452789
1604,A,18362992866343,0.15507507,11.114609,-0.40257263,0.8944092,1.1524353,0.58825684
1604,A,18363043220347,-0.15278625,8.383255,-0.6899414,1.488739,0.679245,0.10523987
1604,A,18363093574351,0.19302368,6.1083984,-0.7276764,1.043396,0.61857605,-0.40742493
1604,A,18363143928355,0.034362793,4.6059723,-0.46176147,-0.12600708,0.5252838,-0.23799133
1604,A,18363194282359,0.55970764,4.697113,-0.10621643,0.37913513,0.5638733,-0.40289307
1604,A,18363244636363,1.0755615,7.2264404,1.2169037,-0.1277008,-1.5311432,0.3538971
1604,A,18363294990366,5.58049,14.463852,3.1916351,-0.109573364,-0.42367554,-0.29599
1604,A,18363345344370,2.5811005,11.491318,3.4060364,0.21495056,-0.8889923,-1.2905426
1604,A,18363395698374,1.8603668,9.331985,-0.71414185,-0.076309204,-0.5592041,-0.7075043
1604,A,18363446052378,3.9138489,10.563202,-1.332367,0.15115356,-0.49765015,-1.0975037
1604,A,18363496406382,0.28448486,5.526001,-4.4437103,1.1033936,-0.7801666,-0.58750916
1604,A,18363546760386,1.2776337,15.009491,-0.54989624,0.7903595,-0.47613525,-0.37501526
1604,A,18363597114390,-0.058776855,11.103485,-1.0858917,0.2923584,-0.40423584,-0.60606384
1604,A,18363647468394,2.5000458,8.6996155,-1.5359497,0.12672424,0.13705444,-0.8399811
1604,A,18363697822398,1.970932,7.2986298,-0.8790283,0.0054779053,0.2545929,-0.6298523
1604,A,18363748176402,1.6830139,8.252365,-0.5830078,-0.8960571,0.6506195,0.14953613
1604,A,18363798530406,2.0612183,9.135696,-0.45887756,-2.3118134,0.5169525,1.4000702
1604,A,18363848884409,2.232544,9.792648,-0.3309784,-2.0900269,0.21780396,1.7182617
1604,A,18363899238413,2.6701355,10.489059,-1.3628387,-0.96824646,0.13613892,0.9356079
1604,A,18363949592417,2.6338043,14.015305,1.7127228,0.27433777,0.025970459,1.4876709
1604,A,18363999946421,-1.3121796,12.269089,2.0147552,-0.1166687,1.1230927,1.3500061
1604,A,18364050300425,-0.33580017,17.063263,1.1521454,0.3070221,1.0108795,0.84552
1604,A,18364100654429,1.3123627,11.043488,1.1309509,0.7784424,0.8872528,0.45799255
1604,A,18364151008433,1.7688599,8.981476,-0.9557495,1.1944427,0.57341003,-0.07569885
1604,A,18364201362437,-2.3290558,6.4483795,-0.28425598,1.0842438,0.19865417,-0.4675598
1604,A,18364251716441,-0.26672363,5.493973,-0.72468567,0.16630554,-0.263443,0.044158936
1604,A,18364302070445,-1.5674744,4.529892,0.78253174,-0.5286255,0.43022156,0.46868896
1604,A,18364352424448,0.21917725,6.093872,0.95285034,0.041534424,-0.83673096,-0.50135803
1604,A,18364402778452,4.2234497,12.531525,4.20961,0.47914124,-1.122055,-0.9859009
1604,A,18364453132456,5.0965424,15.428207,5.008362,-0.0134887695,-1.0514832,-0.5919037
1604,A,18364503486460,2.1397247,8.642532,-1.3651733,-0.25704956,-0.9112396,-1.201477
1604,A,18364553840464,-4.1012573,-0.44944763,-1.2685547,0.2862091,-0.75645447,-0.79037476
1604,A,18364604194468,8.533035,18.327026,-6.583969,0.8870697,-0.54618835,-0.52186584
1604,A,18364654548472,-0.39285278,9.62645,-1.5379639,0.5457916,-0.6786194,-0.31427002
1604,A,18364704902476,1.0173492,10.050049,-1.6713257,0.21022034,-0.57473755,-0.66690063
1604,A,18364755256480,2.1737366,8.7152405,-2.137558,0.23727417,-0.2966156,-0.94633484
1604,A,18364805610484,1.0179901,7.4638977,-0.6878967,0.2484436,-0.02848816,-0.67907715
1604,A,18364855964488,1.0544434,8.671616,0.027313232,-0.11697388,-0.014083862,-0.06965637
1604,A,18364906318491,2.2632446,8.8632965,-0.61813354,-1.2589417,0.4694214,0.6101074
1604,A,18364956672495,1.9660034,8.935425,-0.82006836,-1.697815,0.12080383,1.1904297
1604,A,18365007026499,2.1061554,9.913666,-1.1496582,-1.0830383,0.26239014,1.0555267
1604,A,18365057380503,1.3257904,13.851883,-2.1146698,-1.088623,-0.6075897,1.0995026
1604,A,18365107734507,-0.21315002,14.862457,-1.0416107,-0.92437744,-0.18377686,1.3001556
1604,A,18365158088511,-1.6927643,11.231781,1.3305817,-0.21723938,0.27593994,1.1722107
1604,A,18365208442515,-0.22280884,11.610718,-1.5467072,0.23724365,0.6091461,0.31930542
1604,A,18365258796519,-0.9367676,10.92392,-0.34091187,0.8349457,1.0729218,-0.2687683
1604,A,18365309150523,-0.6509247,6.7452393,-0.3584137,0.9606476,0.43128967,-0.3093109
1604,A,18365359504527,0.97358704,5.504242,0.3357849,0.29029846,0.29736328,-0.12661743
1604,A,18365409858531,0.53900146,4.745926,0.40638733,-0.0072021484,-0.017074585,0.2096405
1604,A,18365460212534,0.92781067,5.506531,0.32511902,0.38674927,-1.0082703,0.17579651
1604,A,18365510566538,3.2741394,11.0668335,2.0753784,0.6889801,-1.3126221,-0.55137634
1604,A,18365560920542,2.4790497,16.189667,2.6141815,0.4185028,-1.1816101,-0.6679077
1604,A,18365611274546,0.43164063,16.27623,0.6633606,-0.068359375,-0.6483917,-0.6463318
1604,A,18365661628550,-1.1224365,8.471603,-0.33033752,-0.09413147,-0.06085205,-0.9433136
1604,A,18365711982554,1.4667511,8.837402,-3.6548767,0.35940552,-0.04408264,-0.6975708
1604,A,18365762336558,3.6963959,12.423157,-2.6338806,0.56648254,-0.24565125,-0.46980286
1604,A,18365812690562,1.0052948,9.26973,-1.4983673,0.32484436,-0.28933716,-0.7171173
1604,A,18365863044566,2.6168518,9.460266,-2.0450592,0.241745,-0.1174469,-0.940567
1604,A,18365913398570,2.3417664,8.193222,-0.99586487,0.09667969,0.26783752,-0.7940216
1604,A,18365963752573,1.5456085,7.8537903,-0.64372253,-0.78097534,0.70999146,0.067214966
1604,A,18366014106577,2.252533,8.838715,-0.48690796,-1.9966125,0.38426208,1.0685272
1604,A,18366064460581,2.39682,9.400681,-1.0930634,-1.69104,0.59658813,1.2534943
1604,A,18366114814585,2.5981903,11.662109,-2.520813,-0.8250427,0.1844635,0.99276733
1604,A,18366165168589,2.7866058,15.273865,-0.11099243,-0.23088074,-0.5003662,1.382782
1604,A,18366215522593,0.08874512,12.671539,2.9096832,0.0027923584,0.5844269,1.3999176
1604,A,18366265876597,0.046035767,11.778885,0.78707886,0.37098694,0.7609863,0.9812927
1604,A,18366316230601,0.76249695,10.853073,0.6472626,0.9199066,0.8073883,0.36203003
1604,A,18366366584605,-0.028259277,7.961609,1.1995544,1.2356262,0.47549438,-0.11860657
1604,A,18366416938609,-1.5886841,6.048462,0.077056885,0.91542053,0.37791443,-0.37565613
1604,A,18366467292613,-0.70428467,5.454895,-0.31488037,-0.10673523,0.39401245,-0.010055542
1604,A,18366517646616,-1.2000275,5.0140076,0.18788147,0.19677734,0.091659546,0.3742981
1604,A,18366568000620,2.1707916,7.589859,0.50245667,0.22909546,-0.7816925,-0.25775146
1604,A,18366618354624,5.467087,13.080505,3.437729,0.29537964,-0.99739075,-0.9108887
1604,A,18366668708628,2.1468506,15.616516,2.8882294,-0.028442383,-1.2505188,-0.9108124
1604,A,18366719062632,3.21167,10.798462,0.77049255,0.0015106201,-0.5,-0.7013855
1604,A,18366769416636,-3.2120209,7.9463196,-0.06349182,0.2599182,-0.56181335,-0.9759369
1604,A,18366819770640,0.55218506,9.778488,-4.697876,1.0474701,-0.50161743,-0.4459076
1604,A,18366870124644,2.3274078,11.432663,-2.319168,0.22544861,-0.54515076,-0.30197144
1604,A,18366920478648,0.35972595,7.637039,-2.6469116,0.18585205,-0.5792084,-0.81082153
1604,A,18366970832652,3.2386627,9.584915,-0.45037842,0.25390625,-0.22767639,-1.0536652
1604,A,18367021186656,1.8289337,8.52536,-0.19761658,-0.1486969,0.11071777,-0.6522522
1604,A,18367071540659,0.9760895,7.979019,-0.8558197,-1.3096771,0.5927887,0.78041077
1604,A,18367121894663,1.4426727,8.126389,-1.6118164,-2.4609528,0.20378113,2.035553
1604,A,18367172248667,2.3116455,9.928146,-0.09031677,-1.0282898,0.85639954,1.3379822
1604,A,18367222602671,4.438324,11.472855,-0.86528015,-0.6200409,-0.45248413,1.0987091
1604,A,18367272956675,2.9847717,16.479813,2.723755,-0.78671265,0.53245544,1.5151062
1604,A,18367323310679,-2.6835785,12.365845,-0.13305664,-0.024597168,0.23968506,1.0957184
1604,A,18367373664683,-0.4597931,13.797867,0.638855,0.41577148,0.2952423,0.38752747
1604,A,18367424018687,1.2157288,10.004211,4.017105,1.0896606,0.848938,-0.29356384
1604,A,18367474372691,-1.3231506,7.7296906,-0.66119385,1.1781006,-0.012802124,-0.48062134
1604,A,18367524726695,0.4736786,5.7141266,-0.1320343,-0.16035461,0.26011658,0.11387634
1604,A,18367575080698,-0.75431824,4.058548,0.96665955,-0.06752014,0.39682007,-0.045684814
1604,A,18367625434702,0.5525665,4.8789673,1.08107,0.46975708,-0.4349823,-0.33467102
1604,A,18367675788706,3.9470215,10.606552,2.8141785,0.11714172,-0.8282318,-0.8555145
1604,A,18367726142710,3.969452,13.890854,5.9711304,-0.03605652,-0.48532104,-0.8024292
1604,A,18367776496714,1.5109711,11.536697,-0.530426,0.1844635,-0.86442566,-1.0633087
1604,A,18367826850718,0.7976532,12.022324,0.39959717,0.5409851,-0.24835205,-0.44007874
1604,A,18367877204722,-1.4742126,15.540207,-1.2306671,0.98690796,-0.03916931,-0.7108307
1604,A,18367927558726,0.4649353,4.1889496,-2.0808563,0.7609558,-0.5730591,-0.44639587
1604,A,18367977912730,3.3275757,16.451492,-1.911499,0.14497375,-0.5548706,-0.6047058
1604,A,18368028266734,0.69932556,7.5710907,-3.0246735,0.12942505,-0.21916199,-0.7816925
1604,A,18368078620738,1.7699585,9.022614,-0.5264282,0.12705994,0.116760254,-0.7168579
1604,A,18368128974741,1.8606873,8.177338,-0.09188843,0.034866333,0.24024963,-0.21057129
1604,A,18368179328745,1.9837494,8.997009,-0.49798584,-0.94073486,0.60380554,0.31518555
1604,A,18368229682749,1.780777,9.247772,-0.98184204,-2.0393066,0.6499634,1.2064667
1604,A,18368280036753,2.6644745,9.537109,-1.5212708,-1.9248657,0.7181549,1.2981262
1604,A,18368330390757,3.1701965,13.442947,-0.7333679,-0.84628296,0.8042145,0.9082031
1604,A,18368380744761,2.229187,13.677536,1.6121368,-0.27825928,0.5348816,1.1551056
1604,A,18368431098765,-0.7779846,12.657242,1.1598206,-0.029205322,0.7675781,1.3390045
1604,A,18368481452769,-1.0016174,12.635025,-1.0026703,0.4889679,0.8690033,0.8112793
1604,A,18368531806773,1.824234,9.423691,-0.59310913,1.0287476,0.76556396,0.29193115
1604,A,18368582160777,1.2316895,7.9108124,0.08456421,1.2729034,0.57836914,-0.059936523
1604,A,18368632514781,-1.0897369,6.485199,-0.3209381,0.6376343,0.24455261,-0.057022095
1604,A,18368682868784,-1.2532806,5.913254,-0.083099365,-0.031707764,0.45162964,0.020568848
1604,A,18368733222788,-0.9790802,5.4826355,0.5536194,0.33059692,0.30187988,-0.22410583
1604,A,18368783576792,1.4294434,8.574387,0.7187042,0.2099762,-1.4330444,0.014602661
1604,A,18368833930796,3.870636,12.202866,3.2148285,0.02420044,-1.0182343,-0.32815552
1604,A,18368884284800,1.8218384,10.00914,2.895935,0.35983276,-0.8095093,-1.1851654
1604,A,18368934638804,1.2953186,9.835648,0.5750122,-0.003326416,-0.87649536,-0.85850525
1604,A,18368984992808,-0.83029175,8.803711,0.47476196,0.06956482,-0.40242004,-0.6436615
1604,A,18369035346812,-1.2930908,6.681305,-2.6547241,0.9043884,-0.396286,-0.39926147
1604,A,18369085700816,0.537796,8.831131,-2.1342316,0.8463135,-0.52207947,-0.35365295
1604,A,18369136054820,0.92411804,10.011856,-1.6863098,0.4416504,-0.532547,-0.73480225
1604,A,18369186408823,2.1203003,8.981354,-1.7936401,0.26571655,-0.26402283,-0.9948578
1604,A,18369236762827,1.6155396,7.9987335,-0.95207214,0.1723938,0.009719849,-0.66773987
1604,A,18369287116831,1.453476,8.24411,-0.9039917,-0.18554688,0.2370758,-0.3208313
1604,A,18369337470835,1.5027008,9.12825,-1.0101624,-1.3136902,0.42218018,0.36691284
1604,A,18369387824839,1.6989899,9.545776,-1.4143524,-1.9378662,0.78634644,1.407608
1604,A,18369438178843,2.8754272,10.189148,-2.5485535,-1.40242,0.59962463,1.6421661
1604,A,18369488532847,1.6057281,12.666962,-0.44688416,-0.70362854,-0.65341187,1.5157471
1604,A,18369538886851,2.9535522,11.671143,0.4897766,-0.70370483,-0.08415222,1.502121
1604,A,18369589240855,-1.6910706,11.577988,0.16841125,-0.5487671,0.8312378,1.219162
1604,A,18369639594859,-0.60266113,12.476257,0.075286865,-0.029281616,0.82987976,0.5383606
1604,A,18369689948863,0.9023895,12.681076,5.126465,0.88790894,0.83773804,0.058914185
1604,A,18369740302866,-1.8417664,8.211166,1.805191,1.2424011,0.13719177,-0.3791046
1604,A,18369790656870,-0.21360779,6.352539,-0.9638214,0.2858429,0.22969055,-0.17829895
1604,A,18369841010874,-0.60317993,4.337433,0.778183,0.5198822,0.26828003,-0.38879395
1604,A,18369891364878,0.55526733,4.0058746,0.5829468,-0.58569336,-1.5523987,0.35736084
1604,A,18369941718882,2.798523,8.751999,4.110672,0.30647278,-0.9229126,-0.7391205
1604,A,18369992072886,5.5639496,11.676422,5.3531647,0.46705627,-1.5271149,-1.3315582
1604,A,18370042426890,-1.4813538,12.171219,-0.19628906,0.053207397,-1.3808746,-0.9331665
1604,A,18370092780894,2.6587372,17.095596,3.4602509,0.054031372,-1.2575531,-0.96665955
1604,A,18370143134898,-1.0969086,4.652008,-5.3896027,0.91889954,-1.0741882,-0.36253357
1604,A,18370193488902,5.7584686,16.866821,-2.6516876,1.2306824,-0.802536,-0.19355774
1604,A,18370243842906,0.4386139,6.719879,-1.4877167,0.26324463,-0.52700806,-0.64453125
1604,A,18370294196909,3.0269165,8.174759,-1.1260529,0.34378052,-0.25584412,-0.9097748
1604,A,18370344550913,2.7460938,8.012787,-0.5334778,0.06262207,0.0074157715,-0.8144684
1604,A,18370394904917,1.7818604,9.364258,0.46600342,0.14762878,0.2214508,-0.18325806
1604,A,18370445258921,2.2195435,8.90007,-1.0549774,-1.2621613,0.895874,0.35839844
1604,A,18370495612925,1.5026093,9.632904,-0.73117065,-2.1517181,-0.13352966,1.667099
1604,A,18370545966929,1.5070953,9.603439,-2.2834778,-1.0310059,1.2626953,1.2067261
1604,A,18370596320933,2.0665436,14.014633,-1.3931274,-1.138855,-0.4605255,1.1998596
1604,A,18370646674937,2.90036,15.462891,0.050476074,-1.1502228,0.16375732,1.2730713
1604,A,18370697028941,-3.02594,12.004089,2.409195,-0.50527954,0.5358734,1.0650177
1604,A,18370747382945,-1.1771393,12.542252,-1.6712799,0.17810059,0.45620728,0.49668884
1604,A,18370797736948,0.7431488,9.715759,2.137909,1.0992737,0.87228394,-0.043167114
1604,A,18370848090952,-2.611496,6.7516937,-0.52763367,1.2196045,0.4736786,-0.34298706
1604,A,18370898444956,0.07397461,5.1599884,0.47943115,0.42044067,0.37701416,-0.4032135
1604,A,18370948798960,0.19642639,4.472046,0.2188263,0.13345337,-0.14920044,-0.0791626
1604,A,18370999152964,0.44578552,5.370529,1.3478241,0.24394226,-1.3951721,0.21052551
1604,A,18371049506968,2.4265747,10.155655,3.0525665,0.37890625,-0.6872101,-1.1092377
1604,A,18371099860972,4.2595673,14.969284,3.5619354,0.2893219,-1.3195343,-1.2115173
1604,A,18371150214976,1.8227844,15.207489,-1.2136078,0.12231445,-1.2195282,-0.6472473
1604,A,18371200568980,0.5992279,8.570114,-2.4513855,0.32255554,-0.6846924,-0.73298645
1604,A,18371250922984,-0.5370331,8.165207,-2.6673126,0.8985138,-0.5885773,-0.44197083
1604,A,18371301276988,2.1311035,12.970978,-1.9103851,0.5661011,-0.8741913,-0.24832153
1604,A,18371351630991,0.20283508,7.2809906,-1.544754,0.07467651,-0.6667175,-0.73469543
1604,A,18371401984995,2.1486053,8.406189,-2.1617737,0.19032288,-0.23500061,-0.883255
1604,A,18371452338999,1.4648438,8.612701,-0.64471436,0.13345337,0.11404419,-0.39091492
1604,A,18371502693003,1.1528473,8.907883,-0.30540466,-0.7814789,0.6744995,0.3309784
1604,A,18371553047007,2.3295746,9.225815,-0.5560913,-2.0509033,0.7393799,0.97340393
1604,A,18371603401011,2.7579498,9.667786,-0.30366516,-1.4477081,0.29904175,1.6700134
1604,A,18371653755015,2.790451,12.391708,0.41474915,-0.8474426,0.6257782,1.4339142
1604,A,18371704109019,2.1348877,13.915192,0.84465027,-1.0619965,0.67604065,1.1767578
1604,A,18371754463023,-0.31611633,11.819931,0.15052795,-0.68315125,0.5497589,1.2275085
1604,A,18371804817027,-1.9351654,11.811432,-1.0171204,-0.047714233,0.6017914,0.75593567
1604,A,18371855171031,0.63313293,11.173172,-1.2624817,0.7091522,0.65234375,0.1295929
1604,A,18371905525034,-0.85035706,8.015549,0.19258118,1.1683044,0.26664734,-0.408844
1604,A,18371955879038,-0.930954,5.8795624,0.22314453,0.52948,0.28575134,-0.15364075
1604,A,18372006233042,0.14021301,4.2210083,0.05267334,-0.040740967,0.47129822,-0.031448364
1604,A,18372056587046,1.2276917,4.9322968,0.33615112,0.4234619,0.0912323,-0.10467529
1604,A,18372106941050,2.0342255,8.059143,2.3293457,0.37077332,-1.0288086,-0.1782074
1604,A,18372157295054,3.1000824,12.037949,4.996521,0.39749146,-0.71899414,-0.98812866
1604,A,18372207649058,1.0965424,8.953171,2.8595276,0.2795105,-1.2888947,-0.9091797
1604,A,18372258003062,2.9554596,11.170395,0.81233215,-0.29615784,-1.0323944,-0.83110046
1604,A,18372308357066,-1.4593353,7.064804,-0.06808472,-0.110687256,-0.4477234,-1.0032806
1604,A,18372358711070,0.4970398,13.234024,-4.4768066,1.023941,-0.7159271,-0.33236694
1604,A,18372409065073,0.4678955,10.530609,-1.9390259,0.74186707,-0.61001587,-0.42279053
1604,A,18372459419077,-0.09739685,8.554565,-1.4899445,0.115493774,-0.67289734,-0.62446594
1604,A,18372509773081,2.974823,8.757217,-2.5384216,0.287735,-0.07997131,-0.9434204
1604,A,18372560127085,1.7954254,8.51796,-0.9690857,0.24485779,0.26193237,-0.6673126
1604,A,18372610481089,1.4404297,8.221619,-0.28556824,0.16316223,0.9096527,-4.7302246E-4
1604,A,18372660835093,2.0653534,9.518188,-0.9249878,-1.7418365,0.05583191,1.1858368
1604,A,18372711189097,2.980713,10.006393,-0.5950775,-1.9944305,0.8571625,1.3057556
1604,A,18372761543101,3.2996216,11.240311,-3.2926483,-1.5952911,-0.06271362,1.0748291
1604,A,18372811900406,2.309845,16.50441,-0.72706604,-0.8060913,-0.24156189,1.5417328
1604,A,18372862254410,-1.4559631,12.861008,1.9388733,-0.45593262,0.7778015,1.3215637
1604,A,18372912608414,-1.5141602,12.342209,3.855484,-0.102127075,0.649765,0.93115234
1604,A,18372962962417,0.5632324,9.502945,1.547348,0.8831024,0.9367523,0.12716675
1604,A,18373013316421,-1.2999268,7.1150665,-0.80075073,1.491684,0.5653534,-0.3421936
1604,A,18373063670425,-0.35011292,5.872589,-0.5191803,0.7979126,0.51353455,-0.28060913
1604,A,18373114024429,0.343338,4.5361786,0.09803772,-0.2668152,0.6443939,0.12666321
1604,A,18373164378433,-1.0826263,4.404846,-0.27441406,0.72325134,0.0927887,-0.4250946
1604,A,18373214732437,2.0714111,8.440826,0.45259094,0.06474304,-1.4307861,-0.026763916
1604,A,18373265086441,7.780258,17.329254,3.624298,0.033187866,-0.6255188,-0.72576904
1604,A,18373315440445,-1.1781769,8.897781,2.4546814,0.41207886,-1.3095398,-0.76457214
1604,A,18373365794449,3.3145294,7.763916,-0.3801117,-0.45065308,-1.1187592,-0.67074585
1604,A,18373416148453,-1.2639465,10.813156,-1.2359467,0.33216858,-0.7415161,-1.181366
1604,A,18373466502457,-1.1839752,8.696884,-4.7029724,1.1096497,-0.98184204,-0.22215271
1604,A,18373516856460,0.06072998,12.443237,-1.5338135,0.23277283,-0.79603577,-0.46224976
1604,A,18373567210464,0.9143677,8.863983,-3.5265198,0.0945282,-0.6641998,-0.7030182
1604,A,18373617564468,3.7022858,8.898209,-0.32226563,0.18063354,-0.33825684,-0.7949524
1604,A,18373667918472,1.2324677,8.504227,0.09788513,-0.19868469,0.049621582,-0.20765686
1604,A,18373718272476,2.3782654,8.981003,-0.85339355,-1.1361694,0.19316101,1.1372375
1604,A,18373768626480,1.7126007,9.894455,-0.90371704,-2.7469025,-0.43276978,1.0836334
1604,A,18373818980484,1.8092194,10.136627,-0.93722534,-1.7753296,-1.3247223,0.3649292
1604,A,18373869334488,1.6763916,14.041718,-1.3760071,-1.2980957,-1.2614441,0.5142822
1604,A,18373919688492,-1.3940277,18.254364,1.588974,-0.7024536,-0.97013855,0.8905792
1604,A,18373970042496,-2.9762878,12.012161,1.9363861,0.2253418,-0.83303833,0.886673
1604,A,18374020396499,-1.1552124,7.4447784,-0.85643005,0.7276764,-0.34111023,0.39863586
1604,A,18374070750503,0.053985596,6.0704803,-0.106918335,0.9028168,-0.24641418,0.042404175
1604,A,18374121104507,1.4088135,5.493271,0.5479584,0.861145,-0.16963196,-0.002609253
1604,A,18374171458511,0.8158722,6.0933228,2.1964722,0.5752106,0.19715881,0.049545288
1604,A,18374221812515,0.8842621,6.476166,1.5023651,0.39605713,-0.071136475,-0.23512268
1604,A,18374272166519,3.592575,7.396637,3.1055145,0.26313782,-0.7852783,-0.015197754
1604,A,18374322520523,4.4930725,9.161392,3.3643036,0.48631287,-1.1038971,-0.90164185
1604,A,18374372874527,1.9725952,9.461563,2.70253,0.302063,-1.4764099,-0.81977844
1604,A,18374423228531,-0.8626251,11.007004,1.7915497,-0.46923828,-1.3436279,-0.23408508
1604,A,18374473582535,-0.25091553,9.053833,-0.24746704,-0.29652405,-1.1014862,-0.58992004
1604,A,18374523936539,0.18862915,8.971344,-3.4014435,0.5075226,-1.0800934,-0.46148682
1604,A,18374574290542,2.8648834,14.109207,-2.9012299,0.5385742,-1.0215302,-0.41514587
1604,A,18374624644546,0.045547485,8.441544,-2.3898773,-0.08631897,-0.84628296,-0.7630768
1604,A,18374674998550,2.3992462,9.958984,-0.95150757,-0.37960815,-0.3848877,-0.9119568
1604,A,18374725352554,3.0512238,9.2951355,-0.59291077,0.056900024,-0.037490845,-0.35401917
1604,A,18374775706558,2.1894836,8.960175,-0.40356445,0.30140686,0.5735321,0.018829346
1604,A,18374826060562,2.488327,9.2886505,-0.60292053,-0.9323883,-0.034851074,0.4473877
1604,A,18374876414566,3.0973053,8.62265,-1.6103363,-1.3327179,-0.3932953,1.0855713
1604,A,18374926768570,1.5699005,9.285568,-1.9936218,-1.620285,-0.26124573,0.9966278
1604,A,18374977122574,0.32899475,13.9175415,-0.57850647,-1.0760193,-0.2636261,0.5916443
1604,A,18375027476578,0.08174133,13.993011,0.686615,-0.1690216,-0.6427002,1.3344421
1604,A,18375077830582,-1.1615753,13.554733,3.0273743,0.064453125,-0.12083435,1.3929596
1604,A,18375128184585,-0.9592285,11.555374,1.3978882,0.4120636,0.417511,0.6759491
1604,A,18375178538589,-1.0062103,6.9449005,-0.5592804,0.60276794,0.260437,0.029266357
1604,A,18375228892593,-0.041534424,6.0460815,0.6781769,0.41682434,0.37669373,-0.23304749
1604,A,18375279246597,0.49220276,6.8042755,0.8104706,0.31147766,-0.19825745,-0.09939575
1604,A,18375329600601,0.1775055,5.783783,1.6735687,0.37982178,-0.018081665,-0.12013245
1604,A,18375379954605,1.7321625,6.921341,2.0945587,0.22232056,-0.63638306,-0.20927429
1604,A,18375430308609,3.3470154,8.911377,3.640625,0.47691345,-1.5179291,-0.6089783
1604,A,18375480662613,2.3134766,9.326691,2.838272,0.28964233,-2.0189514,-0.7952728
1604,A,18375531016617,2.2532654,13.03801,1.504776,-0.15615845,-1.7121887,-0.89164734
1604,A,18375581370621,-1.4551849,9.098953,-1.4070587,-0.43803406,-0.9739227,-0.89323425
1604,A,18375631724624,0.64634705,9.140213,-3.6948242,-0.12586975,-0.8691406,-0.83921814
1604,A,18375682078628,2.1035004,11.2799835,-2.7020874,0.83180237,-0.9503479,-0.3572693
1604,A,18375732432632,0.8151398,9.410843,-2.1549835,0.56303406,-0.6882019,-0.6094208
1604,A,18375782786636,2.0718079,9.553955,-1.1703186,-0.19487,-0.5536041,-0.90449524
1604,A,18375833140640,2.4741364,8.516418,-1.5108185,0.1659851,-0.26557922,-1.011383
1604,A,18375883494644,1.2637634,8.188263,-0.14723206,-0.041259766,0.05256653,-0.47218323
1604,A,18375933848648,2.2406921,8.755081,-0.35984802,-0.50538635,0.7600708,0.26672363
1604,A,18375984202652,1.6398163,9.663116,-0.8912201,-1.9592285,0.30462646,1.2485352
1604,A,18376034556656,2.0562134,9.992264,-1.4192505,-2.2064514,0.06439209,1.2524261
1604,A,18376084910660,4.5640717,10.949173,-1.7174377,-1.1651459,0.91841125,0.77601624
1604,A,18376135264664,2.4667816,14.113388,0.79408264,-0.4291687,-0.15510559,1.3657837
1604,A,18376185618667,-1.5083618,11.606964,3.0764923,-0.16947937,0.525177,1.6360931
1604,A,18376235972671,-1.4517822,17.296356,3.5773926,0.4909668,0.5786743,1.6758881
1604,A,18376286326675,-1.0732574,8.466583,-0.67752075,0.98469543,0.4785614,0.7262268
1604,A,18376336680679,1.9536438,8.46579,0.53556824,0.8483887,0.15933228,-0.15200806
1604,A,18376387034683,-1.8960419,5.5277405,-0.0119018555,0.64279175,0.53863525,-0.39048767
1604,A,18376437388687,-1.930954,7.3096466,-0.82292175,0.32510376,-0.20812988,0.19367981
1604,A,18376487742691,-2.388977,5.5854187,0.69029236,0.20944214,0.4567871,-0.38104248
1604,A,18376538096695,2.3179932,7.781418,1.3198395,0.050842285,-0.7039032,0.16781616
1604,A,18376588450699,4.4093018,11.706284,4.1542053,0.44882202,-0.82592773,-0.7709503
1604,A,18376638804703,4.3554077,10.523956,3.6668243,0.32481384,-1.0411224,-1.4594421
1604,A,18376689158707,0.75183105,12.818008,1.0037231,-0.47480774,-0.83203125,-0.72753906
1604,A,18376739512710,2.3005524,13.718018,-2.4432678,-0.008987427,-0.4353943,-0.9615021
1604,A,18376789866714,-2.6024475,5.1979523,-3.089325,0.8306427,-0.79348755,-0.37702942
1604,A,18376840220718,2.7228851,17.250336,0.90390015,0.9563904,-0.74263,-0.4116516
1604,A,18376890574722,1.0757751,7.8890076,-3.4539642,0.07859802,-0.325943,-0.72940063
1604,A,18376940928726,4.0596466,10.240631,-1.9457092,0.31277466,-0.06556702,-0.7206726
1604,A,18376991282730,2.452179,8.66214,-0.7920532,0.37313843,0.0047454834,-0.4810028
1604,A,18377041636734,1.884018,8.733841,-0.38272095,0.2397461,-0.05253601,-0.44015503
1604,A,18377091990738,2.4746857,9.299423,-1.223175,-0.82092285,0.15203857,0.0034484863
1604,A,18377142344742,1.4440918,9.503052,-0.9933014,-2.0303345,0.67256165,0.69996643
1604,A,18377192698746,0.29968262,10.782349,-1.7178345,-2.3560638,0.25090027,1.1052551
1604,A,18377243052749,1.3191986,12.324936,-0.68081665,-0.55729675,0.66348267,1.2717133
1604,A,18377293406753,1.8996124,12.807648,-0.13763428,0.36846924,1.3515472,1.6490479
1604,A,18377343760757,1.2905273,12.006424,1.197525,-0.19134521,1.6070557,1.7873688
1604,A,18377394114761,0.4429474,11.500198,0.4402771,-0.09890747,1.7592621,1.3257904
1604,A,18377444468765,2.3614502,9.710953,-2.416397,0.06851196,1.427124,0.68595886
1604,A,18377494822769,2.6175842,8.697754,-2.9062195,0.61235046,0.96635437,0.34275818
1604,A,18377545176773,-0.17507935,8.502853,-1.3561249,1.1078491,0.5120697,0.10473633
1604,A,18377595530777,-0.6330261,7.3106384,-0.6425781,0.93821716,0.47465515,-0.26202393
1604,A,18377645884781,0.254364,6.167038,0.47950745,0.93341064,0.3248291,-0.7455292
1604,A,18377696238785,1.0617676,6.089966,0.95243835,0.27700806,-1.0722351,-0.07078552
1604,A,18377746592789,3.1943207,7.5596924,2.4100647,-0.17861938,-1.0450287,-0.3657837
1604,A,18377796946792,3.0636292,9.019028,3.0205994,0.38876343,-0.50172424,-1.6082611
1604,A,18377847300796,1.1474609,14.186661,0.7733154,-0.15991211,-0.6450348,-0.9741821
1604,A,18377897654800,0.823822,12.893723,-1.7728882,0.06484985,-0.660614,-0.5223541
1604,A,18377948008804,-0.90293884,5.6660767,-4.590805,1.1315613,-0.569046,-0.5243988
1604,A,18377998362808,-0.14781189,8.907501,-3.0674744,0.98890686,-0.63931274,-0.438797
1604,A,18378048716812,0.73405457,10.699387,-1.9983978,0.55055237,-0.61820984,-0.64404297
1604,A,18378099070816,1.0065002,8.6896515,-1.6924591,0.2687378,-0.5195465,-0.77441406
1604,A,18378149424820,1.2968597,8.38913,-0.95648193,0.17678833,-0.09931946,-0.64271545
1604,A,18378199778824,0.97120667,9.06752,-0.58995056,0.110687256,0.24685669,-0.32710266
1604,A,18378250132828,1.9427795,9.4216,-0.7809143,-0.63038635,0.8792877,0.05857849
1604,A,18378300486832,1.9548798,9.67012,-0.81921387,-2.1622162,0.3056183,0.7357788
1604,A,18378350840835,3.095169,9.930374,-1.611084,-1.8112183,0.6572113,1.0807343
1604,A,18378401194839,1.998764,12.3914795,-2.0948486,-1.2023315,0.35688782,0.844635
1604,A,18378451548843,1.1022949,13.384293,-0.010131836,-0.8731537,0.17437744,1.5142212
1604,A,18378501902847,-0.4420929,11.7717285,1.7336273,-0.44114685,0.576828,1.6338806
1604,A,18378552256851,-2.200821,13.893219,-1.4875641,0.08946228,0.74687195,1.0934753
1604,A,18378602610855,0.9684906,9.966202,0.05180359,0.7679138,0.8972168,0.28475952
1604,A,18378652964859,0.13265991,6.6256256,-0.12757874,1.242157,0.7630615,-0.30778503
1604,A,18378703318863,-0.9158325,5.858368,0.09440613,0.57107544,0.5762634,-0.23904419
1604,A,18378753672867,-0.7523346,4.951996,0.4205475,0.17997742,0.5456238,0.07749939
1604,A,18378804026871,-0.5866699,4.646057,0.8595886,-0.11677551,-1.2886047,0.796402
1604,A,18378854380874,2.6687164,7.93573,1.5906372,0.46347046,0.6607361,-1.3136444
1604,A,18378904734878,4.545288,14.576477,4.5164795,0.5336304,-0.85002136,-1.3642731
1604,A,18378955088882,0.59132385,19.002869,0.22807312,0.027008057,0.19793701,-0.5411377
1604,A,18379005442886,0.50694275,9.001236,-1.5354156,0.25735474,-0.11050415,-0.5590668
1604,A,18379055796890,-1.1447754,5.440735,-3.1513062,1.0307312,0.2806549,-0.51960754
1604,A,18379106150894,4.309601,12.4852295,-1.7519684,1.072876,-0.16719055,-0.3630829
1604,A,18379156504898,-0.07107544,9.231659,-1.9455109,0.39982605,-0.17251587,-0.51652527
1604,A,18379206858902,1.4265137,8.798431,-1.044281,0.069732666,-0.117889404,-0.635849
1604,A,18379257212906,2.282135,8.631073,-0.40805054,0.44882202,0.40182495,-0.88223267
1604,A,18379307566910,1.063385,8.039429,-1.0507507,0.27163696,0.32722473,-0.37556458
1604,A,18379357920914,1.9484558,9.552307,-0.41856384,-0.89559937,0.45629883,0.048568726
1604,A,18379408274917,1.3027496,9.535263,-1.7498474,-2.0548248,0.7472534,0.7682953
1604,A,18379458628921,1.3384705,9.364212,-2.3104706,-2.9395142,0.12768555,1.1800079
1604,A,18379508982925,1.4699554,13.010513,-0.5032654,-1.3247833,0.6307373,1.0919952
1604,A,18379559336929,2.7851105,15.06723,0.4929657,-0.29885864,1.2060242,1.0058746
1604,A,18379609690933,0.4768982,12.250153,2.0115814,0.10147095,0.5864258,2.114746
1604,A,18379660044937,-1.6437683,11.069092,1.8960419,0.22822571,1.7707977,1.293335
1604,A,18379710398941,0.7212219,10.486374,-0.8403473,0.8158264,1.3712463,0.7124634
1604,A,18379760752945,2.7661133,8.791473,0.3049469,1.1653595,0.9394226,0.29756165
1604,A,18379811106949,0.23614502,7.1882324,0.17680359,0.5778198,0.5623932,0.0765686
1604,A,18379861460953,-1.9258423,5.511627,-1.0849609,0.07678223,-0.10096741,0.1103363
1604,A,18379911814957,-1.7987518,6.2476044,-0.2934265,0.06138611,-0.08822632,-0.066726685
1604,A,18379962168960,-0.11735535,8.68631,1.6617126,0.10671997,-0.9464874,-0.35575867
1604,A,18380012522964,3.937683,14.095444,3.6626892,0.8929596,-0.07505798,-1.3337402
1604,A,18380062876968,2.2343445,10.530426,3.6185455,0.0821228,-0.5630188,-0.8105316
1604,A,18380113230972,1.5736237,11.938629,1.8252869,-0.2933197,-0.09284973,-0.22599792
1604,A,18380163584976,0.029846191,10.160706,2.3376617,0.6735077,-0.23364258,-0.7274475
1604,A,18380213938980,3.8912048,9.704498,-3.2331848,1.3468628,0.42053223,-0.7538605
1604,A,18380264292984,2.4645538,11.410934,-1.656662,0.6705475,0.031570435,-0.63334656
1604,A,18380314646988,-0.6703186,9.627411,-2.3763123,0.5144501,-0.112335205,-0.7263031
1604,A,18380365000992,0.9990387,9.86879,-0.37612915,0.10140991,-0.14985657,-0.74446106
1604,A,18380415354996,2.2528381,9.027054,-0.55207825,-0.05836487,-0.0617218,-0.49562073
1604,A,18380465708999,1.7158508,8.179169,-0.5988312,-0.46780396,0.45622253,-0.10055542
1604,A,18380516063003,0.78204346,9.391449,-1.0661011,-1.4590302,0.45167542,0.56137085
1604,A,18380566417007,0.15319824,10.709747,-1.246994,-2.1473083,0.045425415,1.1217041
1604,A,18380616771011,0.9528198,11.8246765,-1.4396057,-1.6568146,0.11619568,1.166153
1604,A,18380667125015,1.9484558,13.61763,-0.9527893,-0.78648376,-0.8147583,1.5653992
1604,A,18380717479019,0.24804688,12.783112,1.3499908,-0.24702454,-0.06764221,1.8194427
1604,A,18380767833023,-1.6485748,12.021194,3.0217285,0.08830261,0.98791504,1.5670319
1604,A,18380818187027,-0.28347778,11.888336,0.6509857,0.67274475,0.9117584,0.9724579
1604,A,18380868541031,0.21560669,9.5677185,-0.17701721,0.8308258,0.7119446,0.18539429
1604,A,18380918895035,-1.306015,7.3931427,0.83044434,0.5533447,0.55062866,-0.009292603
1604,A,18380969249039,-1.1936798,6.848419,0.90408325,0.43128967,0.10003662,-0.19380188
1604,A,18381019603042,-0.49394226,5.005249,1.6394958,0.2735138,-0.0015411377,-0.26127625
1604,A,18381069957046,2.0903625,5.8535614,2.0458832,0.12289429,-0.18600464,-0.6075592
1604,A,18381120311050,4.0799255,8.159683,3.0237122,0.66516113,-1.2627716,-0.65649414
1604,A,18381170665054,1.297348,9.365662,2.640625,0.71299744,-1.9238434,-0.69898987
1604,A,18381221019058,1.2346039,11.818069,2.8958435,0.026565552,-0.5990753,-0.53408813
1604,A,18381271373062,-0.43115234,8.127502,-1.6983643,-0.32185364,-0.25878906,-0.8873596
1604,A,18381321727066,1.9392548,7.2500305,-4.2749786,0.26811218,0.018554688,-1.0288849
1604,A,18381372081070,3.8314667,12.409073,-2.1762543,0.84542847,-0.29882813,-0.45611572
1604,A,18381422435074,0.19895935,10.46965,-1.9071655,0.49137878,-0.57681274,-0.58525085
1604,A,18381472789078,1.4580231,9.807022,-2.2381897,0.24615479,-0.3023224,-0.8704529
1604,A,18381523143082,3.4429474,9.093079,-1.6501007,-0.042907715,0.4008026,-0.7395935
1604,A,18381573497085,1.35849,8.84996,-0.31108093,1.5418243,0.08506775,0.28814697
1604,A,18381623851089,1.262558,8.852432,-0.46658325,-1.1127777,0.0309906,0.1456604
1604,A,18381674205093,1.417633,9.446045,-1.271225,-1.9630585,0.17770386,0.9794769
1604,A,18381724559097,1.6760101,9.979523,-2.5395508,-2.0556793,0.69470215,1.0357208
1604,A,18381774913101,0.90800476,15.57518,2.8598328,-0.9645996,-0.054626465,0.93070984
1604,A,18381825267105,0.35417175,12.551758,1.5723724,0.14242554,-0.980011,2.198532
1604,A,18381875621109,-1.1736145,12.784058,2.9495392,0.29386902,0.376297,1.6741028
1604,A,18381925975113,0.81521606,11.766861,0.0854187,0.24971008,0.8865204,0.5462494
1604,A,18381976329117,-1.7537384,12.33255,0.427536,0.27192688,1.04393,-0.041107178
1604,A,18382026683121,0.098480225,7.800949,1.545105,0.25169373,1.281311,0.19503784
1604,A,18382077037124,-0.28294373,8.0785675,0.6595001,-0.12956238,0.10862732,0.51724243
1604,A,18382127391128,-1.1411133,4.8959503,0.9283142,0.20454407,0.29005432,0.1307373
1604,A,18382177745132,0.15539551,5.4398956,1.3238678,0.817688,-0.8306122,-0.80615234
1604,A,18382228099136,3.4373322,8.736771,2.520462,0.87506104,-1.1706848,-1.0628662
1604,A,18382278453140,4.7265167,13.785965,4.185547,0.1421051,-1.2493896,-1.4271698
1604,A,18382328807144,-2.9293518,5.9187927,3.8912964,0.13320923,-1.1923065,-1.0313263
1604,A,18382379161148,0.38467407,13.136047,-2.6235046,0.158432,-1.1531372,-0.99586487
1604,A,18382429515152,0.9580078,10.841751,-3.0183716,0.95243835,-0.75083923,-0.605011
1604,A,18382479869156,0.80682373,11.259674,-1.8509064,1.1213989,-0.84262085,-0.25325012
1604,A,18382530223160,0.706131,8.880096,-1.0343018,0.18605042,-0.506073,-0.47665405
1604,A,18382580577164,3.3146515,8.893539,-1.5609741,5.187988E-4,-0.16481018,-0.7268524
1604,A,18382630931167,2.4223175,7.804199,-0.8969269,0.008255005,0.06277466,-0.7205963
1604,A,18382681285171,1.6940002,8.095276,0.0020141602,0.51361084,0.30908203,-0.39608765
1604,A,18382731639175,2.1954956,9.881546,-0.72706604,-0.75616455,0.58244324,-0.22717285
1604,A,18382781991171,1.9707642,9.435486,-0.96055603,-1.870224,0.48130798,1.017807
1604,A,18382832345175,1.9709015,9.449951,-1.5854187,-2.474411,0.41992188,1.2536316
1604,A,18382882699179,2.3085327,12.940292,-0.6921234,-1.396347,0.5687103,1.1466217
1604,A,18382933053183,3.227188,12.474609,-0.8100281,-0.6947479,0.56559753,1.1541138
1604,A,18382983407187,-0.80584717,11.1093445,1.5385742,0.23504639,0.586853,1.681366
1604,A,18383033761191,-1.2089386,12.944489,0.6853943,0.37251282,1.325592,1.0644836
1604,A,18383084115195,0.39785767,13.9401245,-0.47242737,0.6213074,1.0130463,0.57489014
1604,A,18383134469199,0.2783203,9.601227,1.5430908,0.8511505,0.40963745,0.37236023
1604,A,18383184823202,-0.986145,7.4527893,0.41560364,0.7158356,0.12176514,0.3436737
1604,A,18383235177206,-1.6821289,5.8689117,-1.262558,0.32104492,0.35430908,0.025375366
1604,A,18383285531210,-1.4358368,6.600769,0.56192017,0.040130615,0.27848816,0.0076904297
1604,A,18383335885214,1.2359467,8.000427,2.1935883,0.28437805,-0.14291382,0.026153564
1604,A,18383386239218,4.069046,9.683456,3.5591278,0.7858124,-0.69770813,-0.6576843
1604,A,18383436593222,2.4248962,9.916977,2.5989532,0.5124054,-0.94487,-0.79533386
1604,A,18383486947226,2.1415253,10.711227,0.8568115,-0.008865356,-0.60572815,-0.71759033
1604,A,18383537301230,2.2114563,7.671463,-2.239975,-0.34065247,-0.6560364,-0.9187317
1604,A,18383587655234,1.5025177,8.3233795,-4.334961,0.54985046,-0.48214722,-0.78030396
1604,A,18383638009238,2.1949768,12.360428,-2.1818085,1.1497345,-0.33287048,-0.5729065
1604,A,18383688363241,-0.11412048,10.414932,-1.7118378,0.6730194,-0.5383301,-0.5661926
1604,A,18383738717245,1.229538,10.085022,-3.169159,0.36419678,-0.2785797,-0.7436371
1604,A,18383789071249,2.0525513,9.352463,-2.4144287,0.1043396,0.30267334,-0.92108154
1604,A,18383839425253,2.063919,8.7964325,-0.8640442,0.21336365,0.7498932,-0.5489044
1604,A,18383889779257,2.241333,8.659256,-0.3190155,-0.3084259,1.0196228,-0.1277008
1604,A,18383940133261,2.109024,9.149673,-0.5302887,-1.5288544,0.8299866,0.5853119
1604,A,18383990487265,2.1348267,9.731888,-1.4688873,-2.4848022,0.8101196,1.1033936
1604,A,18384040841269,1.8673706,11.277969,-2.2955475,-1.5925293,0.473526,1.3059235
1604,A,18384091195273,1.9325562,13.792862,-0.87849426,-0.18223572,0.3170166,1.2437744
1604,A,18384141549277,0.2635193,11.194595,1.8736572,-0.45896912,1.2796173,1.3075409
1604,A,18384191903281,-2.0600586,10.440918,0.06254578,-0.30274963,1.3389893,1.0593872
1604,A,18384242257284,-0.2552948,12.39035,-0.40403748,0.14831543,0.89675903,0.49716187
1604,A,18384292611288,2.088562,11.11319,-1.0179138,0.7447052,0.66186523,0.10333252
1604,A,18384342965292,-1.3131409,8.422852,-1.1156769,1.1199951,0.20639038,-0.052612305
1604,A,18384393319296,-2.1097107,5.9959106,-0.5874481,0.27456665,-0.13697815,0.2958374
1604,A,18384443673300,-2.2464752,4.213623,-0.35055542,-0.19465637,0.20629883,-0.032409668
1604,A,18384494027304,-1.2204437,5.240097,0.16239929,0.25247192,0.041885376,-0.22337341
1604,A,18384544381308,2.812683,10.606674,1.9572449,0.42218018,-1.4176483,0.052505493
1604,A,18384594735312,4.132202,14.280762,5.3595276,0.3303833,-0.8023987,-0.92900085
1604,A,18384645089316,1.1464691,9.365036,1.5594635,0.44355774,-1.2153625,-1.0211792
1604,A,18384695443320,2.9160004,12.337906,0.9459381,-0.38354492,-1.6036377,-0.5096741
1604,A,18384745797324,-2.0490723,6.621689,-0.97891235,0.096832275,-1.3113251,-0.7813721
1604,A,18384796151327,0.80688477,11.461929,-5.423065,1.015274,-1.0948029,-0.51127625
1604,A,18384846505331,-0.9112549,6.8437805,-1.143219,0.62176514,-0.8334198,-0.7994232
1604,A,18384896859335,1.310257,9.914902,-2.4461823,0.02722168,-1.106369,-0.5774536
1604,A,18384947213339,2.4707947,9.240128,-0.8073883,-0.09010315,-0.6010742,-0.6869354
1604,A,18384997567343,1.2834625,9.167389,0.13978577,-0.12626648,-0.075683594,-0.44436646
1604,A,18385047921347,2.8771362,8.632614,-0.58399963,0.35636902,0.85139465,-0.5647888
1604,A,18385098275351,3.1378784,9.712204,-0.5257416,-0.3126831,0.4499817,-0.33662415
1604,A,18385148629355,1.085495,8.500275,-1.20018,-1.6295471,0.5883026,0.7715149
1604,A,18385198983359,1.504242,8.102417,-3.0051117,-2.7957458,0.24430847,1.5106659
1604,A,18385249337363,3.4012146,10.3385315,-1.6212463,-1.0400848,0.65245056,0.95751953
1604,A,18385299691366,2.5085907,14.030197,0.6338959,-0.37477112,1.2445068,0.3548584
1604,A,18385350045370,-0.18583679,12.971359,2.716156,-0.14730835,0.15707397,1.04953
1604,A,18385400399374,-2.8188324,11.429672,0.88349915,0.508728,0.49476624,0.9497833
1604,A,18385450753378,-1.0897522,13.063583,-0.14517212,0.8375397,0.66848755,0.5983429
1604,A,18385501107382,1.9680481,9.595673,-0.02848816,1.0842285,0.15274048,0.5348358
1604,A,18385551461386,-2.4494476,5.297592,-0.05152893,0.6131134,-0.19216919,0.43484497
1604,A,18385601815390,-2.4722748,5.5270844,0.52082825,0.26309204,0.14016724,0.069747925
1604,A,18385652169394,-2.4198914,5.8252563,-0.084609985,-0.13175964,-0.24728394,-0.036483765
1604,A,18385702523398,0.67214966,8.170486,1.5598297,0.20521545,-0.9674225,0.08126831
1604,A,18385752877402,6.1880493,12.470825,3.4648285,0.7375183,-0.7803345,-0.6456604
1604,A,18385803231406,1.9501953,10.571854,2.931778,0.13179016,-1.4234161,-0.7317352
1604,A,18385853585409,0.10159302,14.006393,2.9177551,-0.04524231,-0.73950195,-0.660614
1604,A,18385903939413,-0.08729553,8.034882,1.0724792,0.16160583,-0.5935211,-0.98542786
1604,A,18385954293417,0.92593384,9.662415,-2.7340088,0.47299194,-0.7852478,-0.88920593
1604,A,18386004647421,1.0486755,12.232834,-1.3454437,0.6985779,-0.8798218,-0.42037964
1604,A,18386055001425,-0.35073853,9.8965,-2.1243134,0.46313477,-0.72361755,-0.64312744
1604,A,18386105355429,2.2124634,9.977356,-1.5645752,0.11668396,-0.5392914,-0.776001
1604,A,18386155709433,2.7415924,8.108658,-0.0031433105,-0.16744995,-0.21896362,-0.6860962
1604,A,18386206063437,1.4038849,7.4961853,-0.34529114,-0.22610474,0.31072998,-0.35494995
1604,A,18386256417441,1.1314087,8.910629,-0.2756195,-1.1281128,0.59132385,0.5820923
1604,A,18386306771445,1.1235962,9.526474,-0.8165741,-2.2792969,0.40631104,1.4251556
1604,A,18386357125449,2.530899,10.170242,-1.7204895,-1.72966,-0.27391052,1.387558
1604,A,18386407479452,3.8621979,12.698166,0.045043945,-0.5088043,-0.28494263,1.2976532
1604,A,18386457833456,0.9416199,13.545868,2.1693726,-0.5245056,0.44639587,1.3204346
1604,A,18386508187460,-3.2272644,14.881409,1.2700958,-0.37672424,0.70806885,1.0036163
1604,A,18386558541464,-1.9766693,14.34523,0.32650757,0.44084167,0.8487091,0.61499023
1604,A,18386608895468,1.4780731,10.313034,-1.3352966,1.1714478,0.8136139,0.16517639
1604,A,18386659249472,0.22990417,7.2312164,-1.3462982,1.2624054,0.341568,-0.2788391
1604,A,18386709603476,-0.7562103,5.673538,0.061798096,0.4225006,0.6378937,-0.22088623
1604,A,18386759957480,-0.77116394,4.502823,0.5639801,0.19116211,0.6491089,-0.13572693
1604,A,18386810311484,0.8068085,5.1223907,1.0323486,0.7372589,0.2397461,-0.18965149
1604,A,18386860665488,3.797226,9.52742,3.1204681,0.3322754,-0.93263245,-0.08369446
1604,A,18386911019491,1.9913177,10.858078,4.9743805,-0.092300415,-0.3024292,-0.94132996
1604,A,18386961373495,-0.12954712,8.785095,0.8719635,0.2818756,0.36091614,-1.4176636
1604,A,18387011727499,2.8441315,15.621948,1.1588593,0.13349915,-0.22509766,-0.5345001
1604,A,18387062081503,-1.1404114,8.245071,0.14195251,1.161087,0.6920929,-0.54359436
1604,A,18387112435507,-0.24255371,10.449493,-2.5484161,1.06073,0.25750732,-0.30570984
1604,A,18387162789511,0.94937134,8.156479,-2.0117645,0.56433105,-0.16485596,-0.43273926
1604,A,18387213143515,0.5829468,8.579071,-1.9234314,0.34066772,-0.02279663,-0.607605
1604,A,18387263497519,2.35849,9.372559,-1.1864166,0.17355347,-0.015625,-0.8418579
1604,A,18387313851523,1.276886,9.281464,-0.475708,0.18888855,0.33631897,-0.52879333
1604,A,18387364205527,0.44973755,8.703018,-1.0370026,-0.69425964,0.11073303,0.22766113
1604,A,18387414559531,0.7123413,9.975464,-0.73706055,-2.0936432,-0.45677185,1.2013245
1604,A,18387464913534,1.0503693,9.753204,-2.208786,-1.8885345,0.22721863,1.3802795
1604,A,18387515267538,2.6407013,11.931046,-2.1174774,-1.1284485,-0.57048035,1.5293121
1604,A,18387565621542,1.6660156,13.901474,1.6829071,-0.5209198,-0.64027405,1.7835388
1604,A,18387615975546,-1.8173523,10.283783,2.3025055,-0.16323853,0.82344055,1.6216431
1604,A,18387666329550,-0.256958,16.181046,0.41506958,0.44084167,0.6103668,0.6890564
1604,A,18387716683554,-0.40356445,12.120132,3.1560059,0.8338165,0.9972687,-0.4607849
1604,A,18387767037558,1.2800293,10.716049,3.900238,1.2246094,0.67037964,-1.1850433
1604,A,18387817391562,-1.5061188,6.6728516,-0.051589966,0.8060608,0.5371704,0.062927246
1604,A,18387867745566,-1.0539398,3.2901154,-0.36628723,-0.45733643,0.66238403,0.22114563
1604,A,18387918099570,-2.5299835,3.045639,0.23953247,0.55255127,0.5805054,-0.68756104
1604,A,18387968453574,0.101760864,6.192734,0.8514252,-0.25354004,-2.1473236,0.350708
1604,A,18388018807577,9.082382,19.58281,2.7303467,0.17094421,0.58584595,-1.1810303
1604,A,18388069161581,-1.2391663,7.408783,1.3381195,0.2355957,-1.2557983,-0.93144226
1604,A,18388119515585,2.0354767,12.135269,1.0562744,-0.32521057,-0.3169403,-0.49256897
1604,A,18388169869589,-2.7219849,4.639023,-2.4241638,0.8889618,-0.33369446,-0.6291504
1604,A,18388220223593,0.4646759,8.951447,-2.8244019,1.6059875,-0.31417847,-0.34609985
1604,A,18388270577597,1.8852386,9.44043,-1.6745758,0.4651184,-0.37478638,-0.5723572
1604,A,18388320931601,1.243393,10.843613,-2.6504211,0.39646912,-0.38949585,-0.8690796
1604,A,18388371285605,1.2638702,8.91803,-0.44377136,0.20741272,-0.14691162,-0.979126
1604,A,18388421639609,0.84529114,8.031372,-0.29447937,0.2807312,0.22839355,-0.53456116
1604,A,18388471993613,0.87457275,8.817596,-0.30488586,-0.54455566,0.6877289,-0.22193909
1604,A,18388522347616,1.8773346,9.152786,-0.7601013,-1.961731,0.7602234,0.62734985
1604,A,18388572701620,2.2279968,9.509384,-1.6336365,-2.496231,0.88290405,0.9164429
1604,A,18388623055624,1.018692,11.514481,-1.4360352,-1.4758911,-0.42985535,1.1980286
1604,A,18388673409628,0.97299194,14.743988,-0.286438,-0.66256714,-0.73651123,1.3307648
1604,A,18388723763632,-0.46305847,12.342361,0.24224854,0.17622375,-0.23309326,1.6989288
1604,A,18388774117636,-0.91467285,10.947403,0.1949768,0.45576477,0.5345154,1.4229279
1604,A,18388824471640,-1.811615,11.917755,0.38957214,0.9155426,0.62091064,0.66856384
1604,A,18388874825644,-1.2022552,9.045166,1.3858337,1.1694336,0.30441284,-0.111831665
1604,A,18388925179648,-0.10127258,7.3246613,0.9212036,0.8588867,0.63594055,-0.23072815
1604,A,18388975533652,-1.4320068,5.962143,-1.4198303,0.17288208,0.7132263,-0.024017334
1604,A,18389025887656,-1.0746613,4.511978,-0.08027649,-0.07144165,0.7683563,-0.22711182
1604,A,18389076241659,0.17668152,6.825119,1.6889954,0.12814331,-0.17651367,-0.19520569
1604,A,18389126595663,3.8215942,11.919815,2.7377777,-0.18251038,-0.5559845,-0.5186157
1604,A,18389176949667,4.2153015,11.998322,3.338684,0.10209656,0.07342529,-1.0549011
1604,A,18389227303671,1.3642426,9.432419,0.91830444,0.27000427,-0.4537964,-0.7059479
1604,A,18389277657675,-0.0043029785,9.825653,-1.806488,0.79408264,-0.22587585,-0.7179718
1604,A,18389328011679,-0.8955078,9.474579,-3.4026031,1.24086,0.052856445,-0.6321106
1604,A,18389378365683,0.4109192,10.640625,-3.020874,0.5853882,-0.5411835,-0.48957825
1604,A,18389428719687,0.52737427,9.506577,-2.7954865,0.20674133,-0.5924072,-0.755661
1604,A,18389479073691,0.9701843,9.14267,-2.0750122,0.26464844,-0.07322693,-0.9185791
1604,A,18389529427695,1.3592834,8.958282,-0.51309204,0.23197937,0.2195282,-0.63616943
1604,A,18389579781699,1.2724457,8.793564,-0.16835022,-0.504303,0.5960846,-0.25987244
1604,A,18389630135702,1.7820435,9.210297,-0.6897583,-1.6912994,0.757782,0.44122314
1604,A,18389680489706,2.879654,9.321121,-1.5991058,-2.0540466,0.46624756,1.2002411
1604,A,18389730843710,2.3003235,11.571564,-1.5883331,-1.3676453,0.20939636,1.222992
1604,A,18389781197714,2.2174377,13.795471,-0.525589,-0.842926,-0.043823242,0.8175812
1604,A,18389831551718,0.3527069,12.1931,0.9398804,-0.25177002,-0.09008789,1.396759
1604,A,18389881905722,-2.9477844,12.389847,0.48953247,0.026931763,0.40197754,1.2084045
1604,A,18389932259726,-1.9315186,11.950775,0.16537476,0.50138855,0.2544403,0.54112244
1604,A,18389982613730,-0.1084137,10.447357,1.817749,1.0445404,0.31098938,-0.109939575
1604,A,18390032967734,-1.956543,7.842514,0.70428467,0.8928528,-0.2069397,-0.11842346
1604,A,18390083321738,-1.8444061,6.010193,-0.33665466,0.055130005,-0.44979858,0.24285889
1604,A,18390133675741,-2.1037292,4.478195,0.33370972,-0.057052612,-0.09156799,-0.17811584
1604,A,18390184029745,-0.32676697,6.0394745,0.3139038,-0.27853394,-1.6766052,-0.07373047
1604,A,18390234383749,3.94693,13.5082245,4.792557,0.4367981,-0.0023651123,-0.7092438
1604,A,18390284737753,2.9622803,12.272446,4.9103394,0.66189575,-1.421875,-1.1170502
1604,A,18390335091757,1.297409,10.520035,1.4517212,-0.23506165,-1.4543457,-0.2679596
1604,A,18390385445761,-2.2866058,7.715561,-1.802536,-0.07992554,0.40507507,-1.2333069
1604,A,18390435799765,1.2858734,5.762802,-4.348114,1.2775269,0.10159302,-0.6048889
1604,A,18390486153769,2.122284,15.841202,-2.9952545,0.5114136,-0.105651855,-0.48538208
1604,A,18390536507773,-0.06347656,9.327072,-3.3456573,0.26211548,-0.041412354,-0.9367523
1604,A,18390586861777,2.7233887,8.991577,-3.378662,0.23509216,0.15252686,-1.0974121
1604,A,18390637215781,1.764801,8.186203,0.09983826,0.3995514,0.6399231,-0.5655823
1604,A,18390687569784,0.08505249,8.137238,0.20437622,-0.32032776,1.0470123,-0.06430054
1604,A,18390737923788,1.3885193,8.848389,-1.2608643,-1.7280731,1.078659,0.74780273
1604,A,18390788277792,2.9192657,9.212799,-2.4364624,-2.505371,1.0823517,1.3579407
1604,A,18390838631796,3.023178,12.313034,-2.1562958,-1.5113983,0.24316406,1.6332855
1604,A,18390888985800,0.021240234,15.2374115,2.1869965,-0.49873352,0.5642853,1.1559601
1604,A,18390939339804,-0.87812805,9.681503,1.9007568,0.41896057,0.60087585,1.9429932
1604,A,18390989693808,-1.8450928,12.482941,-1.5943146,0.30207825,1.2372894,0.75608826
1604,A,18391040047812,-0.54904175,14.276428,1.2824402,0.5470276,1.0200958,0.22723389
1604,A,18391090401816,0.5378113,9.878571,1.0583191,0.9078064,0.6732483,-0.24954224
1604,A,18391140755820,0.38771057,9.036438,-0.3115387,0.7990875,0.26167297,-0.22857666
1604,A,18391191109824,-2.805542,5.575836,-1.2433472,-0.0029144287,0.005645752,0.30036926
1604,A,18391241463827,-2.813675,3.7174072,0.3856659,-0.23564148,0.15852356,0.3444519
1604,A,18391291817831,-1.601181,5.9052887,-0.0074005127,-0.009490967,-0.18208313,0.3534546
1604,A,18391342171835,1.6830444,11.220535,3.0522308,0.13703918,-1.5865173,-0.087387085
1604,A,18391392525839,2.6086884,12.379837,3.9197083,0.40774536,-0.46162415,-1.1386261
1604,A,18391442879843,-0.08477783,11.368881,0.206604,-0.1269989,-1.3054047,-0.7867737
1604,A,18391493233847,3.4012299,13.762802,0.62117004,-0.12376404,-0.69363403,-0.93081665
1604,A,18391543587851,-5.9114227,5.104553,-0.7007446,0.7077942,-0.45388794,-1.0115051
1604,A,18391593941855,3.214035,14.749405,-6.5994873,1.3955688,-0.5297241,-0.42951965
1604,A,18391644295859,0.16261292,8.380783,-0.6435089,0.50665283,-0.28433228,-0.6000824
1604,A,18391694649863,1.8507538,10.343979,-2.6190033,0.14381409,-0.18328857,-0.7764435
1604,A,18391745003866,2.528595,8.305344,-0.39845276,0.19668579,0.277359,-0.7736511
1604,A,18391795357870,1.0002594,7.2791443,0.02999878,0.1690979,0.328125,-0.54481506
1604,A,18391845711874,1.5116272,8.172348,-0.21292114,-0.42616272,0.39831543,-0.4751587
1604,A,18391896065878,2.2469177,9.581985,-0.68110657,-1.7048035,0.581604,0.40625
1604,A,18391946419882,1.5875854,9.859879,-2.3207245,-2.4472656,0.10499573,1.3292389
1604,A,18391996773886,0.77445984,11.971909,-2.8318481,-1.6664124,-0.23202515,1.2144623
1604,A,18392047127890,1.1103516,13.083313,-0.8162689,-0.5321045,-0.07803345,1.5268097
1604,A,18392097481894,0.1867981,11.285873,0.88793945,-0.011749268,0.08491516,1.6780548
1604,A,18392147835898,-2.6066742,13.428146,1.6219177,0.17645264,0.6782532,0.9790039
1604,A,18392198189902,-1.6847229,14.118729,1.1929321,0.75157166,0.86172485,0.4281006
1604,A,18392248543906,0.19432068,11.71846,0.8842926,1.1994171,0.9215698,-0.1701355
1604,A,18392298897909,-0.089767456,8.940475,-0.46736145,0.8942566,0.7480316,-0.21372986
1604,A,18392349251913,-1.2145844,5.8019714,-0.41703796,0.045913696,0.6085968,0.110580444
1604,A,18392399605917,-1.6377716,3.5799713,-0.3083496,-0.046218872,0.5274811,0.15760803
1604,A,18392449959921,-0.6472473,3.730774,0.25231934,-0.017196655,-0.79515076,0.40464783
1604,A,18392500313925,4.669464,13.098618,3.5631714,0.4270172,-0.83488464,-0.216568
1604,A,18392550667929,1.9895935,14.103806,3.636261,0.43585205,-1.2835083,-0.51301575
1604,A,18392601021933,1.536438,15.652405,1.249527,0.0056762695,-0.49830627,-0.9867859
1604,A,18392651375937,-2.8020477,5.308777,0.9480133,0.18685913,-0.08781433,-1.4419098
1604,A,18392701729941,-0.12437439,9.748535,-2.9735565,0.6540222,-0.517746,-1.0640106
1604,A,18392752083945,0.021362305,10.953217,-0.99624634,0.9684448,-0.57347107,-0.3378601
1604,A,18392802429117,-1.1208649,10.006088,-1.4542847,0.42033386,-0.4684143,-0.42668152
1604,A,18392852783120,1.3484955,9.682678,-1.8335724,0.5027771,-0.10241699,-0.8684082
1604,A,18392903137124,1.9053497,7.8773804,-0.649292,0.3577423,0.32107544,-0.9465027
1604,A,18392953491128,1.0332947,7.7473297,0.13423157,0.23458862,0.08383179,-0.3049469
1604,A,18393003845132,1.2038727,8.721558,-0.5475769,-1.065155,0.5350189,-0.051849365
1604,A,18393054199136,1.6717224,9.32872,-0.35383606,-1.9410706,0.6853943,0.8687439
1604,A,18393104553140,1.9026947,9.54393,-0.548645,-1.5578003,0.49328613,1.2107544
1604,A,18393154907144,-0.1708374,13.026627,-0.41738892,-0.95132446,-0.59376526,1.1520386
1604,A,18393205261148,0.9745941,13.558716,-0.6019287,-0.2715912,-0.059890747,1.2972565
1604,A,18393255615152,-2.2613068,11.63472,1.28685,-0.31921387,0.57740784,1.1276245
1604,A,18393305969156,-1.2246399,11.8315735,0.9675293,0.006790161,0.49731445,0.84606934
1604,A,18393356323159,-1.2720184,12.371048,1.1603241,0.5478668,0.5968323,0.24810791
1604,A,18393406677163,-0.75387573,11.312805,-0.30967712,1.0402832,0.42485046,-0.363266
1604,A,18393457031167,-1.6513824,8.087051,-0.26324463,1.0267487,0.35079956,-0.6069031
1604,A,18393507385171,-0.532959,4.9039,-0.28833008,-0.3890686,0.64349365,0.4476776
1604,A,18393557739175,-1.4661713,3.0964508,-0.30723572,-0.25187683,0.48501587,0.62594604
1604,A,18393608093179,1.1161957,4.8899384,0.7736206,0.21600342,-0.33735657,-0.25631714
1604,A,18393658447183,5.4449005,14.707611,5.278427,0.404068,-1.3517609,-0.9245453
1604,A,18393708801187,-0.1945343,13.637253,3.6309357,0.026733398,-0.47138977,-0.79441833
1604,A,18393759155191,2.045456,19.594666,2.627304,0.030212402,-1.1965027,-1.3708801
1604,A,18393809509195,-7.590805,-4.8320465,-2.6364899,1.0331421,0.25984192,-0.97413635
1604,A,18393859863199,6.914673,19.331116,-5.609909,1.1501923,-0.75834656,-0.18869019
1604,A,18393910217202,-1.2357788,8.791687,-3.5167847,0.39059448,-0.34883118,-0.6069641
1604,A,18393960571206,1.7154388,10.314972,-2.3483276,0.17362976,-0.39814758,-0.7989807
1604,A,18394010925210,2.6527863,8.826233,-1.3464355,0.45300293,0.0026397705,-1.0606384
1604,A,18394061279214,0.43223572,8.171051,0.4965973,0.099105835,0.32893372,-0.494339
1604,A,18394111633218,1.3371582,8.793671,-0.71910095,-0.90623474,0.40223694,-0.04927063
1604,A,18394161987222,0.8170166,9.28627,-1.0704651,-2.396408,0.7012329,0.63298035
1604,A,18394212341226,2.4394226,10.484085,-1.2138977,-2.382141,0.13619995,1.0981293
1604,A,18394262695230,1.1761932,12.782043,-0.7098541,-1.0221863,-0.7866516,1.0256958
1604,A,18394313049234,-0.98786926,14.399719,1.2031555,-0.52020264,-0.30036926,1.0731049
1604,A,18394363403238,-1.1052856,12.3198395,1.7790375,-0.4418335,0.1603241,1.258255
1604,A,18394413757242,-4.0663605,13.643646,-0.9226837,-0.1240387,0.78092957,0.99461365
1604,A,18394464111245,-0.60305786,9.369858,0.9264374,0.13713074,0.65341187,0.66741943
1604,A,18394514465249,0.27282715,8.01944,0.82244873,0.7704315,0.044662476,0.63890076
1604,A,18394564819253,-1.020401,6.844208,0.057556152,1.111206,-0.45674133,0.42211914
1604,A,18394615173257,-1.6517487,6.6777344,0.8266907,0.959198,-0.3772583,-0.07563782
1604,A,18394665527261,-1.5913849,5.6797485,1.0337067,0.50823975,-0.986145,-0.042541504
1604,A,18394715881265,0.12799072,5.9505005,2.7231598,-0.04484558,-1.9224701,0.25483704
1604,A,18394766235269,3.8187103,8.328751,3.9034882,0.059173584,-2.4761505,-0.75982666
1604,A,18394816589273,2.3087769,12.748444,1.6867523,-0.22027588,-2.6866302,-1.08078
1604,A,18394866943277,-4.9412537,14.526627,-1.3657074,-0.33372498,-1.7042847,-1.1769867
1604,A,18394917297281,-4.626892,9.759277,-1.9455719,0.48368835,-1.478241,-0.90419006
1604,A,18394967651284,-1.7440186,11.136978,-2.7788544,0.91567993,-1.8415985,-0.4750824
1604,A,18395018005288,-1.0881348,9.298874,-1.6477051,0.20915222,-1.6229553,-0.4760437
1604,A,18395068359292,2.4458923,9.747314,-2.2407837,-0.3097229,-1.1236572,-0.82344055
1604,A,18395118713296,2.3314667,7.950302,-0.4976349,-0.29426575,-0.32408142,-0.6922302
1604,A,18395169067300,1.9683685,8.867584,0.91374207,0.33718872,0.17178345,-0.42237854
1604,A,18395219421304,2.015442,9.042664,0.12536621,0.27360535,0.60935974,-0.4041443
1604,A,18395269775308,3.2037354,9.090195,-0.64797974,-1.1445313,0.24023438,0.23846436
1604,A,18395320129312,3.3217468,9.088287,-1.4826508,-2.214264,-0.025360107,1.0823975
1604,A,18395370483316,1.5462036,10.524033,-1.5631409,-1.5127411,-0.116363525,1.1872559
1604,A,18395420837320,0.012954712,12.642532,-0.08503723,-0.18795776,-0.12034607,1.0765839
1604,A,18395471191324,-1.0049744,12.717163,1.1685181,-0.06556702,0.34725952,1.2536621
1604,A,18395521545327,-1.7034912,11.994614,2.6951141,0.17092896,0.7600403,1.2567444
1604,A,18395571899331,-1.730133,11.0186615,1.2805481,0.61520386,1.1136017,0.6851349
1604,A,18395622253335,1.3686523,9.888275,-0.94662476,0.93466187,0.7235718,0.49414063
1604,A,18395672607339,-0.07537842,7.164337,0.64286804,0.7329407,0.5204468,0.051879883
1604,A,18395722961343,-0.6949463,5.928253,0.6870575,0.26704407,0.15390015,-0.018692017
1604,A,18395773315347,-2.1029358,4.724472,-0.002532959,0.4512024,-0.13853455,-0.39494324
1604,A,18395823669351,1.4099884,7.385605,0.08517456,-0.010040283,-0.8421478,-0.012084961
1604,A,18395874023355,2.911026,11.297821,2.385559,0.15605164,-0.39387512,-0.6131592
1604,A,18395924377359,2.4764557,9.8004,2.7263794,0.104904175,-1.7751465,-0.88116455
1604,A,18395974731363,-0.45028687,8.684967,0.22085571,-0.14341736,-1.2479095,-0.2748108
1604,A,18396025085367,0.14768982,14.37558,2.7219849,0.2509613,-1.123291,-0.75697327
1604,A,18396075439370,-0.6292114,6.7897034,-2.8556824,0.73991394,-0.30900574,-0.9924774
1604,A,18396125793374,1.0636139,14.061737,-0.51179504,0.76182556,-1.0552216,-0.37625122
1604,A,18396176147378,-0.16047668,12.344955,-3.3528748,0.2705841,-0.96546936,-0.44335938
1604,A,18396226501382,0.2814026,8.991837,-2.160324,0.24137878,-0.40679932,-0.79216003
1604,A,18396276855386,2.4347076,8.275558,-2.029831,-0.18856812,0.016906738,-0.85969543
1604,A,18396327209390,1.270752,8.354431,-0.38874817,0.17630005,0.110305786,-0.54519653
1604,A,18396377563394,2.1469269,8.534348,-0.8707428,0.08332825,0.6617279,-0.12789917
1604,A,18396427917398,1.2667236,10.670578,-0.081451416,-1.7528839,0.37753296,0.9563904
1604,A,18396478271402,1.5390778,8.3012085,-1.3994904,-2.9706116,0.19515991,1.3147583
1604,A,18396528625406,2.7858734,11.016647,-3.047943,-1.1923676,-0.11558533,0.9225006
1604,A,18396578979409,1.2179108,15.055649,0.73594666,-0.2906189,-0.55178833,1.4456482
1604,A,18396629333413,-1.3672943,11.673767,1.906723,-0.5243683,0.25178528,1.3280792
1604,A,18396679687417,-3.7235565,12.661987,-0.48667908,0.03425598,0.4992218,0.99105835
1604,A,18396730041421,-0.39178467,10.73848,-0.4362793,0.7854309,0.4467163,0.18740845
1604,A,18396780395425,1.079422,9.112228,0.38220215,1.1946716,0.8637085,-0.26889038
1604,A,18396830749429,-0.9142151,6.0862274,-1.2917786,0.6601105,0.26141357,-0.21748352
1604,A,18396881103433,-0.39163208,5.8101044,0.19851685,-0.59394836,0.42358398,0.6233978
1604,A,18396931457437,-1.4432983,4.0230865,1.2850342,-0.098587036,-0.20965576,-0.05256653
1604,A,18396981811441,1.1435242,6.7868958,1.01651,0.9607849,-1.1578674,-0.99009705
1604,A,18397032165445,5.1349945,15.146957,4.024872,0.7063141,-1.3409729,-0.9678345
1604,A,18397082519449,1.4661255,15.800461,1.5825653,0.023361206,0.10723877,-1.2563477
1604,A,18397132873452,-2.6291046,-1.8938599,0.22315979,0.7252197,0.26950073,-0.8921356
1604,A,18397183227456,-0.47906494,17.030685,1.184967,0.24662781,-0.8548584,-0.65000916
1604,A,18397233581460,-1.1074524,6.8156433,-1.7095642,1.2312164,0.056030273,-0.40249634
1604,A,18397283935464,0.4260559,10.710449,-2.4423828,0.5214844,-0.29263306,-0.56399536
1604,A,18397334289468,0.32279968,7.182083,-1.317215,0.40785217,-0.4427185,-0.793869
1604,A,18397384643472,3.0036163,10.340652,-0.76086426,0.14201355,-0.112472534,-0.776886
1604,A,18397434997476,0.9842529,8.456284,-0.4083557,0.0018615723,0.43945313,-0.06925964
1604,A,18397485351480,0.01159668,9.161911,-0.800827,-0.8371582,0.46006775,0.7063751
1604,A,18397535705484,0.79504395,9.807816,-1.138092,-2.5682983,0.23025513,0.87875366
1604,A,18397586059488,1.8587494,10.309799,-1.8116913,-2.3504028,0.67552185,1.2051697
1604,A,18397636413492,2.9389496,13.846817,-1.3690491,-0.76802063,0.708374,1.0586853
1604,A,18397686767495,1.5471039,15.439301,0.8001251,0.03164673,0.7110748,1.4646912
1604,A,18397737121499,-0.47297668,12.588287,1.2889252,-0.116760254,1.6485748,1.3450165
1604,A,18397787475503,-1.5122986,11.472153,0.57162476,0.4051361,1.380539,0.88150024
1604,A,18397837829507,1.2805481,9.205948,-1.6582642,0.90470886,1.0280304,0.41688538
1604,A,18397888183511,-1.4122772,8.025558,-1.7059631,1.0303802,0.90808105,0.0605011
1604,A,18397938537515,-2.4085846,6.4425354,-1.5932922,0.5578003,0.5250244,0.084747314
1604,A,18397988891519,-1.5983887,5.3504944,-0.41601563,0.16223145,0.4824524,0.12826538
1604,A,18398039245523,-0.57084656,5.6117096,-0.51153564,0.15208435,0.23539734,0.049194336
1604,A,18398089599527,1.4377899,9.658295,1.6234436,0.11564636,-0.9486542,-0.07318115
1604,A,18398139953531,1.8505859,12.294144,4.4272614,0.6014557,-0.6906738,-0.87072754
1604,A,18398190307534,1.3036804,10.211899,1.7628632,0.7649536,-1.0721283,-1.3505096
1604,A,18398240661538,1.701828,14.498444,1.481842,-0.18766785,-1.7819214,-0.62638855
1604,A,18398291015542,-3.5224152,6.4648743,0.15490723,-0.050201416,-0.7068176,-0.51509094
1604,A,18398341369546,-1.9666595,10.0746765,-3.5554352,0.97857666,-0.47094727,-0.27244568
1604,A,18398391723550,-0.014083862,9.183655,-2.0638885,0.8183899,-0.30763245,-0.39585876
1604,A,18398442077554,0.03652954,7.635132,-1.980072,0.31948853,-0.16920471,-0.71336365
1604,A,18398492431558,2.499817,10.003998,-1.2539978,0.1439209,0.030914307,-0.8946686
1604,A,18398542785562,1.6611176,9.079529,0.09983826,0.36193848,0.2429657,-0.51763916
1604,A,18398593139566,1.0053253,8.7173,-0.066848755,0.048187256,0.53863525,-0.27171326
1604,A,18398643493570,1.0667725,9.538376,-0.9978485,-1.0530701,0.79045105,0.21948242
1604,A,18398693847574,1.4131012,9.610123,-1.470993,-2.6971436,0.535202,1.0578918
1604,A,18398744201577,1.4348145,9.952103,-1.9955444,-2.1460266,-0.24945068,1.5778046
1604,A,18398794555581,0.5871887,12.836838,-0.73147583,-0.784317,-0.35284424,1.1211395
1604,A,18398844909585,1.0560608,12.572327,1.1721802,-0.36993408,0.8821106,1.6297607
1604,A,18398895263589,-2.007843,11.842621,2.0800781,-0.14387512,1.6046448,1.2751923
1604,A,18398945617593,-3.5349274,14.047363,0.8776398,0.62246704,1.6819458,0.42140198
1604,A,18398995971597,0.75808716,12.980942,3.9074554,1.4314117,1.2936096,-0.03703308
1604,A,18399046325601,-0.3030548,7.7492065,-0.15037537,1.7483063,0.48640442,-0.36367798
1604,A,18399096679605,-0.90078735,4.851074,-0.06829834,-0.42037964,0.80371094,0.12214661
1604,A,18399147033609,-1.580658,2.4250946,-1.5892334,-0.12348938,0.8016968,-0.0843811
1604,A,18399197387613,-1.0063782,3.7686615,-0.47860718,9.460449E-4,-1.5680695,1.0206146
1604,A,18399247741617,2.5965881,11.572845,1.83992,0.16625977,0.06314087,-0.7996979
1604,A,18399298095620,-0.4822235,13.580765,8.198166,1.2207031E-4,0.56318665,-1.4363556
1604,A,18399348449624,-1.1786957,15.762497,-1.3916168,0.22888184,-0.85372925,-0.30259705
1604,A,18399398803628,5.5950317,16.209167,3.0781708,0.7624054,-1.5661469,-0.27746582
1604,A,18399449157632,-3.1728058,3.3298798,-4.219681,1.7052002,-0.06777954,-0.767746
1604,A,18399499511636,1.6396027,17.813736,1.4043427,0.61164856,-0.5702362,-0.47351074
1604,A,18399549865640,-0.969635,5.618622,-3.0923615,0.35658264,-0.35920715,-0.5752411
1604,A,18399600219644,-0.73812866,9.725601,0.89575195,0.19520569,0.061309814,-0.7822113
1604,A,18399650573648,2.3980865,8.821396,-0.7640381,0.08590698,0.66296387,-0.61198425
1604,A,18399700927652,2.2703247,8.565079,0.24224854,-0.20872498,0.10824585,-0.17262268
1604,A,18399751281656,1.8809204,8.882248,-0.61239624,-1.3641968,0.7734833,0.47068787
1604,A,18399801635659,1.626297,8.886215,-0.8657837,-2.0884247,0.36558533,1.2790833
1604,A,18399851989663,1.4565887,10.6015625,-1.5288391,-1.0270538,0.0539093,1.6707306
1604,A,18399902343667,-0.0054016113,14.569412,-1.829483,-0.5707245,0.32078552,0.91607666
1604,A,18399952697671,2.0749817,14.192841,0.8061218,-0.6879883,0.6486664,1.0944824
1604,A,18400003051675,-2.248764,11.641144,0.58828735,-0.3196106,0.6422577,0.90600586
1604,A,18400053405679,-1.5284119,14.646652,0.40516663,0.15948486,0.4226532,0.1681366
1604,A,18400103759683,0.68891907,10.560425,1.4768219,0.5842285,0.43643188,-0.10549927
1604,A,18400154113687,-3.2245178,7.4371796,-0.12399292,0.6355438,-0.3709259,0.17182922
1604,A,18400204467691,-2.4446259,4.8943787,-1.1179657,0.11836243,-0.2423706,0.585022
1604,A,18400254821695,-1.6134796,4.3255615,0.5408325,0.2407074,-0.37852478,0.44612122
1604,A,18400305175699,0.5904083,6.208847,1.2284851,0.52523804,-1.6526489,0.30186462
1604,A,18400355529702,4.2531586,11.948227,3.6706238,0.54148865,-1.2294922,-0.9483185
1604,A,18400405883706,3.8922424,11.081284,3.2494507,0.29008484,-1.5525818,-1.2960052
1604,A,18400456237710,-0.117889404,12.11882,-0.22357178,0.06260681,-0.7588043,-1.6130524
1604,A,18400506591714,-0.03288269,11.151382,-0.2852173,0.18663025,-0.33761597,-1.2375488
1604,A,18400556945718,-0.6803894,9.832855,-2.4144745,0.9554138,-0.47450256,-0.63427734
1604,A,18400607299722,0.20425415,10.507309,-1.9913635,0.9699707,-0.69955444,-0.5511017
1604,A,18400657653726,1.977951,9.785477,-2.3510895,0.3837433,-0.644577,-0.8364868
1604,A,18400708007730,1.99469,8.328247,-1.2402039,0.38668823,-0.27902222,-0.8409729
1604,A,18400758361734,0.9416504,7.466873,-0.76368713,-0.08747864,0.15206909,-0.5484009
1604,A,18400808715738,0.48738098,7.944031,-0.45758057,-1.3573151,0.5430298,0.08894348
1604,A,18400859069742,0.92092896,8.587067,-0.8905792,-2.3992615,0.95487976,0.89450073
1604,A,18400909423745,1.6521759,10.1866,-0.93426514,-1.9606476,0.33451843,1.4726105
1604,A,18400959777749,2.719986,13.134506,-0.32476807,-0.7378082,-0.5641327,1.4695587
1604,A,18401010131753,2.0868835,12.970963,1.5653534,0.24783325,-0.320755,1.6871338
1604,A,18401060485757,-0.65937805,11.954117,-0.31678772,0.19448853,0.5094452,1.4030914
1604,A,18401110839761,-1.7010345,11.820816,-0.0010375977,-0.006713867,0.94487,0.60894775
1604,A,18401161193765,-1.1468201,11.443924,1.0686646,0.28152466,1.1210938,0.0867157
1604,A,18401211547769,0.7324219,10.787735,-0.01361084,0.6238556,0.72065735,-0.15600586
1604,A,18401261901773,-0.8621979,7.902878,-0.38238525,0.52890015,0.59783936,0.10032654
1604,A,18401312255777,-2.1007996,5.250931,0.25334167,0.12513733,0.3922882,0.6174164
1604,A,18401362609781,-1.477356,4.7191925,0.25935364,0.110946655,-0.13154602,0.012420654
1604,A,18401412963784,1.221283,6.807663,1.5461578,0.24186707,-0.7506714,-0.63438416
1604,A,18401463317788,3.1262054,10.014099,3.1399384,0.036880493,-1.0823517,-1.0082245
1604,A,18401513671792,5.0332947,16.231049,-4.9711456,0.01713562,-1.1079559,-1.4657288
1604,A,18401564025796,-1.4217529,7.76857,-4.8110657,0.27160645,-0.9143677,-1.1755676
1604,A,18401614379800,2.5127869,10.469101,-3.1963654,1.1474304,-0.484787,-0.7196045
1604,A,18401664733804,1.1470032,12.309662,-2.7737732,1.1994476,-0.80996704,-0.44200134
1604,A,18401715087808,0.43052673,11.165024,-1.6696167,0.83000183,-0.68704224,-0.70851135
1604,A,18401765441812,1.5442505,9.393799,-2.7976837,0.35705566,-0.60601807,-0.9138031
1604,A,18401815795816,1.6892242,8.0047,-1.8417358,0.3067932,-0.062347412,-0.81385803
1604,A,18401866149820,-0.03781128,7.210449,-0.48236084,-0.24447632,0.69132996,-0.35650635
1604,A,18401916503824,1.5003815,8.761856,-0.5525818,-0.8909607,0.6593628,0.2114563
1604,A,18401966857827,1.4871979,9.086899,-0.4542389,-2.0127869,0.484787,0.7993622
1604,A,18402017211831,2.733017,10.566177,-0.52578735,-1.8018799,0.9745331,1.471756
1604,A,18402067565835,1.7526855,14.198761,-0.7455902,-1.3725281,0.1275177,0.5782623
1604,A,18402117919839,-2.244751,14.26918,0.9225311,0.014053345,1.0370636,1.4329071
1604,A,18402168273843,-3.571106,11.967453,-0.9577942,-0.0385437,1.0368347,1.589508
1604,A,18402218627847,-2.5742188,12.738434,0.5004883,0.39233398,0.9916229,0.9024658
1604,A,18402268981851,-0.80181885,9.39827,0.60609436,0.6950073,0.8852539,0.20162964
1604,A,18402319335855,-1.7562408,7.4254456,-4.3382874,0.8919525,0.67126465,-0.14942932
1604,A,18402369689859,-1.8937836,5.59404,-0.34283447,0.36494446,0.41514587,0.058532715
1604,A,18402420043863,-0.39944458,4.630081,0.18930054,-0.17463684,0.7745514,0.42700195
1604,A,18402470397867,-0.42739868,5.06192,0.30062866,-0.266037,-1.0240173,0.24821472
1604,A,18402520751870,2.6630096,9.062988,3.0843964,0.22088623,0.0087890625,-1.4640503
1604,A,18402571105874,2.4057007,12.332855,5.0106506,-0.1003418,0.2766266,-1.5046539
1604,A,18402621459878,0.40402222,13.672043,1.2584686,0.61442566,-0.47869873,-0.6483612
1604,A,18402671813882,-3.265686,13.122131,3.222107,1.8617554,-0.05857849,-0.7458496
1604,A,18402722167886,-0.07531738,9.597092,-3.8937378,1.1087341,-0.7370758,-0.493515
1604,A,18402772538493,1.6953735,13.501343,-2.184372,0.49517822,-1.2724762,-0.7272949
1604,A,18402822892497,-0.5550995,6.7996826,-2.7142334,0.1425476,-0.78515625,-1.1725464
1604,A,18402873246501,-0.20726013,8.096222,-0.37722778,-0.0024719238,-0.069610596,-0.82318115
1604,A,18402923600505,-0.020706177,8.320633,-0.6995392,-0.618454,-0.035217285,-0.28205872
1604,A,18402973954509,-0.20109558,10.240692,-1.236023,-1.9955292,0.069000244,0.50180054
1604,A,18403024308512,2.081604,10.377579,-1.3166199,-2.6018372,0.3682251,1.616684
1604,A,18403074662516,4.922867,11.548737,-1.0221252,-1.4686737,0.28767395,1.3435822
1604,A,18403125016520,1.6010437,12.45015,0.4611206,-0.20394897,-0.3885498,1.6514893
1604,A,18403175370524,-2.5411072,11.799927,3.1342773,0.48162842,0.45965576,1.8477173
1604,A,18403225724528,-1.9544983,13.902954,2.7279205,-0.053955078,1.3721313,1.3121948
1604,A,18403276078532,-0.16427612,14.148453,0.49420166,0.2579193,1.3037109,0.7903137
1604,A,18403326432536,-2.7272034,9.347931,0.49754333,0.5476074,0.75361633,0.74194336
1604,A,18403376786540,0.027893066,5.674637,-1.6804657,0.6173706,0.16337585,0.45137024
1604,A,18403427140544,-2.3620453,5.74736,-0.83044434,0.6633148,0.20683289,0.084609985
1604,A,18403477494548,-2.7238464,4.5366974,1.2717285,0.6464844,-0.48535156,-0.1541748
1604,A,18403527848552,1.1867371,7.4481354,2.5175018,0.729599,-1.4134979,-0.7446594
1604,A,18403578202555,3.4049835,9.843567,4.1262817,0.539505,-1.6424255,-1.140686
1604,A,18403628556559,0.95417786,12.966064,3.1295013,0.028442383,-0.5550995,-1.0775299
1604,A,18403678910563,-0.05958557,11.69986,-0.72120667,0.37251282,-0.27407837,-1.0554504
1604,A,18403729264567,1.150589,10.468567,-2.9099426,1.1041565,-1.0124359,-0.66004944
1604,A,18403779618571,1.0859985,13.940216,-1.8521576,0.8635864,-0.966156,-0.4343109
1604,A,18403829972575,-1.009018,9.039688,-1.0245667,0.2398529,-0.7869415,-0.8079376
1604,A,18403880326579,0.77449036,8.403976,-0.404068,0.15965271,-0.42599487,-0.9884033
1604,A,18403930680583,0.605423,7.1380463,-0.4297943,0.022323608,0.3609619,-0.9125519
1604,A,18403981034587,0.016571045,8.546051,-0.32598877,-0.8972626,0.40257263,-0.29794312
1604,A,18404031388591,0.9556122,9.021912,-0.17149353,-2.0232391,0.5293884,0.78297424
1604,A,18404081742595,1.9999084,10.05307,-0.44604492,-2.3364258,0.57037354,1.4756622
1604,A,18404132096598,2.6308746,11.57193,0.26138306,-1.3226471,0.55096436,1.5401306
1604,A,18404182450602,2.0404358,11.695023,2.028595,-0.37165833,0.11663818,1.7981415
1604,A,18404232804606,-1.1383514,11.757187,2.7312622,-0.028503418,0.4684906,1.6899567
1604,A,18404283158610,-2.902954,14.24054,1.2193909,-0.025314331,1.2797699,1.185379
1604,A,18404333512614,-2.6561127,14.668442,0.6923218,0.21507263,1.5834045,0.5568695
1604,A,18404383866618,-0.21621704,11.293076,1.4477844,0.7520447,0.7227783,0.10757446
1604,A,18404434220622,-1.655777,7.137024,0.5628662,0.7537079,0.10671997,0.013259888
1604,A,18404484574626,-2.514328,4.9017487,-0.6439667,0.47480774,0.25003052,-0.08648682
1604,A,18404534928630,-2.3876953,3.5634766,-0.5843048,-0.3226776,-0.7532654,0.6624603
1604,A,18404585282634,2.036621,5.5642548,2.5391998,0.88020325,-0.77819824,-0.5193329
1604,A,18404635636637,3.2422028,10.858765,5.2378235,0.7563324,-1.6103058,-1.1176758
1604,A,18404685990641,1.270752,7.5728455,1.8391876,0.19664001,-1.5623474,-1.1892395
1604,A,18404736344645,2.6595917,17.067932,5.922165,0.09188843,0.25105286,-1.9467468
1604,A,18404786698649,-3.1275787,3.1170807,-4.000351,0.7326355,-0.8243408,-1.2966156
1604,A,18404837052653,3.8032837,16.471252,-2.0292969,1.3121643,-0.94999695,-0.20089722
1604,A,18404887406657,-0.6336365,9.297562,-2.923645,0.42744446,-0.21781921,-0.84732056
1604,A,18404937760661,1.298172,10.010925,-0.7165222,0.52415466,-0.36586,-0.5621643
1604,A,18404988114665,3.781067,8.67746,-2.7897797,0.048294067,0.35787964,-0.9045563
1604,A,18405038468669,0.06365967,7.294754,-0.51937866,-0.21629333,1.0044861,0.029067993
1604,A,18405088822673,2.6768494,8.326813,-0.17025757,-1.9604034,0.15818787,0.53855896
1604,A,18405139176677,0.6625519,10.005356,-0.28507996,-3.2428436,0.8016815,0.72198486
1604,A,18405189530680,0.5805359,9.233368,-2.1972656,-1.2208862,-1.1152496,1.3733978
1604,A,18405239884684,-1.512558,15.685638,-0.85388184,0.037094116,0.13529968,1.2065125
1604,A,18405290238688,-1.234909,14.37764,5.2698975,-0.08610535,1.0210114,1.7767029
1604,A,18405340592692,-3.2518768,9.842682,1.2877197,0.12211609,1.0949097,1.2335205
1604,A,18405390946696,-2.005066,11.989761,2.167572,0.7474518,1.0873871,0.59306335
1604,A,18405441300700,2.8371277,8.210114,-2.7083893,1.0444946,1.015625,0.48280334
1604,A,18405491654704,-0.42419434,5.745758,-1.8730774,0.5344696,0.6170807,-0.14645386
1604,A,18405542008708,-0.85891724,4.560364,-0.91160583,0.21507263,0.27474976,-0.31524658
1604,A,18405592362712,-1.8641663,4.4753265,0.561676,-0.40974426,-1.8389282,0.26586914
1604,A,18405642716716,1.6874695,9.074356,2.6071472,0.09547424,-1.4263,-1.1021118
1604,A,18405693070720,2.1291046,12.383957,4.032379,0.6726074,-1.710968,-1.6926575
1604,A,18405743424723,-1.655777,9.662308,-0.43070984,-0.42471313,-1.5894318,-0.75567627
1604,A,18405793778727,-2.4114227,10.080841,2.2931213,0.5212097,-0.63597107,-0.7604523
1604,A,18405844132731,-3.0215302,6.852844,-3.1500244,1.2321167,-0.4556427,-0.38200378
1604,A,18405894486735,1.2337799,13.5941925,-2.2638855,0.6444092,-0.3294983,-0.6652527
1604,A,18405944840739,1.2906799,9.727112,-3.000534,0.19868469,-0.254364,-0.9426422
1604,A,18405995194743,2.2441406,7.8981476,-0.39154053,0.060821533,0.33781433,-0.92414856
1604,A,18406045548747,0.76467896,7.7070313,-0.44657898,-0.4571228,0.8936615,0.030548096
1604,A,18406095902751,1.3248596,8.556381,-0.3337555,-2.1813354,0.68099976,0.93141174
1604,A,18406146256755,1.4640656,9.471451,-0.6749573,-2.4476929,-0.20603943,1.4008484
1604,A,18406196610759,1.7253723,10.799423,-0.91230774,-0.87527466,-0.14196777,1.2420807
1604,A,18406246964762,0.81507874,15.096909,0.48953247,-0.44024658,-0.20236206,1.0514069
1604,A,18406297318766,-0.57458496,14.377533,1.1920776,-0.25076294,0.53637695,1.3097687
1604,A,18406347672770,-3.6177826,10.995773,1.1156769,0.25,1.111969,1.1151581
1604,A,18406398026774,-0.90393066,13.183731,2.2905731,0.7846985,1.2210846,0.5302429
1604,A,18406448380778,-0.18795776,8.53183,1.9997559,0.8820343,0.98031616,0.20454407
1604,A,18406498734782,-1.8391418,4.643463,-0.10542297,0.3032837,0.5761261,0.03050232
1604,A,18406549088786,-1.5934143,4.022705,-0.276062,-0.0178833,0.3458557,0.13981628
1604,A,18406599442790,-1.0054321,5.061493,-0.046691895,0.17364502,-0.16374207,-0.1499939
1604,A,18406649796794,1.4553528,10.121429,2.9331665,0.4050598,-0.43206787,-0.7200165
1604,A,18406700150798,1.4723969,12.379532,4.7085114,0.41085815,-1.0526581,-0.88116455
1604,A,18406750504802,0.91882324,14.216629,1.0474548,0.23797607,-1.2802124,-0.76719666
1604,A,18406800858805,-1.8795471,8.828049,-2.3459778,0.48280334,-0.36457825,-1.1033173
1604,A,18406851212809,-1.2840424,8.337524,-3.4006195,0.9615631,-0.3949585,-0.7926178
1604,A,18406901566813,0.86465454,12.681625,-1.6442261,0.93984985,-0.8283081,-0.4376831
1604,A,18406951920817,-0.9024353,11.313721,-1.1591492,0.5502167,-0.83296204,-0.6645355
1604,A,18407002274821,1.275238,11.123932,-1.6737823,0.47431946,-0.5250244,-0.8952484
1604,A,18407052628825,1.0867004,8.806427,-0.44674683,0.31539917,-0.022094727,-0.81243896
1604,A,18407102982829,0.91407776,7.5812683,-1.1787872,-0.5016327,0.55345154,-0.08581543
1604,A,18407153336833,2.1343842,7.6381226,-1.5023956,-1.8192444,0.18766785,1.3105927
1604,A,18407203690837,2.0916595,8.905853,-1.0247345,-2.1737976,0.9698334,1.5258942
1604,A,18407254044841,3.015335,10.42128,-1.5647125,-1.019867,0.39024353,1.4955139
1604,A,18407304398845,1.1414185,14.132172,0.13450623,-0.48094177,1.0735321,1.4149475
1604,A,18407354752848,-3.4459229,14.495483,2.4682617,-0.59754944,1.1490936,1.2858276
1604,A,18407405106852,-2.2018738,15.956848,-1.3804321,-0.4134674,1.0899353,1.0058136
1604,A,18407455460856,-1.0252228,13.624939,-0.0798645,0.146698,0.9318085,0.37561035
1604,A,18407505814860,-0.86172485,10.542297,-2.6270905,0.62493896,0.6409912,0.086624146
1604,A,18407556168864,-3.6547852,6.9761353,-0.4462738,0.8901825,0.14874268,-0.0036468506
1604,A,18407606522868,-1.6446075,4.4477997,-1.179657,-0.12437439,0.27627563,0.15054321
1604,A,18407656876872,-1.6908112,2.7178497,-1.102951,0.5166931,-0.24180603,-0.24156189
1604,A,18407707230876,0.1395874,5.8318024,0.5599365,-0.11639404,-2.0814362,0.51330566
1604,A,18407757584880,3.4728088,13.227478,5.8421326,0.48469543,-0.4721222,-0.93463135
1604,A,18407807938884,0.9784546,10.6171875,5.1080627,0.5552063,-2.582672,-0.78352356
1604,A,18407858292887,-2.06958,14.893051,-0.42390442,-0.005722046,-1.1032715,-1.1575165
1604,A,18407908646891,4.042145,16.2733,3.3769531,0.20428467,-1.0545654,-1.2200165
1604,A,18407959000895,-0.36828613,5.4628754,-4.236862,1.3028259,-0.318985,-0.77679443
1604,A,18408009354899,2.2972107,13.389267,-1.3540955,1.4237671,-0.7966156,-0.24879456
1604,A,18408059708903,-0.056533813,9.620728,-2.7024384,-0.047561646,-0.6313019,-0.7055664
1604,A,18408110062907,2.1333923,9.234268,-2.305954,0.25442505,-0.19458008,-1.0321503
1604,A,18408160416911,1.2496338,7.8690033,0.50297546,0.3438568,0.25912476,-0.7552948
1604,A,18408210770915,0.7338257,8.690109,0.1820221,0.114486694,0.46273804,-0.086135864
1604,A,18408261124919,1.6727753,9.249298,-0.3947754,-1.6660156,0.8070679,0.6054535
1604,A,18408311478923,1.3067169,8.919006,-0.6739807,-2.7280884,-0.12550354,1.4618835
1604,A,18408361832927,2.0113678,10.210373,-2.5834656,-1.3203583,0.25439453,1.921051
1604,A,18408412186930,-1.3969116,14.483948,-0.30519104,-0.7027283,0.472229,1.1104279
1604,A,18408462540934,-0.02571106,13.705475,-0.10890198,-0.9363098,0.66841125,1.2006226
1604,A,18408512894938,-3.0671387,10.4796295,0.069885254,-0.109817505,0.32052612,1.1157837
1604,A,18408563248942,-1.8226166,15.655777,-0.026412964,0.68577576,0.26560974,0.30485535
1604,A,18408613602946,1.5720825,10.938416,1.2000732,1.0648956,0.93673706,-0.377182
1604,A,18408663956950,-4.2707825,5.964386,-0.9119568,0.5692749,0.26950073,-0.2838745
1604,A,18408714310954,-0.6486511,4.1762085,-0.5352173,-0.17866516,0.49441528,0.24676514
1604,A,18408764664958,-1.0353546,2.9980621,1.4534912,0.06782532,0.04925537,-0.019805908
1604,A,18408815018962,1.5710144,6.0751495,1.4417572,-0.4272461,-1.4256287,-0.17073059
1604,A,18408865372966,4.241745,13.848724,5.861511,0.20730591,-0.13418579,-1.16539
1604,A,18408915726970,-1.0403442,11.631439,4.2507477,0.32374573,-0.6554718,-1.1397247
1604,A,18408966080973,0.17770386,14.561096,-1.942627,0.59039307,-1.1280212,-0.9010773
1604,A,18409016434977,-0.8757019,13.222092,2.6194153,1.2852783,-0.9972229,-0.51594543
1604,A,18409066788981,0.4106903,7.7366486,-3.6244507,1.3565674,-0.6566467,-0.6061859
1604,A,18409117142985,2.265976,11.679611,-2.3285675,0.47468567,-1.0193787,-0.6855316
1604,A,18409167496989,-0.4472351,7.572052,-0.45794678,0.40734863,-1.0285797,-0.66493225
1604,A,18409217850993,0.19303894,8.823639,-0.25914,0.31140137,-0.35005188,-0.7414398
1604,A,18409268204997,0.5735016,8.600388,-0.045013428,0.04724121,0.5197449,-0.443573
1604,A,18409318559001,0.8494415,8.769028,-0.18080139,-1.002182,0.8323822,0.19772339
1604,A,18409368913005,0.68800354,9.332077,-0.75883484,-2.4400024,0.78222656,1.075592
1604,A,18409419267009,2.1318512,10.281647,-1.9610443,-2.0637512,0.64256287,1.3696442
1604,A,18409469621012,1.5171509,13.299561,-0.9294281,-0.8564911,0.3768158,1.1432953
1604,A,18409519975016,-0.40893555,13.713425,0.46006775,-0.59399414,0.7216797,1.3294525
1604,A,18409570329020,-2.3475037,12.401367,0.110702515,-0.32850647,1.0506287,1.3877411
1604,A,18409620683024,-2.2240753,12.256348,1.0497589,0.2795105,1.0740967,0.9456787
1604,A,18409671037028,0.39305115,12.2074585,1.4283295,0.9369812,1.3366241,0.41848755
1604,A,18409721391032,-1.6385651,9.158844,-0.083099365,1.1968536,0.81018066,0.08757019
1604,A,18409771745036,-2.6744843,5.7373047,-0.7170563,0.27986145,0.79997253,0.063949585
1604,A,18409822099040,-1.9150543,3.588211,-0.6017761,0.6230316,0.29675293,-0.22233582
1604,A,18409872453044,-0.2429657,4.066437,-0.22209167,0.13117981,-1.023468,0.030838013
1604,A,18409922807048,3.5459137,12.029907,2.6484222,0.05467224,-0.7828827,-0.5365906
1604,A,18409973161052,1.9478607,11.4401245,4.3707275,0.38182068,-1.16008,-1.0458679
1604,A,18410023515055,-0.76794434,15.636642,-0.8903961,-0.17526245,-1.377121,-1.0393982
1604,A,18410073869059,-1.9066467,11.777191,-2.7655792,0.5193634,-1.2757721,-0.9537506
1604,A,18410124223063,-1.0042877,9.819412,-4.452774,1.524292,-1.006012,-0.71847534
1604,A,18410174577067,-0.47097778,11.262527,-2.8750763,1.0757141,-0.9216156,-0.4789734
1604,A,18410224931071,-0.19508362,10.166595,-2.0678558,0.3731842,-0.69262695,-0.77511597
1604,A,18410275285075,0.2871704,7.5090637,-0.12908936,0.292099,-0.064956665,-1.1148376
1604,A,18410325639079,1.1536255,7.536331,-0.8444214,0.5570984,0.48814392,-0.61061096
1604,A,18410375993083,1.8453522,9.133469,-0.2927246,-0.738327,1.1180267,-0.44348145
1604,A,18410426347087,1.8431244,9.130905,-0.6647186,-2.1508942,0.23693848,1.157486
1604,A,18410476701091,2.0223236,9.125366,-1.5726166,-2.3802795,0.50234985,2.0366058
1604,A,18410527055095,1.630127,12.2443695,-2.980423,-1.0051727,0.11160278,1.2145996
1604,A,18410577409098,3.1292114,15.225998,1.1091919,-1.0223999,-0.4935608,1.6105957
1604,A,18410627763102,-2.437378,13.661804,1.9446716,-0.77285767,1.0415192,1.3926392
1604,A,18410678117106,-4.5055084,15.973679,0.6300354,-0.106918335,0.5873413,0.7034302
1604,A,18410728471110,-2.618042,14.063553,2.8088531,0.7984314,1.2401428,0.044692993
1604,A,18410778825114,-1.8477631,8.931061,-1.0066986,1.4350891,0.45573425,-0.22221375
1604,A,18410829179118,-0.9929657,5.350937,-1.2317047,0.028717041,0.06889343,0.120391846
1604,A,18410879533122,-1.5106812,2.319046,0.07751465,0.40829468,0.3556671,-0.2718048
1604,A,18410929887126,-1.0121918,0.91874695,-1.1915283,-0.085617065,-2.7359161,0.4928894
1604,A,18410980241130,4.0272064,12.107849,4.0556946,0.13905334,-0.18011475,-0.96224976
1604,A,18411030595134,-0.25761414,13.246017,7.206009,0.53715515,-1.6455994,-1.0329437
1604,A,18411080949137,-3.8759766,13.3185425,-3.7074432,0.13728333,-1.458435,-1.246582
1604,A,18411131303141,-2.4569397,19.155869,1.7181244,0.5609436,-1.2501068,-0.9523926
1604,A,18411181657145,-0.8988342,5.3545227,-5.2641296,1.2972412,-0.91293335,-0.41845703
1604,A,18411232011149,1.4499359,14.999771,-3.6199493,1.0316467,-0.9374237,-0.34835815
1604,A,18411282365153,0.5643616,8.559418,-0.6729126,0.11953735,-0.6382446,-0.6789093
1604,A,18411332719157,1.5240784,9.089661,-2.2334595,0.2278595,0.067733765,-0.92749023
1604,A,18411383073161,1.1750488,8.274277,0.5223236,0.2732544,0.23210144,-0.68000793
1604,A,18411433427165,1.6789093,9.088348,0.3580017,-0.30734253,0.32839966,-0.6033478
1604,A,18411483781169,1.555191,8.976273,-0.3384552,-1.7600708,0.53445435,0.27311707
1604,A,18411534135173,1.3997192,9.192184,-1.4749146,-2.4918976,0.45335388,1.3611755
1604,A,18411584489177,1.5159912,11.858475,-3.4129791,-1.4993896,0.48182678,1.5533905
1604,A,18411634843180,1.876358,15.574142,0.14045715,-0.8252106,-0.28279114,1.3235474
1604,A,18411685197184,1.5828552,13.16124,0.73373413,-0.5616455,0.018676758,1.564621
1604,A,18411735551188,-2.659317,12.317688,0.6596527,-0.06491089,0.8878784,1.0288544
1604,A,18411785905192,-1.579361,15.766647,0.3559265,0.53778076,1.036438,0.2852478
1604,A,18411836259196,-1.1927338,11.189087,1.8230743,1.158783,0.8493347,-0.087524414
1604,A,18411886613200,-2.0369568,7.3462067,-0.57733154,0.85946655,0.21478271,0.09106445
1604,A,18411936967204,-1.5432587,4.181839,-1.0544434,-0.1622467,0.5834503,0.22705078
1604,A,18411987321208,-2.0005035,2.9395905,-0.890213,-0.10079956,0.0899353,0.14305115
1604,A,18412037675212,0.09605408,6.4388275,1.1872864,0.34594727,-1.0763245,-0.15447998
1604,A,18412088029216,2.7557373,12.869751,5.98172,0.6985321,-0.5825043,-0.9359436
1604,A,18412138383220,0.100860596,11.471542,3.9448547,0.48918152,-0.93196106,-0.70129395
1604,A,18412188737223,-1.854187,12.585693,-0.410141,0.14085388,-0.90667725,-0.7995758
1604,A,18412239091227,-1.5745697,11.920395,1.1826019,0.57702637,-0.33059692,-0.760025
1604,A,18412289445231,0.8238373,8.261032,-2.637619,1.4331055,0.13432312,-0.46348572
1604,A,18412339799235,2.7309113,13.005417,-2.5815125,0.8535156,-0.57218933,-0.427063
1604,A,18412390153239,-0.4513092,8.797821,-2.2352905,0.20835876,-0.50645447,-0.7463074
1604,A,18412440507243,0.24293518,9.071869,-1.775528,0.32159424,-0.11903381,-0.8919678
1604,A,18412490861247,0.1816101,8.300919,-0.6734314,0.38349915,0.22906494,-0.6872406
1604,A,18412541215251,0.74523926,8.798523,-0.29190063,-0.17411804,0.64512634,-0.43225098
1604,A,18412591569255,1.2902222,9.160461,-0.5431671,-1.4485474,0.50561523,0.50538635
1604,A,18412641923259,0.98799133,8.942429,-1.4900055,-2.25354,0.11911011,1.391571
1604,A,18412692277262,0.86183167,11.364868,-2.2444763,-1.60849,0.2924347,1.583313
1604,A,18412742631266,1.5594635,14.493286,-0.6167755,-1.0954437,0.4519806,1.2743988
1604,A,18412792960504,-1.1969147,12.95755,2.032257,-0.8348236,0.7111511,1.3191528
1604,A,18412843314508,-3.6117096,12.091446,0.52175903,-0.36688232,0.702301,1.271286
1604,A,18412893668512,-2.8993683,13.362854,-0.10585022,0.3809204,0.8006134,0.5406494
1604,A,18412944022516,0.3701172,12.257919,-0.14530945,1.0348511,0.7881775,-0.071014404
1604,A,18412994376520,-2.0784607,7.2905426,-1.2670898,0.7852478,0.46987915,-0.06736755
1604,A,18413044730524,-1.6811829,4.212097,-1.2502289,-0.0023345947,1.0175018,-0.032730103
1604,A,18413095084528,-2.2337189,1.9050446,-0.991745,1.1234131,-0.20863342,-0.6796875
1604,A,18413145438532,1.1751862,5.3264008,0.94039917,0.22189331,-0.82777405,-0.1508789
1604,A,18413195792536,5.5120087,16.382965,4.4787903,0.09486389,-0.81825256,-1.1850281
1604,A,18413246146539,0.6712189,7.1808777,3.5225067,0.9511566,-0.5476074,-1.5459747
1604,A,18413296500543,-0.79078674,14.4655,4.018158,0.029418945,-1.0077972,-0.8109131
1604,A,18413346854547,-1.4671631,6.2270813,-3.452774,0.9174652,-0.35079956,-0.49891663
1604,A,18413397208551,-1.9658508,10.8685,-4.1282196,1.017456,-0.8875427,-0.24099731
1604,A,18413447562555,-2.1415253,7.2360535,-0.29135132,0.6730652,-0.94999695,-0.40274048
1604,A,18413497916559,0.28186035,10.0546875,-2.2975311,0.37677002,-0.71266174,-0.79034424
1604,A,18413548270563,0.9439697,8.091324,-1.5610352,0.22169495,0.04084778,-0.94026184
1604,A,18413598624567,0.6715393,7.691925,-0.7640228,-0.16738892,-0.020217896,-0.45396423
1604,A,18413648978571,0.48609924,8.612717,-0.5933075,-2.143158,0.6510925,0.34991455
1604,A,18413699332575,0.43252563,9.883926,-0.41123962,-2.7270203,0.7460022,1.0264282
1604,A,18413749686579,2.9450226,10.850723,-0.47306824,-1.6392517,0.34379578,1.9453125
1604,A,18413800040582,0.35650635,15.179291,0.37095642,-0.49850464,0.06715393,1.3890686
1604,A,18413850394586,1.5396423,14.764618,0.6861725,-0.7225189,1.1389313,1.5077362
1604,A,18413900748590,-1.9092865,11.749191,-1.2936554,-0.5265045,1.5753784,1.2238312
1604,A,18413951102594,-1.5691986,13.421753,-1.6748047,-0.0786438,1.1483154,0.58406067
1604,A,18414001456598,-0.627182,11.338013,3.9436188,0.77679443,0.98197937,0.14205933
1604,A,18414051810602,-1.2268372,8.088699,-0.84851074,1.3151093,0.2949829,-0.22659302
1604,A,18414102164606,-2.2042542,5.6657715,-2.5107727,0.9004059,0.24536133,-0.082977295
1604,A,18414152518610,-2.2380066,3.0069427,0.6821747,-0.22042847,0.59783936,0.13400269
1604,A,18414202872614,-2.2321777,5.0062866,-1.0188293,0.611496,0.40708923,-0.11302185
1604,A,18414253226618,1.0526581,7.661789,1.6149445,0.20310974,-1.4244385,-0.22109985
1604,A,18414303580621,5.408676,18.342041,5.6935577,0.77334595,-0.5706787,-1.18013
1604,A,18414353934625,-0.4890747,9.440033,3.0055237,0.553772,-0.9286957,-1.3072815
1604,A,18414404288629,2.5738525,7.9516296,0.07376099,0.25360107,-0.06956482,-1.0991211
1604,A,18414454642633,-2.419815,11.411987,-1.1166534,1.0938416,-0.7267761,-0.8794861
1604,A,18414504996637,-1.1033936,8.8875885,-6.019684,1.3608246,-0.5925751,-0.1712799
1604,A,18414555350641,-0.5537262,11.4457855,-1.4969177,0.30482483,-0.6247711,-0.5256958
1604,A,18414605704645,0.69895935,7.588623,-3.4376373,0.45385742,-0.3261261,-0.8393097
1604,A,18414656058649,1.737442,8.412994,-0.5093994,0.34072876,0.2811432,-0.8947449
1604,A,18414706412653,-0.24690247,8.266357,0.20040894,-0.3812256,0.5408478,-0.28279114
1604,A,18414756766657,0.502121,8.623291,-0.81095886,-1.9899597,0.3329773,0.4734497
1604,A,18414807120661,1.3759155,9.794098,-1.3731537,-2.7176971,0.022537231,1.730545
1604,A,18414857474664,2.245285,11.1467285,-1.1326447,-1.7336884,0.28704834,1.7881927
1604,A,18414907828668,1.117218,13.535019,-0.054977417,-0.76960754,0.26846313,1.1264191
1604,A,18414958182672,-0.51179504,13.881836,1.7548676,-0.6326904,0.5928345,1.4569702
1604,A,18415008536676,-4.0871124,14.625885,1.4284973,-0.19398499,0.9663086,0.9891815
1604,A,18415058890680,-2.6351013,15.042969,1.7392578,0.5844116,0.8588104,0.3060913
1604,A,18415109244684,-0.50697327,9.945389,1.8510284,1.1940155,0.45199585,-0.2093811
1604,A,18415159598688,-2.411316,5.9806824,-0.87698364,0.6915283,0.20397949,-0.08299255
1604,A,18415209952692,-2.4159698,3.5952454,-1.013794,0.042633057,0.32595825,0.019058228
1604,A,18415260306696,-1.8335266,2.5041351,-0.75897217,0.2875061,-0.9416504,0.44458008
1604,A,18415310660700,0.35075378,7.654541,1.1364441,0.54441833,-1.08107,-0.022247314
1604,A,18415361014704,1.4360046,12.929535,4.958206,0.6173401,-0.519104,-1.1952362
1604,A,18415411368707,-0.88313293,13.896835,3.832672,0.5626221,-0.91368103,-1.0399933
1604,A,18415461722711,1.4938507,14.728867,-0.70762634,0.2928772,-0.87809753,-0.8930054
1604,A,18415512076715,-0.27186584,8.945877,-1.9272919,0.73109436,-0.5119934,-0.71650696
1604,A,18415562430719,-0.09994507,9.78389,-1.6620941,1.0101166,-0.6564636,-0.34313965
1604,A,18415612784723,0.76071167,10.365219,-1.7816467,0.5102539,-0.80140686,-0.57192993
1604,A,18415663138727,0.5675659,8.813812,-1.5390472,0.43955994,-0.714859,-0.8594513
1604,A,18415713492731,1.5462036,9.422089,-0.4734497,0.46580505,-0.23869324,-0.9526825
1604,A,18415763846735,0.69389343,9.187088,-0.312088,0.066467285,0.13658142,-0.2845459
1604,A,18415814200739,1.0198975,8.695801,-0.6259155,-1.3330688,0.4853058,0.33221436
1604,A,18415864554743,1.1078339,9.23082,-0.52705383,-2.628189,0.32383728,1.3180084
1604,A,18415914908746,1.9002228,9.286926,-1.1922455,-1.545578,-0.06199646,1.6506805
1604,A,18415965262750,-0.41145325,13.238678,-0.06098938,-0.5190735,-0.5809479,1.6956024
1604,A,18416015616754,-0.35565186,13.810699,0.6972046,-0.92082214,0.6351929,1.1543427
1604,A,18416065970758,-3.106308,13.317657,-1.8455963,-0.3876953,0.8195648,0.88638306
1604,A,18416116324762,-0.9304962,12.820068,-0.19915771,0.32687378,0.69976807,0.3367157
1604,A,18416166678766,1.2420349,11.101196,0.21591187,1.0796051,1.0524597,-0.120147705
1604,A,18416217032770,-2.729477,5.0717926,1.0350342,1.0426178,0.30230713,-0.15145874
1604,A,18416267386774,-1.5221863,5.1416626,-1.0538177,-0.0022277832,0.21940613,0.21902466
1604,A,18416317740778,-1.3209686,3.4765167,0.034454346,0.52789307,0.20677185,-0.2635193
1604,A,18416368094782,-0.48075867,4.885208,0.4945221,0.24397278,-1.9286041,0.46568298
1604,A,18416418448786,2.8255463,14.864807,4.2654266,0.9171448,-0.42570496,-0.9323425
1604,A,18416468802789,-1.7116394,10.793579,5.3972473,0.871109,-1.4473419,-1.2565918
1604,A,18416519156793,-0.27261353,12.159592,-2.190918,0.2705841,-0.7087555,-0.6108246
1604,A,18416569510797,-1.5696106,14.862534,3.1559448,-0.23614502,-0.061203003,-1.2118835
1604,A,18416619864801,-1.4745026,7.1651917,-4.6920624,1.5493622,-0.18388367,-0.33325195
1604,A,18416670218805,2.0801544,14.143509,-1.4479218,0.2006073,-0.5727539,-0.48757935
1604,A,18416720572809,-1.9996185,6.4157257,-3.0192108,0.6552124,-0.6972351,-0.7976227
1604,A,18416770926813,2.3776703,9.269836,-1.2149811,0.47340393,-0.2605133,-1.1780548
1604,A,18416821280817,0.76065063,8.897919,1.0918579,0.1469574,0.17753601,-0.642807
1604,A,18416871634821,0.07286072,7.117981,-0.7599335,-1.5266876,0.2983551,0.72720337
1604,A,18416921988825,1.151123,9.558563,-0.7240906,-2.690628,-0.7119446,1.7725983
1604,A,18416972342829,2.1135406,10.633255,-1.1284943,-1.647522,0.705246,1.4622345
1604,A,18417022696832,1.7189331,12.186188,-2.0855255,-0.38975525,-0.7701721,1.4881134
1604,A,18417073050836,-0.8242798,17.170044,1.7416077,-0.8336792,0.40200806,1.590805
1604,A,18417123404840,-5.729767,12.583954,3.5451813,-0.19406128,0.9421692,1.2558136
1604,A,18417173758844,-2.2982635,15.417892,-0.2203064,0.28874207,1.4394989,0.5060425
1604,A,18417224112848,-3.0510101,10.817459,3.626587,0.78819275,1.2953796,-0.05848694
1604,A,18417274466852,-2.9832306,6.943924,-1.362442,0.93603516,0.5415344,-0.060958862
1604,A,18417324820856,-0.59635925,4.550827,-0.26145935,0.056549072,0.48199463,0.0365448
1604,A,18417375174860,-2.2203064,3.1000977,-0.8027954,0.17599487,-0.2544098,0.021606445
1604,A,18417425528864,-0.32736206,6.2305145,1.4304047,0.08416748,-1.0767822,-0.17388916
1604,A,18417475882868,1.6417542,13.103683,5.119812,0.9958191,-1.1825256,-1.0353699
1604,A,18417526236871,1.2184753,14.754669,3.8686829,0.5449219,-2.3352356,-0.7110138
1604,A,18417576590875,-2.4167938,15.000168,-1.1481628,0.09262085,-0.684021,-1.082428
1604,A,18417626944879,-4.4186096,5.4276276,-2.0014496,0.4119568,-0.45419312,-1.1791229
1604,A,18417677298883,0.3227234,13.564606,-5.0985565,1.0262604,-0.9516754,-0.6989746
