Subject-Id,Activity Label,Time stamp,Accel_x,Accel_y,Accel_z,Gyro_x,Gyro_y,Gyro_z
1627,A,442607245307544,4.5457916,-8.881348,-9.197556,0.43096924,0.019760132,-0.78842163
1627,A,442607265449146,-0.114730835,-12.393082,-8.104095,0.82429504,1.5753021,-1.1501923
1627,A,442607285590747,1.510315,-13.205139,-6.772949,0.2682495,3.6159973,-0.7861328
1627,A,442607305732349,2.7474518,-11.763794,-4.9213257,-1.5813293,1.2859192,-0.7357178
1627,A,442607325873951,3.040924,-9.194626,-5.7395935,-0.89112854,0.8668823,-0.25531006
1627,A,442607346015552,4.1273346,-9.052307,-5.5689545,0.46669006,-1.2587738,-0.3795166
1627,A,442607366157154,4.469742,-9.601379,-5.090271,0.8119354,-1.0895844,-0.42567444
1627,A,442607386298755,2.2313538,-9.543732,-3.5087433,1.1867065,0.8977051,-0.597641
1627,A,442607406440357,1.6048431,-6.9018707,-4.830475,1.9463806,1.2944641,-0.4522705
1627,A,442607426581958,1.9582062,-4.675049,-4.6030426,2.9196014,0.9362793,0.059814453
1627,A,442607446723560,1.9092712,-3.151123,-4.202072,2.1351013,1.4800262,-0.06373596
1627,A,442607466865162,1.4701691,-2.5650787,-3.809082,-1.031601,1.5880432,-0.14880371
1627,A,442607487006763,1.3713226,-2.9819794,-3.5961456,-3.5861511,2.0980072,0.1771698
1627,A,442607507148365,2.0870056,-3.627533,-3.167694,-3.6557922,0.70765686,-0.21073914
1627,A,442607527289966,3.330368,-4.052124,-3.4524994,-3.0149384,-0.47729492,-0.115997314
1627,A,442607547431568,4.284149,-4.4691467,-4.558441,-0.7785492,-0.38952637,0.26104736
1627,A,442607567573169,4.9775696,-4.5376587,-6.033188,0.34077454,1.8087921,0.55729675
1627,A,442607587714771,5.7387238,-4.9037933,-6.7051086,-1.0475922,0.34999084,1.0720062
1627,A,442607607856372,5.5149384,-5.670807,-6.7794495,-2.7944183,1.7539825,0.5807495
1627,A,442607627997974,6.001831,-7.005768,-6.860138,-3.1394958,1.8403778,0.47366333
1627,A,442607648139576,5.7295074,-8.472687,-7.314148,-1.7405396,-1.625351,0.339859
1627,A,442607668281177,6.374237,-9.000687,-6.8704224,3.1922607,-5.2777405,-0.33680725
1627,A,442607688422779,5.853409,-8.376312,-7.9644165,3.8917084,-2.6412659,-1.7588348
1627,A,442607708564380,5.774338,-6.1618958,-12.865158,-0.7315521,0.59513855,-0.93948364
1627,A,442607728705982,7.8114166,-6.2317963,-16.361618,-2.959259,4.6870117,0.18904114
1627,A,442607748847583,9.333176,-6.850235,-8.585159,-1.116745,2.8468475,0.013870239
1627,A,442607768989185,16.057053,-1.8326569,-0.36460876,-1.8384705,0.071777344,0.030319214
1627,A,442607789130787,10.462387,-4.2571106,4.268936,-0.8601837,-2.5904083,0.8832092
1627,A,442607809272388,8.1249695,-11.033463,-1.7223969,0.03765869,1.5266724,0.79364014
1627,A,442607829413990,10.786255,-11.753906,-1.0411682,1.0805969,1.9226685,0.36436462
1627,A,442607849555591,8.054062,-8.93631,-1.0319061,0.8276062,0.029815674,0.22325134
1627,A,442607869697193,6.526352,-7.088608,-1.1192017,-0.7472687,0.09347534,0.20030212
1627,A,442607889838794,6.72316,-6.3417664,-0.38217163,-1.6141968,0.1816864,-0.624588
1627,A,442607909980396,5.6973267,-6.5859833,0.0046844482,-0.14756775,-0.45928955,-1.2792053
1627,A,442607930121997,3.2747345,-5.961548,-0.10670471,0.9371033,1.6312714,-0.6551361
1627,A,442607950263599,1.8613434,-5.6279907,-2.493103,1.320221,1.4662018,-0.36080933
1627,A,442607970405201,2.8171692,-5.6687927,-2.976471,1.8103943,-1.8520813,-0.1368103
1627,A,442607990546802,1.7927246,-5.9705963,-0.09587097,1.5269928,-0.09864807,-0.21316528
1627,A,442608010688404,1.7660675,-6.010803,-0.42147827,0.35411072,1.595581,-0.08052063
1627,A,442608030830005,1.5398712,-6.457077,-0.8202667,-2.4815674,-1.0217438,0.74420166
1627,A,442608050971607,2.9402313,-6.5407867,-2.2551422,-2.2504425,-2.3690338,0.51919556
1627,A,442608071113208,5.5161133,-5.8957367,-4.114319,-0.16081238,-2.7233734,-0.03895569
1627,A,442608091254810,7.177002,-4.589859,-5.1787567,1.1077423,-1.5091095,-1.0719452
1627,A,442608111396412,7.8180847,-4.069046,-5.9940796,1.6734924,0.54463196,-1.470108
1627,A,442608131538013,10.321045,-3.4855652,-9.345551,1.4896088,0.030639648,-0.44400024
1627,A,442608151679615,12.020706,-3.2694855,-10.03447,1.5341644,-1.2345428,-0.3103485
1627,A,442608171821216,12.219666,-3.4255676,-8.710663,1.6595917,0.16986084,-0.36875916
1627,A,442608191962818,9.9783325,-4.9797974,-7.3124847,1.8812256,0.23323059,-0.07128906
1627,A,442608212104419,7.4368896,-6.7394867,-2.4486847,1.1282501,0.12071228,0.7853241
1627,A,442608232246021,8.606781,-9.352264,-1.4039612,-0.88797,-0.23640442,1.0798645
1627,A,442608252387622,9.646027,-11.701843,-1.182251,-1.2826385,-1.0574951,0.7689209
1627,A,442608272529224,7.314331,-11.618057,-0.078704834,-1.3390198,1.0539551,0.11628723
1627,A,442608292670826,6.115753,-13.301376,-0.60305786,-2.469986,0.92204285,-0.3730774
1627,A,442608312812427,10.300369,-10.130264,0.13929749,-1.5311432,0.60879517,-1.1954956
1627,A,442608332954029,7.9373016,-12.556213,1.7706146,-0.9073944,0.87887573,-0.6100311
1627,A,442608353095630,8.83403,-10.820419,-5.645752E-4,-0.48640442,0.90260315,-0.08995056
1627,A,442608373237232,10.312561,-7.5116425,1.4013367,0.4058838,-0.14735413,0.09515381
1627,A,442608393378833,8.226715,-5.369171,2.8832855,0.057510376,1.1892395,0.78463745
1627,A,442608413520435,4.8133545,-8.833099,4.1316986,1.1441498,0.5470886,1.5327301
1627,A,442608433662037,5.9500275,-3.3742676,-4.076126,0.5948639,0.14031982,1.6644745
1627,A,442608453803638,5.5169373,-1.0588684,-7.1113434,-0.6550293,-0.3396454,1.8308105
1627,A,442608473945240,4.760849,-3.3015442,-10.988861,0.61131287,0.7750702,1.4857025
1627,A,442608494086841,7.365982,1.7262115,-8.24086,-0.4720459,-1.3826141,1.2012787
1627,A,442608514228443,5.0531616,2.993332,-3.6055756,0.091674805,1.9833832,-0.70610046
1627,A,442608534370044,1.4648438,-4.4234924,-1.0020294,1.5733643,-0.39448547,-2.2294312
1627,A,442608554511646,3.0840912,-4.942032,-0.68081665,2.485962,-4.900009,-2.0656128
1627,A,442608574653247,5.8724365,-6.8672028,-1.6952972,1.167633,-6.2743225,-2.2783203
1627,A,442608594794849,7.964966,-6.200821,-2.1366272,1.1418457,0.842926,-0.48059082
1627,A,442608614936451,9.061462,-4.082947,-1.0947418,0.26374817,3.2250214,-0.38131714
1627,A,442608635078052,10.65033,-3.1026154,0.011672974,-2.9955292,3.7560272,-0.5254822
1627,A,442608655219654,12.575272,-4.9217377,0.9978485,-2.9019012,1.8220215,-0.40252686
1627,A,442608675361255,14.879593,-6.165436,-0.9049072,0.11677551,-2.2512512,-0.46540833
1627,A,442608695502857,11.859253,-5.667816,-3.0175018,3.4967499,-2.0428925,-1.0094604
1627,A,442608715644458,8.416367,-7.504822,-5.4395294,5.052231,-1.2631683,-1.3518524
1627,A,442608735786060,7.883316,-8.22699,-6.7682343,1.6937256,-0.010635376,-0.93096924
1627,A,442608755927662,6.31781,-8.030869,-6.396652,-1.3363342,0.42271423,-0.18380737
1627,A,442608776069263,4.6219025,-7.9448547,-4.6865997,1.4534302,-1.3209381,-0.102874756
1627,A,442608796210865,3.9416656,-8.418274,-1.580719,0.7833557,-2.0591278,-0.51786804
1627,A,442608816352466,5.021515,-10.363998,-0.59828186,0.011123657,-0.84780884,-0.11616516
1627,A,442608836494068,6.077713,-12.100937,-1.1295776,-0.8671112,-0.021530151,0.4983368
1627,A,442608856635669,6.2164764,-12.761536,-4.0832825,-1.1244354,0.3335724,1.0501099
1627,A,442608876777271,5.8819733,-11.837387,-7.9916534,-0.2427826,-0.35610962,-0.40701294
1627,A,442608896918872,3.8903656,-8.836761,-8.358353,-2.206192,1.7098846,-0.26290894
1627,A,442608917060474,2.168808,-5.2928467,-5.1811066,-1.8614349,2.901825,-0.27314758
1627,A,442608937202076,1.7901611,-3.8012085,-1.5233307,1.2349243,0.9493408,-0.20188904
1627,A,442608957343677,2.9857025,-2.5677643,1.432663,0.95443726,-2.3198395,-0.65330505
1627,A,442608977485279,4.31485,-1.8572235,2.1317444,-4.7395477,-3.8648071,0.2520752
1627,A,442608997626880,5.4016876,-4.1766815,5.4693604,-5.5363464,2.6938477,0.9949646
1627,A,442609017768482,2.4915924,-7.9056854,4.39122,-2.7674713,1.4478607,0.6598053
1627,A,442609037910083,3.9755402,-8.105011,-0.2693329,1.0737,0.6485901,0.09942627
1627,A,442609058051685,5.9874573,-6.4311066,-2.000473,0.78790283,-1.0680084,-0.2945404
1627,A,442609078193287,8.728928,-5.5657043,-2.4440155,0.1920166,-0.6994934,-0.5687561
1627,A,442609098334888,9.385223,-5.0759277,-4.6190796,-0.5215912,0.86376953,-0.5641022
1627,A,442609118476490,8.584061,-4.828705,-7.8513336,2.075714,1.4953766,-1.2782898
1627,A,442609138618091,8.194916,-5.0410614,-8.027206,3.4348755,1.0018158,-1.766983
1627,A,442609158759693,7.786087,-5.119568,-7.771347,4.64682,-2.518509,-0.79815674
1627,A,442609178901294,9.081818,-5.3017426,-8.355789,4.730957,-0.7568054,-1.4179535
1627,A,442609199042896,12.960068,-5.784851,-6.1525116,2.715622,-1.4009094,-0.921402
1627,A,442609219184497,16.68187,-5.240448,-2.061493,0.6789856,-0.09295654,-0.5398865
1627,A,442609239326099,15.98793,-4.0188446,0.9210205,1.0368347,0.7299042,-0.93640137
1627,A,442609259467701,13.314285,-4.555176,4.578903,1.3460693,0.058624268,-0.19363403
1627,A,442609279609302,11.1961975,-7.440796,6.8447266,1.385788,0.73609924,-0.50535583
1627,A,442609299750904,9.630081,-10.684616,4.248337,-1.0212402,-0.2882843,0.3643341
1627,A,442609319892505,9.985596,-11.506897,0.17590332,-2.2278442,1.7591248,-0.7638397
1627,A,442609340034107,10.501373,-10.692078,-2.9058075,-2.1111755,3.3142242,-1.5514221
1627,A,442609360175708,7.963379,-10.533157,-5.714432,-1.6503296,2.134491,-1.481308
1627,A,442609380317310,5.1045685,-9.7660675,-6.5779877,-1.2258911,0.18727112,-0.52948
1627,A,442609400458912,3.352066,-8.255203,-5.388687,-0.9184418,0.10496521,-0.16790771
1627,A,442609420600513,2.5830994,-7.094284,-3.6108398,-0.5983429,0.10839844,0.2592926
1627,A,442609440742115,2.710785,-5.205902,-1.4414673,-0.43229675,0.21520996,0.19532776
1627,A,442609460883716,2.1042938,-3.203415,-0.940094,0.11138916,0.14970398,-0.26463318
1627,A,442609481025318,1.7220764,-2.283615,-2.4018097,0.2616272,0.48106384,-0.63279724
1627,A,442609501166919,2.3715057,-2.681778,-5.0520935,-0.21990967,-0.0066223145,-0.79626465
1627,A,442609521308521,2.4412842,-3.6802063,-8.820236,-0.019805908,-0.11352539,-0.42088318
1627,A,442609541450122,2.5444489,-3.9018707,-11.166824,0.4185791,-0.3263092,0.56526184
1627,A,442609561591724,3.032547,-2.9245453,-11.482681,0.99269104,-0.4927826,0.6547394
1627,A,442609581733326,5.19487,-2.1092072,-8.642853,1.3238983,-0.1273346,0.18232727
1627,A,442609601874927,9.001312,-3.6343079,-3.7890778,1.2462463,-0.15956116,0.40841675
1627,A,442609622016529,11.130463,-5.4977264,-0.48634338,0.8719177,0.032943726,0.7992096
1627,A,442609642158130,9.058334,-6.3128815,1.4316254,1.4051971,0.45472717,0.53163147
1627,A,442609662299732,9.596069,-6.0283356,2.8605194,0.90753174,0.18293762,0.43040466
1627,A,442609682441333,13.488251,-6.9181976,1.6554565,0.40974426,-0.56066895,0.3678131
1627,A,442609702582935,16.869812,-5.502304,1.9678802,-0.8942261,-0.46827698,0.46507263
1627,A,442609722724537,18.40039,-3.3518524,2.106659,-0.6668396,0.17903137,-0.83540344
1627,A,442609742866138,14.660843,-4.774063,0.35462952,-0.8979645,0.81495667,-1.4238281
1627,A,442609763007740,11.61853,-8.016983,-2.718689,-0.33224487,0.17610168,-0.60917664
1627,A,442609783149341,9.603165,-9.172699,-4.8065033,-0.8585663,0.23518372,-0.2255249
1627,A,442609803290943,6.1572876,-10.210434,-5.5399323,-1.8049164,0.5534668,-0.47047424
1627,A,442609823432544,4.62735,-11.671051,-5.473404,-1.2842712,0.2635498,-0.10826111
1627,A,442609843574146,5.240219,-11.178818,-3.5776062,-0.33966064,-0.30429077,0.10836792
1627,A,442609863715747,7.115448,-8.294159,-1.4759216,-0.3894043,-0.12696838,0.23561096
1627,A,442609883857349,7.871109,-6.767578,-0.49771118,-0.47161865,-0.033355713,-0.4449463
1627,A,442609903998951,7.5044403,-6.154785,-0.3470459,-0.50639343,-0.353714,-0.79844666
1627,A,442609924140552,6.0003967,-5.70253,-1.2020264,-0.048217773,-0.5681915,-0.2151947
1627,A,442609944282154,3.9311981,-5.078598,-1.2762756,-0.02168274,-0.31274414,0.4788971
1627,A,442609964423755,2.0889587,-4.0367126,-1.062149,0.5604706,-0.15863037,0.39985657
1627,A,442609984565357,0.64727783,-3.8251953,-1.931961,0.644989,-0.101623535,0.08918762
1627,A,442610004706958,-0.0036468506,-4.430832,-3.149826,0.951004,-0.031677246,0.3457489
1627,A,442610024848560,0.08024597,-5.101883,-4.9595795,1.2758331,0.30636597,0.18269348
1627,A,442610044990162,0.51724243,-5.7201996,-8.496323,1.0215149,-0.5366974,0.5741272
1627,A,442610065131763,2.7352295,-4.913666,-7.805771,0.58761597,-0.947525,1.3319702
1627,A,442610085273365,5.403946,-3.2901764,-5.7426147,0.5856781,-1.1783447,1.4734192
1627,A,442610105414966,5.1251373,-3.5182953,-5.150299,-0.92866516,-1.4697266,1.4738464
1627,A,442610125556568,11.369522,-4.3931885,-5.264572,-0.52301025,-0.9756012,0.008087158
1627,A,442610145698169,14.173508,-6.136963,-3.4349213,-0.27279663,0.29615784,-0.43478394
1627,A,442610165839771,12.565735,-2.9087677,-4.259384,-0.29919434,0.89601135,0.10469055
1627,A,442610185981372,12.820007,-4.18396,-10.574844,-0.588501,1.9487457,0.2973175
1627,A,442610206122974,10.323303,-5.4598846,-9.601028,-0.34880066,0.78552246,0.43103027
1627,A,442610226264576,10.260376,-5.9399414,-6.302826,-0.6441498,0.8815613,0.5712433
1627,A,442610246406177,11.00177,-6.6038055,-3.8799133,0.21078491,0.8816986,0.15144348
1627,A,442610266547779,11.469894,-8.190292,-2.7093353,1.2581635,0.7248688,0.05317688
1627,A,442610286689380,9.729736,-10.594711,-2.7104645,0.5963745,0.17242432,0.28585815
1627,A,442610306830982,7.547867,-13.951019,-2.9323883,-0.95306396,-1.5042114,-0.5843811
1627,A,442610326972583,6.8954926,-14.863953,-1.971878,-0.7957611,-2.2029877,0.039611816
1627,A,442610347114185,7.067795,-13.555054,-1.8242493,-0.14479065,-1.5868988,0.8975525
1627,A,442610367255787,6.9445343,-11.60762,-2.6017914,0.6453247,-2.4267273,0.26287842
1627,A,442610387397388,3.708786,-10.42128,-5.275055,0.75683594,-1.2227936,0.06774902
1627,A,442610407538990,4.792877,-7.0584106,-3.5102386,4.956009,2.945694,-0.3026886
1627,A,442610427680591,5.436615,-5.279297,-1.1793365,3.688736,-0.56552124,-0.462677
1627,A,442610447822193,1.8978424,-5.0374756,-1.446167,-0.3880005,-0.024505615,-0.2341156
1627,A,442610467963794,0.008346558,-5.5757294,-2.7221832,0.43710327,-0.61320496,0.16851807
1627,A,442610488105396,1.3783875,-6.3929443,-0.9020233,-0.5054016,-0.7274933,0.8204498
1627,A,442610508246997,2.3094788,-6.7340393,-0.17687988,-0.34239197,0.9233246,0.089920044
1627,A,442610528388599,3.504837,-7.067108,-1.3572083,0.24049377,1.5707092,-1.1573639
1627,A,442610548530201,3.0935059,-5.8369293,-1.0160828,0.05633545,1.2452698,-0.89678955
1627,A,442610568671802,1.554245,-4.8209534,-0.094436646,-0.5980835,1.3240814,-0.6801605
1627,A,442610588813404,8.721451,1.1031342,-4.8589935,-1.4624176,1.7266388,-0.57850647
1627,A,442610608955005,8.237946,-1.4998016,-12.728424,-1.4824982,0.7395935,0.101623535
1627,A,442610629096607,12.682846,-4.0178375,2.1410065,-1.2795715,0.3963318,-0.0309906
1627,A,442610649238208,12.56514,-5.942993,-2.5080414,-0.09416199,0.16201782,-0.020492554
1627,A,442610669379810,11.119446,-7.331955,-4.639038,-0.061294556,0.077804565,-0.26661682
1627,A,442610689521412,10.791901,-6.335678,-3.9042664,-0.112701416,-0.6558075,-0.48764038
1627,A,442610709663013,11.194931,-9.720276,-6.618744,0.1758728,-1.3381348,-0.30526733
1627,A,442610729804615,13.313889,-5.854843,-13.709778,0.27005005,-1.4059296,0.44670105
1627,A,442610749946216,11.857239,0.03337097,0.76420593,1.287796,-2.253601,0.64582825
1627,A,442610770087818,17.96817,-1.6714783,-0.4786377,1.0402527,-0.5806732,0.7909546
1627,A,442610790229419,9.203857,-6.948654,-1.6508331,1.297348,-0.22442627,0.5421448
1627,A,442610810371021,5.8593597,-4.880722,-2.6384888,0.5272827,0.4061737,0.020492554
1627,A,442610830512622,7.504135,-7.5302734,-2.1390991,0.0335083,0.713562,-0.48806763
1627,A,442610850654224,5.3279724,-8.920685,0.22805786,0.5317688,-0.17489624,0.3903656
1627,A,442610870795826,3.8223572,-7.557724,-1.3605957,-0.21980286,-0.83387756,0.30290222
1627,A,442610890937427,4.0776825,-7.9307556,-2.2456055,-0.3879547,-0.5359497,-0.12756348
1627,A,442610911079029,7.2359924,-9.580566,-3.263855,-0.07518005,0.20266724,-0.31420898
1627,A,442610931220630,8.0338745,-8.886566,-1.6320648,0.14408875,0.6891632,-1.4122314
1627,A,442610951362232,2.8449097,-7.964569,1.8547211,-0.30593872,1.5812683,-0.6292877
1627,A,442610971503833,2.822754,-4.8096466,3.2549896,-0.6232605,1.3119049,-0.46255493
1627,A,442610991645435,3.1554108,-3.3716888,1.0196381,-1.4887695,1.4279633,0.013244629
1627,A,442611011787037,3.6613617,-3.617279,-2.6974182,-1.5735474,0.6367035,0.36802673
1627,A,442611031928638,4.980301,-2.5907135,-4.660782,-0.86790466,0.29930115,0.09892273
1627,A,442611052070240,5.4033203,-3.6977692,-4.0201874,-0.2646942,0.033859253,-0.22705078
1627,A,442611072211841,8.372726,-4.352005,-2.2043762,-0.11935425,-0.16525269,-0.55152893
1627,A,442611092353443,8.655548,-5.9037323,-0.36213684,0.6756439,-0.8674164,-0.4689026
1627,A,442611112495044,5.5720367,-8.503876,1.4476013,0.15177917,-1.9381714,0.07408142
1627,A,442611132636646,7.10437,-8.960037,0.99642944,0.419281,-1.8733368,0.55677795
1627,A,442611152778247,8.575027,-7.8650208,0.24656677,1.9840546,-0.5997009,0.41661072
1627,A,442611172919849,8.942978,-6.655365,0.32252502,1.8306885,-0.010223389,0.8186035
1627,A,442611193061451,9.434799,-6.3540344,1.2908478,0.94921875,-0.03425598,0.5080414
1627,A,442611213203052,10.293625,-5.9405518,2.0245667,0.14038086,1.0213623,-0.5044098
1627,A,442611233344654,12.685867,-5.219223,2.9515076,0.028320313,-0.010238647,-0.4868927
1627,A,442611253486255,13.841736,-5.9827576,2.2947845,-0.049484253,-0.52323914,0.27038574
1627,A,442611273627857,11.105621,-6.8797913,-3.1286926,-0.16915894,-0.6815033,0.2745514
1627,A,442611293769458,10.206665,-5.1226807,-3.1037598,0.09068298,0.82110596,-0.20484924
1627,A,442611313911060,11.165543,-4.3331757,-4.168762,0.2605896,0.27218628,-0.98179626
1627,A,442611334052662,11.954712,-6.9702606,-11.328888,-0.68026733,1.1348114,-0.49902344
1627,A,442611354194263,9.355118,-9.990845,-17.541748,-1.3327789,0.600235,-0.4154663
1627,A,442611374335865,8.827179,-5.8341675,-8.832291,-1.4253693,1.2506104,-0.46063232
1627,A,442611394477466,9.269653,-5.5870667,1.3711853,-1.626236,0.7842407,0.01914978
1627,A,442611414619068,6.53302,-10.631592,3.074829,-1.2046356,0.32356262,0.15055847
1627,A,442611434760669,5.0440063,-9.250671,-0.39736938,-0.15718079,0.3070526,-0.050964355
1627,A,442611454902271,4.875931,-4.202286,-2.8111877,-0.26789856,0.120895386,-0.33859253
1627,A,442611475043872,3.8475952,-1.9197388,-2.6816711,0.40872192,-0.4570923,-0.47109985
1627,A,442611495185474,2.4747772,-0.8209076,-1.8396149,0.6198273,-1.1680603,-0.5328827
1627,A,442611515327076,1.5536499,-0.761734,-2.2234497,-0.53030396,-1.7221222,0.26245117
1627,A,442611535468677,1.2637787,-1.0348358,-2.259262,1.1543579,-0.9300995,0.45256042
1627,A,442611555610279,0.80241394,-1.1763458,-2.683731,2.3156128,-0.2155304,0.4867401
1627,A,442611575751880,0.86221313,-1.5354004,-2.7223053,1.3113861,-0.43624878,0.68551636
1627,A,442611595893482,2.0821838,-2.9216156,-3.9776459,0.15945435,0.31570435,0.2517395
1627,A,442611616035083,4.528305,-6.7313538,-4.8602905,0.17814636,0.22720337,-0.075149536
1627,A,442611636176685,6.5871124,-11.031235,-5.7525787,0.18299866,-0.098968506,-0.10664368
1627,A,442611656318287,9.792343,-10.273239,-4.869644,-0.14241028,-0.90727234,0.30342102
1627,A,442611676459888,15.143997,-5.3170776,-5.7660522,0.21298218,0.577652,0.167099
1627,A,442611696601490,17.336868,-1.2891235,-8.530304,0.05783081,0.1574707,-0.507782
1627,A,442611716743091,13.938202,0.8666992,-11.601242,-0.70747375,0.78538513,-0.42304993
1627,A,442611736884693,11.168823,-3.6984863,-10.241135,-0.9701996,0.91793823,-0.57154846
1627,A,442611757026294,12.542679,-10.790375,-3.6718292,-1.1009369,1.0075531,-0.47077942
1627,A,442611777167896,10.839203,-10.729904,0.16952515,-1.5428314,1.1270905,-0.107406616
1627,A,442611797309497,9.233322,-8.448517,3.5133057,-1.1832428,0.6718445,0.10462952
1627,A,442611817451099,9.396759,-7.231247,4.387314,-0.5619812,0.41249084,0.14630127
1627,A,442611837592701,8.742279,-7.2047577,3.4355621,-0.21844482,0.19342041,-0.08634949
1627,A,442611857734302,10.083069,-5.59877,2.1548767,0.28530884,0.009246826,-0.3581543
1627,A,442611877875904,13.243179,-1.2622833,-1.868103,0.8930359,-0.9497528,-0.122406006
1627,A,442611898017505,13.211563,1.5812988,-6.1084747,0.12606812,-1.915329,0.4113922
1627,A,442611918159107,8.56131,1.1851044,-11.412567,1.0550995,-1.0588531,0.5987549
1627,A,442611938300708,4.8109436,0.3720398,-7.2125397,1.859024,-0.45246887,0.6985779
1627,A,442611958442310,4.5743256,0.6346283,-1.7659302,1.3389282,-0.38856506,0.80348206
1627,A,442611978583912,6.2541046,1.1587219,-2.8871613,0.89282227,-0.022476196,0.2544098
1627,A,442611998725513,4.1739655,-0.4215393,-4.931259,0.06260681,0.0619812,-0.21377563
1627,A,442612018867115,3.3244476,-2.92688,-3.0569916,0.33940125,-0.3646698,0.07432556
1627,A,442612039008716,3.3615417,-5.868622,0.0078125,0.12892151,-0.7177887,0.5968323
1627,A,442612059150318,3.853836,-6.392151,2.001892,-0.049423218,-0.74876404,0.733963
1627,A,442612079291919,4.5641174,-5.4993744,1.6371918,-0.25004578,0.50813293,0.23931885
1627,A,442612099433521,5.765732,-3.4187622,-0.9689026,0.23469543,0.9357605,-1.4704132
1627,A,442612119575122,7.1854553,-1.9357758,-2.7803955,0.09579468,1.2446442,-1.0832672
1627,A,442612139716724,9.397629,-0.412735,-5.6762085,-0.43312073,0.3959198,-0.62065125
1627,A,442612159858326,11.3424835,1.5300293,-6.6389313,-1.8798828,1.2342072,-0.40264893
1627,A,442612179999927,11.968277,4.1175537,-8.305222,-1.5970917,0.9295807,-0.023406982
1627,A,442612200141529,14.042496,4.1670074,-8.041733,-1.5286102,0.302063,-0.035232544
1627,A,442612220283130,14.91864,3.6436462,-5.5219727,-0.31144714,0.18873596,-0.15501404
1627,A,442612240424732,15.194122,1.5452576,-3.2198792,0.12123108,0.03642273,-0.3883667
1627,A,442612260566333,13.000305,-1.5028839,-0.25489807,0.69047546,-0.3166504,-0.4580841
1627,A,442612280707935,11.579544,-4.551132,0.16163635,0.71925354,-1.4516907,-0.3829651
1627,A,442612300849537,11.865509,-7.9841003,1.7009125,-0.45863342,-1.7964478,0.49391174
1627,A,442612320991138,12.426285,-10.723358,1.1177979,0.9911804,-1.2862091,0.5910034
1627,A,442612341132740,12.852066,-10.765472,0.004135132,1.6069794,-0.5286255,0.29818726
1627,A,442612361274341,11.996597,-9.080505,-0.04937744,1.2147675,-0.09661865,0.568573
1627,A,442612381415943,13.993134,-3.7004242,-3.7442017,0.337265,0.6234131,0.08164978
1627,A,442612401557544,11.32959,-0.71284485,-5.544571,0.08761597,0.47998047,-0.1515503
1627,A,442612421699146,7.665268,-0.46221924,-4.602524,0.06274414,-0.7118988,0.3892517
1627,A,442612441840747,5.628586,-1.3208466,-4.91481,-1.45224,-2.5261993,0.64352417
1627,A,442612461982349,3.0780334,-1.5776978,-6.978882,0.1889801,1.2831726,0.6877289
1627,A,442612482123951,0.21092224,-1.6656494,-6.8415527,-0.12149048,2.0282745,-0.57836914
1627,A,442612502265552,-5.0845947,-2.3718567,-9.957703,0.060455322,1.7969666,-1.2581787
1627,A,442612522407154,-1.9044342,-1.2799377,-3.9438324,-0.47114563,0.033554077,-0.76501465
1627,A,442612542548755,6.1785736,0.57159424,-3.8119812,-0.46533203,1.2829742,-0.48114014
1627,A,442612562690357,5.6692505,0.60772705,-2.968872,-1.3395996,0.85842896,-0.41386414
1627,A,442612582831958,9.281082,-0.2453003,-1.3516846,-1.4382172,0.27879333,0.18406677
1627,A,442612602973560,6.9416046,-1.7098694,-4.565918,-1.0984192,0.078552246,-0.08691406
1627,A,442612623115162,8.205032,-0.09408569,-6.700424,-0.4293518,0.020431519,-0.2648468
1627,A,442612643256763,12.393723,-0.39161682,-10.088333,-0.14604187,-0.13006592,-0.2571106
1627,A,442612663398365,14.469482,-1.9430084,-7.353256,0.42681885,-0.90174866,-0.30693054
1627,A,442612683539966,13.545151,-0.73521423,-8.614868,0.27153015,-1.8410492,0.07392883
1627,A,442612703681568,12.023285,-0.5940399,-10.474197,0.15612793,-1.2849274,0.3795166
1627,A,442612723823169,11.642609,-5.154419,-10.414001,1.1660614,-0.3714447,0.35577393
1627,A,442612743964771,13.923538,-4.0232544,-9.00354,1.4172516,-0.08088684,0.64915466
1627,A,442612764106372,14.839249,-0.8839569,-4.2461243,1.0325775,0.09977722,0.37475586
1627,A,442612784247974,10.52504,-0.8342438,-2.0565186,0.20433044,0.12974548,-0.081726074
1627,A,442612804389576,9.518082,-1.1004028,0.43148804,0.52497864,0.08572388,-0.14712524
1627,A,442612824531177,15.849625,4.3489685,1.6777344,0.14726257,-0.43049622,0.2963562
1627,A,442612844672779,10.990356,2.4565887,0.31697083,-0.24407959,-0.515213,0.38607788
1627,A,442612864814380,11.81781,3.785202,0.8927765,-0.25157166,0.6517334,0.18452454
1627,A,442612884955982,8.857941,2.550644,-0.0012969971,0.15144348,0.18875122,-0.7484894
1627,A,442612905097583,5.396393,1.2057953,0.63568115,-0.88887024,0.46440125,-0.68670654
1627,A,442612925239185,4.095154,-0.4397583,1.3659973,-1.3811646,1.1507721,-0.452713
1627,A,442612945380787,0.54437256,-2.177124,-2.9588013,-1.5847473,1.4408112,-0.19979858
1627,A,442612965522388,2.366745,-0.84724426,0.7235718,-1.5903625,0.860672,0.20527649
1627,A,442612985663990,3.1401672,-1.2269592,-0.9854431,-1.2373352,0.4381714,0.18544006
1627,A,442613005805591,3.681839,-0.21432495,-1.180481,-0.14556885,0.18746948,0.061157227
1627,A,442613025947193,6.099655,1.3045654,-0.09851074,-0.58543396,0.17749023,-0.3634796
1627,A,442613046088794,9.093811,2.9503937,0.525589,0.1566925,-0.37332153,-0.45233154
1627,A,442613066230396,9.974625,4.0988617,-0.18544006,0.85289,-1.2001953,-0.32054138
1627,A,442613086371997,10.062973,4.119705,-0.7891388,0.44444275,-1.8605957,0.46411133
1627,A,442613106513599,10.380295,4.444351,-0.5230408,1.469696,-1.3112335,0.47479248
1627,A,442613126655201,10.831085,4.6852417,-0.17163086,1.9525146,-0.56137085,0.58683777
1627,A,442613146796802,11.053757,5.9236145,-0.036621094,2.361145,-0.12953186,0.68603516
1627,A,442613166938404,11.248962,6.510132,-0.10536194,1.0467834,0.020080566,0.2314148
1627,A,442613187080005,9.686707,4.7389374,0.5880127,-0.1207428,0.44248962,-0.21559143
1627,A,442613207221607,9.25386,4.114731,0.5740509,0.044891357,-0.5635376,0.1867218
1627,A,442613227363208,11.144455,6.3527985,-0.31744385,-0.2190094,-0.83602905,0.2944641
1627,A,442613247504810,10.683853,4.1763153,0.124694824,-0.034713745,-0.5991821,0.66799927
1627,A,442613267646412,10.699249,3.0749054,2.2903442,0.337265,0.8051605,-0.04612732
1627,A,442613287788013,10.906937,1.4921265,2.4197845,0.11024475,1.008667,-1.1004181
1627,A,442613307929615,11.365173,-0.008743286,3.3806305,-0.14222717,0.9703827,-0.7684021
1627,A,442613328071216,12.830338,0.56907654,3.3666687,-0.5124512,1.0863495,-0.71624756
1627,A,442613348212818,13.491318,0.9729767,2.873169,-1.3557129,1.4551392,-0.34228516
1627,A,442613368354419,12.991394,0.6745453,2.3297882,-1.2650452,0.7249298,0.10658264
1627,A,442613388496021,11.713745,1.3812256,0.6660156,-1.1410675,0.15397644,0.045135498
1627,A,442613408637622,9.261536,2.033783,-0.38050842,-0.054840088,0.17701721,-0.21237183
1627,A,442613428779224,6.426239,1.8304749,-0.28219604,0.26182556,0.0945282,-0.57466125
1627,A,442613448920826,5.01178,1.5992279,0.38357544,1.02771,-0.49519348,-0.52479553
1627,A,442613469062427,4.4856415,2.164688,0.3466339,0.5593872,-1.571167,-0.08407593
1627,A,442613489204029,2.432022,2.4508057,-1.8992004,0.029586792,-1.6281128,0.36360168
1627,A,442613509345630,2.0029144,2.5868073,-2.2750397,1.1604156,-0.8991852,0.37443542
1627,A,442613529487232,2.396881,2.3183594,-1.3609772,1.6648102,-0.42892456,0.4898224
1627,A,442613549628833,4.3740997,1.6871185,-0.8533325,1.4495392,-0.16168213,0.46240234
1627,A,442613569770435,6.6385956,1.2838135,-0.34817505,0.61109924,0.16349792,-0.092926025
1627,A,442613589912037,8.35553,1.1800232,-0.97236633,0.019592285,0.16333008,-0.03147888
1627,A,442613610053638,9.51091,0.92837524,-2.646576,0.12271118,-0.6606293,0.5562744
1627,A,442613630195240,10.966675,1.120163,-2.9521332,-0.106658936,-0.7550659,0.48207092
1627,A,442613650336841,11.143784,0.81770325,-2.54039,-0.6693878,0.98703,0.55085754
1627,A,442613670478443,11.98407,0.5985565,-3.277069,-0.43208313,0.7260132,-0.087905884
1627,A,442613690620044,15.53511,1.0916748,-5.0230713,-0.19544983,0.9596863,-1.2556152
1627,A,442613710761646,16.208328,0.39396667,-4.8669434,-0.7639923,0.4800415,-1.1929474
1627,A,442613730903247,14.8346405,-0.87416077,-2.8477936,-1.4320679,0.7783661,-0.87564087
1627,A,442613751044849,15.987961,-0.28367615,0.5146942,-2.3753052,1.2560425,-0.3049469
1627,A,442613771186451,15.962845,0.5526886,3.15596,-2.149353,0.87683105,0.30607605
1627,A,442613791328052,11.693497,0.27192688,2.7966309,-0.9165802,0.1405487,0.119262695
1627,A,442613811469654,9.428467,0.52919006,2.3023376,0.16723633,0.2471466,-0.056106567
1627,A,442613831611255,10.310471,2.312271,2.7929077,0.01260376,0.20384216,-0.43475342
1627,A,442613851752857,10.272644,3.6340637,3.4222107,0.51179504,-0.42140198,-0.5892334
1627,A,442613871894458,9.427536,3.716858,4.053238,0.37028503,-1.3760529,-0.2066803
1627,A,442613892036060,8.120117,2.8919983,3.1062927,0.29945374,-1.5268402,0.43719482
1627,A,442613912177662,6.295349,2.0799866,0.41290283,1.1013031,-1.2046051,0.6710663
1627,A,442613932319263,5.0509796,1.46315,-1.8085938,1.8311157,-0.481781,0.6858978
1627,A,442613952460865,4.4838867,1.0974274,-3.2192078,2.0467987,-0.13188171,0.66804504
1627,A,442613972602466,5.0224915,0.9330292,-3.07016,1.2088318,0.12371826,0.029052734
1627,A,442613992744068,6.060211,0.59069824,-1.5962067,0.2761383,0.3138733,-0.16119385
1627,A,442614012885669,6.607666,0.14074707,-0.56010437,0.3986969,-0.56166077,0.407135
1627,A,442614033027271,6.2356873,0.6563721,-1.1821442,-0.28564453,-0.9067993,0.73605347
1627,A,442614053168872,6.437332,1.3986206,-0.15110779,-0.5785217,-0.32626343,0.88238525
1627,A,442614073310474,7.378723,2.800415,1.2778168,-0.3978119,0.9048462,-0.18119812
1627,A,442614093452076,7.3502197,4.34111,0.7559509,0.021484375,1.7653046,-1.2343292
1627,A,442614113593677,6.8415375,5.4855957,-0.7268524,-0.113204956,0.34118652,-1.0996552
1627,A,442614133735279,7.750412,6.599701,-1.7656555,-0.6154938,0.37332153,-0.8617554
1627,A,442614153876880,10.238586,6.606598,-0.34033203,-2.2368164,1.213211,-0.5095978
1627,A,442614174018482,11.281769,6.390854,0.09738159,-2.269165,0.8062439,0.20909119
1627,A,442614194160083,10.857819,6.365631,-1.3962555,-1.8053894,0.11672974,0.23554993
1627,A,442614214301685,12.555649,5.6628113,-0.22764587,-0.26023865,0.17364502,-0.17610168
1627,A,442614234443287,13.196075,3.794281,1.7093658,0.40518188,0.18266296,-0.45664978
1627,A,442614254584888,12.630844,1.9797363,3.4458466,0.925766,-0.17770386,-0.4545288
1627,A,442614274726490,12.217194,0.8486023,3.6856995,0.7582092,-1.6246185,0.02003479
1627,A,442614294868091,12.586899,-0.4242096,2.8928223,0.40750122,-1.6901398,0.44543457
1627,A,442614315009693,13.260498,-0.28323364,2.2103577,1.418396,-0.9891968,0.5375366
1627,A,442614335151294,13.461472,-0.02835083,2.4060364,1.9449615,-0.7800293,0.60157776
1627,A,442614355292896,12.645523,0.80093384,1.4997406,2.1075134,-0.17541504,0.6842499
1627,A,442614375434497,8.910385,0.7735596,-0.15779114,1.4514618,0.19224548,-0.14692688
1627,A,442614395576099,9.987442,1.6133118,0.90657043,0.113464355,-0.046417236,-0.16537476
1627,A,442614415717701,8.993423,2.1413574,0.4471283,0.0635376,-0.44856262,0.43328857
1627,A,442614435859302,5.946106,2.2953644,-0.66166687,-0.35702515,-0.86798096,0.5329895
1627,A,442614456000904,4.095276,2.2098541,-0.612854,-0.59487915,0.38632202,0.47569275
1627,A,442614476142505,3.3165588,2.5575714,-0.27235413,-0.733078,0.9476471,-0.2398529
1627,A,442614496284107,1.7904816,1.6400604,0.045562744,0.0927887,1.0642395,-1.1374054
1627,A,442614516425708,4.9000397,2.2090302,0.8875885,-0.32118225,0.77885437,-1.0783997
1627,A,442614536567310,5.6576843,2.4419556,0.33790588,-1.207428,0.9407654,-0.997345
1627,A,442614556708912,4.9697113,2.5449677,-0.670578,-1.8230743,1.3860626,-0.47373962
1627,A,442614576850513,5.369583,2.775879,-2.280838,-1.984024,0.7078705,0.23072815
1627,A,442614596992115,5.6845093,3.3700104,-3.302536,-1.2470398,0.09564209,0.18431091
1627,A,442614617133716,9.680466,3.073944,-1.9214783,-0.083862305,0.21673584,-0.13648987
1627,A,442614637275318,11.025391,3.655777,-3.5208435,-0.15374756,0.25639343,-0.43260193
1627,A,442614657416919,11.398788,2.756363,-5.16098,0.4958191,-0.22268677,-0.51309204
1627,A,442614677558521,12.587555,1.6904907,-5.4076996,0.95906067,-1.0947113,-0.26467896
1627,A,442614697700122,13.38327,-0.37542725,-4.493103,0.12901306,-1.8849792,0.504303
1627,A,442614717841724,14.932007,-0.92836,-4.117737,1.3036346,-1.2259216,0.6322937
1627,A,442614737983326,16.403168,-1.4723358,-3.1121368,2.0390472,-0.5118408,0.7369385
1627,A,442614758124927,12.7013855,-2.1522522,-2.068283,1.5071564,-0.21339417,0.9532776
1627,A,442614778266529,10.36615,-0.7276306,-0.4175415,0.9800873,0.31829834,0.06187439
1627,A,442614798408130,10.807999,-0.5227051,2.6049042,0.17158508,-0.015701294,-0.14303589
1627,A,442614818549732,12.797699,-0.11967468,6.4885406,0.30863953,-0.48435974,0.3329773
1627,A,442614838691333,14.071625,1.428421,5.237015,-0.20114136,-0.7659149,0.72402954
1627,A,442614858832935,13.086639,2.7530823,0.2324524,-0.5416565,0.1171875,0.56777954
1627,A,442614878974537,3.484909,-1.5345001,-1.6517792,-0.54437256,0.7124176,-0.07632446
1627,A,442614899116138,8.870605,1.3997498,3.714569,0.055038452,0.8551178,-1.0710297
1627,A,442614919257740,5.578659,-2.7906342,-5.0641174,-0.118637085,1.0051422,-1.0983276
1627,A,442614939399341,4.43013,-0.21722412,-0.7670288,-1.026001,0.7254486,-0.94296265
1627,A,442614959540943,3.6262207,-1.3640137,-1.8569946,-1.7269135,1.3068695,-0.5800781
1627,A,442614979682544,3.4684296,-3.3392792,-1.8912506,-1.9468231,0.7727051,0.17567444
1627,A,442614999824146,7.892929,-1.9422455,-1.5032959,-1.446579,0.16342163,0.16143799
1627,A,442615019965747,9.934769,0.40670776,-2.330368,-0.17245483,0.14839172,-0.15196228
1627,A,442615040107349,7.3400574,0.59310913,-4.5888977,-0.009857178,0.14793396,-0.4121399
1627,A,442615060248951,6.8715515,0.696167,-3.2378998,0.67362976,-0.29734802,-0.51353455
1627,A,442615080390552,9.527756,1.7102966,-0.5048523,0.5912781,-1.449295,-0.24526978
1627,A,442615100532154,10.190018,1.4240875,-0.48944092,-0.003967285,-1.8614349,0.38391113
1627,A,442615120673755,12.192947,2.7993927,1.0540466,1.1130066,-1.2949982,0.5117798
1627,A,442615140815357,12.921997,4.4495087,1.9093475,2.0825195,-0.58699036,0.58343506
1627,A,442615160956958,7.2580566,2.9243164,-1.1289215,2.023346,-0.15240479,0.79577637
1627,A,442615181098560,6.2977905,2.9552917,-3.394333,1.2050476,0.32888794,-0.0022888184
1627,A,442615201240162,9.757767,2.626999,-1.9157562,0.18678284,-0.015716553,-0.037261963
1627,A,442615221381763,12.031403,2.8240204,-2.9786987,0.30693054,-0.3693695,0.32881165
1627,A,442615241523365,11.196579,1.4534149,-3.0125427,-0.058029175,-0.82907104,0.47288513
1627,A,442615261664966,9.125107,0.9234619,-1.3953094,-0.3253479,0.32443237,0.09274292
1627,A,442615281806568,11.359848,-0.9646454,1.4589691,-0.75556946,0.98703,0.23164368
1627,A,442615301948169,14.602554,-5.7421265,3.9763947,-0.010498047,0.2893219,-1.0612335
1627,A,442615322089771,18.48906,-10.482208,0.9331665,-0.18614197,1.1233826,-1.1349487
1627,A,442615342231372,18.663788,-7.8138733,1.3260498,-1.2280579,0.8805542,-0.7712555
1627,A,442615362372974,14.979141,-5.333374,-2.254013,-1.9599609,1.5188904,-0.49186707
1627,A,442615382514576,12.900803,-0.73831177,-2.4208221,-1.9995575,0.7189789,0.26197815
1627,A,442615402656177,9.355515,2.3491669,-3.3900146,-1.4821014,0.020904541,0.17863464
1627,A,442615422797779,6.7680817,1.6796417,-3.5246277,-0.034103394,0.16104126,-0.09793091
1627,A,442615442939380,5.153,0.64489746,-2.0863495,0.23608398,0.25701904,-0.35803223
1627,A,442615463080982,3.2548065,-0.18429565,0.37124634,0.72946167,-0.22041321,-0.5049591
1627,A,442615483222583,2.8150635,0.4196167,5.0753784,0.65997314,-1.3974915,-0.046798706
1627,A,442615503364185,4.684021,-0.062332153,13.165894,0.28923035,-1.7102051,0.38583374
1627,A,442615523505787,4.0916595,-3.8308716,12.643723,1.2688751,-1.1095734,0.47514343
1627,A,442615543647388,7.799759,-4.2644043,0.40156555,2.1540527,-0.56344604,0.5694885
1627,A,442615563788990,7.851837,-1.8466339,-17.610199,1.8431549,-0.17883301,0.8044739
1627,A,442615583930591,3.3107758,-0.8591614,-17.700775,0.88830566,0.19995117,-0.015258789
1627,A,442615604072193,7.3741455,-2.6690521,-7.9827576,0.043029785,0.112594604,-0.24653625
1627,A,442615624213794,12.13765,-1.9615631,2.5851288,0.23980713,-0.26101685,0.21566772
1627,A,442615644355396,13.309433,-4.547058,0.786438,-0.19866943,-0.702301,0.5779114
1627,A,442615664496997,13.071579,-6.596405,-8.502869,-0.34303284,0.46569824,0.42131042
1627,A,442615684638599,10.608154,-5.8303986,-14.4960785,-0.48869324,0.5678406,-0.2526703
1627,A,442615704780201,11.946777,-4.776291,-6.3696594,-0.2509613,0.6656494,-0.9884796
1627,A,442615724921802,15.49295,-4.2982635,3.624878,-0.42713928,1.1197662,-1.0042572
1627,A,442615745063404,17.134323,-1.623703,4.874237,-0.8017273,1.0324554,-1.1136017
1627,A,442615765205005,12.463547,1.8560638,3.253479,-2.1954803,0.7749481,-0.5075226
1627,A,442615785346607,9.370148,3.1410217,3.6759644,-1.7792664,0.49424744,0.36044312
1627,A,442615805488208,13.885712,3.32872,3.4868774,-1.2937622,0.07324219,0.5320587
1627,A,442615825629810,16.09938,1.7396088,1.9772797,0.0058898926,0.14128113,0.025543213
1627,A,442615845771412,13.801483,-0.68733215,-0.005874634,-0.014419556,0.07235718,-0.3379364
1627,A,442615865913013,9.685638,-3.0160522,-1.5349426,0.16989136,-0.83491516,-0.22038269
1627,A,442615886054615,6.4719696,-4.19783,-1.8855438,0.1357727,-2.8382416,0.5051727
1627,A,442615906196216,4.3313446,-4.15184,-2.00148,0.85128784,-1.4324646,0.92723083
1627,A,442615926337818,3.0135803,-2.530655,-2.4599915,0.643219,-1.3595581,0.59906006
1627,A,442615946479419,2.5982056,-0.66563416,-2.6305237,1.1693115,-0.49162292,0.6210785
1627,A,442615966621021,3.004837,-0.76490784,-2.0220184,1.6924438,-0.10084534,0.29507446
1627,A,442615986762622,4.678421,-1.7783813,-0.6596985,1.0820313,0.5816345,-0.18908691
1627,A,442616006904224,7.70607,-1.4382477,-0.8586273,0.22219849,0.92588806,-0.17399597
1627,A,442616027045826,9.003754,0.49362183,-3.0158691,0.093933105,-0.2574005,0.236969
1627,A,442616047187427,8.636322,1.6446228,-2.6033325,-0.3232422,-1.1690979,0.28718567
1627,A,442616067329029,8.56366,1.4607086,-0.1290741,-0.43434143,0.042526245,0.45025635
1627,A,442616087470630,9.698471,2.0375671,-1.5258789E-5,-0.16426086,0.29888916,-0.3103485
1627,A,442616107612232,11.780884,4.126251,-0.6901703,-0.19306946,1.177597,-0.9979553
1627,A,442616127753833,12.964142,5.1243286,-0.50149536,-0.6839752,1.207962,-1.0286713
1627,A,442616147895435,12.18251,3.531128,-1.0196533,-1.0648804,1.4201813,-1.0901337
1627,A,442616168037037,11.668579,2.0561523,-1.7719421,-1.0124817,1.8258667,-0.51527405
1627,A,442616188178638,11.3064575,0.7680054,2.3261414,-1.2823181,0.5815277,0.12449646
1627,A,442616208320240,11.3554535,-2.3606567,5.488617,-0.52337646,0.2891693,0.0617218
1627,A,442616228461841,11.245712,-5.0531006,4.3443604,0.09307861,0.1494751,0.0013580322
1627,A,442616248603443,10.162537,-5.481369,3.774582,0.25935364,-0.009674072,-0.3338623
1627,A,442616268745044,11.098145,-5.1540375,2.4163818,0.18145752,-0.85780334,-0.18591309
1627,A,442616288886646,13.400192,-4.1502533,2.293991,0.38954163,-1.7582245,0.22695923
1627,A,442616309028247,14.604065,-2.4503937,2.5868835,0.90644836,-1.3384552,0.43333435
1627,A,442616329169849,13.718918,-1.2637177,1.2412262,1.5997467,-0.78201294,0.34062195
1627,A,442616349311451,11.830185,-0.5096741,-0.032058716,1.3484955,-0.5578003,0.7202759
1627,A,442616369453052,9.669464,0.110458374,-0.70803833,0.63056946,-0.5897827,0.5910187
1627,A,442616389594654,7.3904266,0.315979,-1.9859161,0.40960693,0.15945435,-0.2199707
1627,A,442616409736255,5.615204,0.26708984,-2.2761688,0.542099,-0.54519653,0.009628296
1627,A,442616429877857,4.9161224,0.66967773,-0.49861145,0.2484436,-0.8587494,0.6405945
1627,A,442616450019458,4.5746613,1.294754,0.47976685,0.24345398,-0.5923462,0.2795868
1627,A,442616470161060,3.5882263,1.6151581,-0.26423645,-0.28115845,0.9432831,0.53370667
1627,A,442616490302662,2.406189,1.6971283,-1.4068451,-0.11250305,0.4519806,-0.9211731
1627,A,442616510444263,2.8275757,0.806427,-3.283371,-0.3478546,0.92048645,-1.6266632
1627,A,442616530585865,4.4953613,-0.29348755,-3.7231445,-1.2133484,0.16918945,-1.1933289
1627,A,442616550727466,6.276581,-1.3194275,-3.8611908,-0.92326355,2.6018066,-0.5092163
1627,A,442616570869068,8.560623,-2.4129028,-3.857666,-1.3634033,1.1668854,0.19239807
1627,A,442616591017266,11.289886,-4.0876617,-3.1550598,-1.318985,0.52745056,0.2980652
1627,A,442616611158868,15.179871,-3.983612,-1.7051392,-0.20872498,0.21673584,0.057617188
1627,A,442616631300469,14.619812,-4.3143463,-6.677292,0.14945984,0.18084717,-0.31443787
1627,A,442616651442071,13.096603,-3.4567719,-8.763596,0.8968353,-0.20306396,-0.6680145
1627,A,442616671583673,10.577698,-2.0308075,-8.288284,0.7158356,-1.2804108,0.049804688
1627,A,442616691725274,8.875809,-0.9623718,-4.9642334,-0.1904602,-1.5337677,0.30044556
1627,A,442616711866876,10.909958,-0.62054443,4.781357,0.8474121,-0.92948914,0.4114685
1627,A,442616732008477,15.835922,-2.7275238,4.14476,1.7720795,-0.86883545,0.47657776
1627,A,442616752150079,13.28157,-1.3374329,3.7109833,1.9994354,-0.7820587,0.54815674
1627,A,442616772291680,12.074783,1.5584717,3.6890564,0.756546,0.20887756,0.127594
1627,A,442616792433282,13.737503,3.3856812,2.0252686,0.13542175,0.34231567,-0.19537354
1627,A,442616812574884,12.964661,2.0219421,-1.8370819,0.46362305,-0.62046814,0.27716064
1627,A,442616832716485,11.61853,1.5048065,-0.77467346,0.04371643,-0.841568,0.38700867
1627,A,442616852858087,10.357773,0.97691345,0.35565186,-0.03465271,-0.23576355,0.17521667
1627,A,442616872999688,9.8498535,-2.245102,-1.9778748,-0.4064026,1.0869141,-0.09648132
1627,A,442616893141290,5.656082,-2.8520508,-2.0097198,0.105041504,0.64105225,-0.850708
1627,A,442616913282891,2.5100098,-3.1356049,-2.2805176,-0.8369293,0.9216614,-0.8701019
1627,A,442616933424493,1.4833527,-1.8281097,-2.0776825,-1.5430603,0.8566284,-0.83283997
1627,A,442616953566094,1.5486298,-1.509018,-1.1155243,-1.983078,1.7465515,-0.27122498
1627,A,442616973707696,5.3880463,-2.8979797,0.37547302,-2.0489807,0.66477966,0.27807617
1627,A,442616993849298,7.1168976,-3.151703,-0.4221344,-1.142868,0.19087219,0.118499756
1627,A,442617013990899,8.418732,-1.3588257,-4.6754,0.11781311,0.15640259,-0.12542725
1627,A,442617034132501,9.098816,1.4234314,-2.120346,-0.03881836,0.10256958,-0.48703003
1627,A,442617054274102,10.1197815,3.110489,1.5915222,0.56851196,-0.539978,-0.5433502
1627,A,442617074415704,11.316086,2.3365326,-0.28024292,0.33265686,-1.7669067,0.03526306
1627,A,442617094557305,12.922333,3.375351,-0.8908081,-0.011489868,-1.7499847,0.47123718
1627,A,442617114698907,13.169846,4.711899,-1.3567963,1.5542603,-1.2629089,0.43493652
1627,A,442617134840509,12.0347595,4.3686676,-1.8533173,2.2543182,-0.45507813,0.429245
1627,A,442617154982110,11.696457,2.6550293,-1.5717316,1.9411469,-0.21759033,0.47387695
1627,A,442617175123712,11.048431,1.5531158,6.317734,0.90101624,0.47019958,-0.034942627
1627,A,442617195265313,10.483719,-2.2674408,5.8763885,0.107177734,0.17832947,-0.09111023
1627,A,442617215406915,10.215378,-3.877472,4.858078,0.252182,-0.3267517,0.37167358
1627,A,442617235548516,10.374939,-3.1909485,3.0765686,-0.020935059,-0.9020691,0.41682434
1627,A,442617255690118,13.92514,-2.5794983,-1.6626282,-0.17533875,0.08216858,0.28372192
1627,A,442617275831719,14.898651,-2.6524353,-0.71092224,-0.5048523,0.77098083,-0.12669373
1627,A,442617295973321,15.39476,-2.6589813,0.8118439,-0.44073486,0.81936646,-0.98939514
1627,A,442617316114923,13.816528,-2.2966309,1.6558838,-1.135315,1.0288696,-1.0232544
1627,A,442617336256524,11.369568,-1.3596039,1.0900116,-1.0390015,0.77679443,-0.87461853
1627,A,442617356398126,8.9613495,-0.14767456,0.6895294,-1.8354645,1.5583344,-0.4180298
1627,A,442617376539727,6.8379364,0.8434448,0.20832825,-2.0032806,0.9081726,0.283432
1627,A,442617396681329,4.4641266,1.1812744,-0.035079956,-1.1787109,0.3710022,0.26252747
1627,A,442617416822930,2.4332733,0.96681213,-0.34272766,0.030899048,0.22537231,-0.05567932
1627,A,442617436964532,1.8530579,0.8409729,-1.424942,-0.0716095,0.28710938,-0.48843384
1627,A,442617457106134,2.3405457,0.6843872,-2.1601105,0.40342712,-0.28260803,-0.5696106
1627,A,442617477247735,3.3580322,0.28050232,-1.2763977,0.31401062,-1.2833252,-0.14050293
1627,A,442617497389337,4.43309,-0.4187317,-1.2606201,-0.007019043,-1.5585175,0.3032074
1627,A,442617517530938,6.1916656,-0.5297699,-2.1196747,0.9431915,-1.3274078,0.4292755
1627,A,442617537672540,8.184021,-1.7470398,-5.020035,2.239273,-0.3421631,0.5282593
1627,A,442617557814141,10.574173,-2.6260223,-5.8851013,1.9623108,-0.443161,0.8282776
1627,A,442617577955743,13.209091,-2.7172241,-3.4568176,0.98439026,0.11578369,0.34684753
1627,A,442617598097344,14.643829,-3.5345306,-2.919281,0.38220215,0.40396118,-0.10472107
1627,A,442617618238946,14.063522,-4.9230347,-6.6858826,0.20394897,-0.3574524,0.21818542
1627,A,442617638380548,13.148834,-3.8964386,-8.788208,-0.13819885,-0.7956085,0.8471832
1627,A,442617658522149,12.369629,-2.0342712,-5.6726227,-0.3766632,-0.35025024,0.48469543
1627,A,442617678663751,14.595627,-2.3702545,2.8551178,-0.6174164,0.5716553,0.042053223
1627,A,442617698805352,16.03476,-2.1095886,7.8085938,-0.32034302,1.0748596,-0.8232422
1627,A,442617718946954,11.859146,0.358078,5.0917053,-0.30950928,1.0623932,-1.0206451
1627,A,442617739088555,7.6233215,3.173233,3.6778107,-0.7703552,0.47113037,-0.9336395
1627,A,442617759230157,10.295807,4.570877,2.4058685,-1.7832489,1.5193024,-0.7209015
1627,A,442617779371759,12.847168,3.5014038,1.0853729,-1.892807,0.919693,0.15589905
1627,A,442617799513360,11.822113,1.1736603,0.18489075,-1.5710602,-0.0035247803,0.24998474
1627,A,442617819654962,10.472427,0.1277008,-1.7832794,-0.3447876,0.12757874,-0.17614746
1627,A,442617839796563,7.0859222,-1.978302,-2.7065125,-0.0605011,0.1852417,-0.37730408
1627,A,442617859938165,5.3778687,-3.2835388,-1.2990265,0.32228088,0.023162842,-0.38757324
1627,A,442617880079766,4.4193573,-3.1249695,0.29286194,0.91000366,-0.97691345,-0.17022705
1627,A,442617900221368,3.7842255,-1.7015533,1.1059113,0.49665833,-1.7760925,0.38905334
1627,A,442617920362969,4.3261414,-0.35429382,-0.38180542,1.2088623,-1.2705383,0.5104675
1627,A,442617940504571,6.0290833,-0.37806702,-2.2911224,2.1595154,-0.8423004,0.59091187
1627,A,442617960646173,7.859436,-0.78582764,-2.4339447,2.118393,-0.44041443,0.717453
1627,A,442617980787774,8.516968,-0.35902405,-2.2639313,1.4501343,-0.068359375,0.30285645
1627,A,442618000929376,8.895142,1.1794586,-1.654953,0.41738892,0.41578674,-0.11088562
1627,A,442618021070977,8.944031,2.5673828,-0.87794495,0.13520813,-0.11883545,0.1793518
1627,A,442618041212579,8.891083,2.9138641,-0.80488586,0.21920776,-0.5393219,0.35632324
1627,A,442618061354180,9.653519,3.7358398,-0.17448425,0.024932861,-0.6092682,-0.087646484
1627,A,442618081495782,10.911331,5.477417,0.78067017,-0.99909973,1.407959,0.23010254
1627,A,442618101637384,11.442871,5.564575,-0.6202698,0.05253601,0.2940979,-0.6751251
1627,A,442618121778985,11.26297,3.2355042,-2.2991333,0.034072876,1.222229,-1.281311
1627,A,442618141920587,10.8137665,0.5194855,-0.23526001,-1.1243591,0.37200928,-0.8696747
1627,A,442618162062188,10.672043,-1.5913696,4.3646393,-1.8254852,1.282486,-0.6665039
1627,A,442618182203790,11.11908,-2.1746979,5.7075043,-2.06073,0.88549805,0.10510254
1627,A,442618202345391,11.290726,-1.5261841,5.8468933,-1.7561798,0.15715027,0.16815186
1627,A,442618222486993,13.369003,-2.2382507,1.8774261,-0.19612122,0.2232666,-0.10975647
1627,A,442618242628594,16.362946,-3.7577515,-2.1380768,0.14433289,0.14883423,-0.31166077
1627,A,442618262770196,16.505905,-4.4395905,-1.6528931,0.5393982,-0.09547424,-0.5145874
1627,A,442618282911798,14.153091,-3.8189392,1.6424408,0.76516724,-1.175003,-0.17297363
1627,A,442618303053399,11.621994,-2.5231323,2.6868591,0.1631012,-1.687973,0.38391113
1627,A,442618323195001,9.04306,-1.0723572,2.7096405,1.1545563,-1.2189331,0.5392761
1627,A,442618343336602,6.5303497,0.114593506,2.345642,2.2515564,-0.76698303,0.597641
1627,A,442618363478204,4.750885,0.7749939,1.5428009,1.9069214,-0.37600708,0.8697815
1627,A,442618383619805,3.2016754,1.2929382,0.9954834,1.2816772,0.28909302,0.114105225
1627,A,442618403761407,2.0514832,1.5996399,-0.42547607,0.1570282,-0.035827637,-0.09022522
1627,A,442618423903009,2.3957672,1.7608032,-2.8696747,0.31829834,-0.2943573,0.30474854
1627,A,442618444044610,4.5094604,1.0533142,-3.8729858,-0.28198242,-0.6494293,0.47175598
1627,A,442618464186212,6.600113,-0.40423584,-2.9754028,-0.39398193,-0.089660645,0.17166138
1627,A,442618484327813,7.130844,-2.0501862,-2.1856232,-0.59173584,0.85824585,-0.011505127
1627,A,442618504469415,7.3982544,-3.2613678,-3.3847656,-0.22052002,0.7920685,-0.8066406
1627,A,442618524611016,9.204987,-2.186676,-5.1306,-0.4338684,1.0120392,-0.9179535
1627,A,442618544752618,11.377563,0.83877563,-3.581421,-0.74427795,0.25474548,-0.7843323
1627,A,442618564894219,13.104706,1.2961578,-2.067215,-1.3422394,1.203598,-0.6956024
1627,A,442618585035821,13.632187,-3.1432953,-4.9141083,-1.8032837,0.92707825,-0.07624817
1627,A,442618605177423,13.252167,-5.751877,-7.9921417,-1.5462341,0.439682,0.24685669
1627,A,442618625319024,11.647858,-4.5339203,-6.425308,-0.43074036,0.2532196,0.009246826
1627,A,442618645460626,11.31572,-3.5618591,0.30770874,-0.021026611,0.09402466,-0.27297974
1627,A,442618665602227,14.402359,-2.5480042,6.515503,0.59169006,-0.0043792725,-0.42564392
1627,A,442618685743829,14.249527,0.6555786,6.2230988,0.8776245,-1.0623169,-0.12864685
1627,A,442618705885430,10.067505,4.2494507,4.289673,0.24977112,-1.8901215,0.44534302
1627,A,442618726027032,10.2901,5.456131,1.6581421,0.75257874,-1.3588715,0.5573578
1627,A,442618746168634,11.936432,2.8665771,-1.3532867,2.0951385,-0.51278687,0.47027588
1627,A,442618766310235,11.449493,0.04901123,-0.6362457,1.8663635,-0.17784119,0.6975708
1627,A,442618786451837,10.13266,-1.2539978,0.75157166,1.2478638,0.4760437,0.14198303
1627,A,442618806593438,7.683182,-1.7463379,0.48120117,0.184906,0.64564514,-0.31504822
1627,A,442618826735040,5.267624,-2.4680023,-0.36523438,0.3079071,-0.21269226,0.06726074
1627,A,442618846876641,4.0019836,-2.8905945,-1.0240784,-0.1748352,-0.61795044,0.5409088
1627,A,442618867018243,4.037964,-1.6628418,-0.46089172,-0.28637695,-0.4334259,0.7536316
1627,A,442618887159844,4.5687103,0.14012146,-1.1603241,-0.099243164,0.4250183,-0.33496094
1627,A,442618907301446,5.7908783,1.1118317,-3.0373688,-0.171875,1.1033478,-0.9553833
1627,A,442618927443048,7.786255,0.6916809,-1.1671448,-0.61564636,0.8511658,-0.8770447
1627,A,442618947584649,8.411118,0.98405457,-0.97740173,-1.2481842,0.9592438,-0.8377838
1627,A,442618967726251,8.667557,1.4431152,-1.6479034,-1.7847748,1.0704346,-0.5883484
1627,A,442618987867852,8.963425,1.8412476,-1.8897247,-1.8078766,0.48687744,0.02507019
1627,A,442619008009454,9.1918335,1.6680756,-1.4101257,-1.4429169,0.17619324,0.17082214
1627,A,442619028151055,9.787659,1.9841461,0.1509552,-0.29745483,0.17655945,-0.026733398
1627,A,442619048292657,10.906265,3.9496002,2.7108002,-0.39343262,0.0013885498,-0.3447876
1627,A,442619068434259,11.931,4.1289673,-0.09176636,0.25474548,-0.20695496,-0.404068
1627,A,442619088575860,12.008255,2.476059,-2.8791046,0.73002625,-1.0936279,-0.12820435
1627,A,442619108717462,12.486191,1.8225098,-1.3978882,-0.0901947,-2.0888824,0.46289063
1627,A,442619128859063,12.383774,1.0697021,6.826599,1.193039,-1.234436,0.4308777
1627,A,442619149000665,11.893066,-0.6383667,6.7914734,2.4064178,-0.5397644,0.5373535
1627,A,442619169142266,10.959656,-1.9804688,5.6177216,2.0383759,-0.12826538,0.8266907
1627,A,442619189283868,11.032715,-3.8559418,1.9342499,1.4253235,0.06262207,0.22096252
1627,A,442619209425469,14.3181305,-3.1341858,-0.46894836,0.31526184,0.285614,-0.23683167
1627,A,442619229567071,15.73027,-2.6297913,0.87397766,0.16320801,-0.14863586,-0.024917603
1627,A,442619249708673,13.944809,-2.7470093,2.6094208,-0.044296265,-0.51423645,0.51138306
1627,A,442619269850274,10.777161,-2.2545624,2.2959747,-0.09013367,-0.5465088,0.34707642
1627,A,442619289991876,8.242249,-1.4798737,0.38331604,-0.4550171,0.549942,-0.0066833496
1627,A,442619310133477,6.95372,0.10580444,0.18734741,-0.15133667,0.59025574,-0.6847229
1627,A,442619330275079,5.9319763,1.4421844,0.35125732,-0.3874817,1.1163788,-0.9596863
1627,A,442619350416680,4.724472,2.1819,-0.47254944,-0.67059326,0.7770233,-0.97229004
1627,A,442619370558282,3.8389893,1.7254639,-0.97691345,-1.510849,1.5430756,-0.70277405
1627,A,442619390699884,4.465088,1.5622101,-1.5016174,-1.8414001,0.71899414,0.12657166
1627,A,442619410841485,5.6694336,1.1527405,-0.5706787,-1.715744,0.0705719,0.25190735
1627,A,442619430983087,5.6799774,0.48983765,-0.92752075,-0.4300232,0.10519409,-0.07003784
1627,A,442619451124688,5.1162415,-0.53660583,-2.0575104,-0.10391235,0.13415527,-0.41056824
1627,A,442619471266290,6.025894,-1.4337006,-4.4386444,0.3568573,0.01737976,-0.50743103
1627,A,442619491407891,8.030823,-2.068039,-5.2653503,0.9601593,-0.93003845,-0.3138733
1627,A,442619511549493,9.159592,-2.849823,-2.588272,0.22425842,-1.8352356,0.3050537
1627,A,442619531691094,11.10817,-3.2269135,-0.3768463,0.78160095,-1.1490021,0.5048218
1627,A,442619551832696,13.58989,-2.7570648,-1.6004639,1.9812927,-0.52223206,0.4311676
1627,A,442619571974298,13.677216,-2.277649,-8.153519,1.7900391,-0.2117157,0.728714
1627,A,442619592115899,11.99321,-1.0654297,-6.467682,1.1978302,0.27368164,0.27340698
1627,A,442619612257501,8.778778,-1.4041748,-4.682373,0.37528992,0.53541565,-0.19641113
1627,A,442619632399102,7.929901,-4.457428,-0.84251404,0.42588806,-0.06338501,0.062057495
1627,A,442619652540704,14.085342,-3.0690002,5.765274,0.1056366,-0.5353241,0.4452057
1627,A,442619672682305,16.817703,-1.7583618,3.93721,0.038330078,-0.6830292,0.20835876
1627,A,442619692823907,13.400253,2.3286133,4.5918427,-0.48414612,0.73075867,0.25952148
1627,A,442619712965509,14.308258,3.4595184,2.5867157,-0.060653687,0.039276123,-0.56173706
1627,A,442619733107110,13.630859,1.4061432,0.5391693,-0.6707001,0.96977234,-1.0217285
1627,A,442619753248712,13.0299835,-0.078552246,1.166626,-1.3357544,0.569458,-0.7750244
1627,A,442619773390313,11.45723,-0.45306396,2.1477814,-1.7176971,1.2132568,-0.6055908
1627,A,442619793531915,9.487289,-1.8649902,0.44586182,-2.2603302,0.8497009,4.5776367E-5
1627,A,442619813673516,6.978058,-3.2183075,-1.4223633,-1.7090912,0.45324707,0.08190918
1627,A,442619833815118,4.3852997,-2.2045288,-2.0476532,-0.7436676,0.21214294,0.074417114
1627,A,442619853956719,2.3065948,-0.92303467,-1.0960388,-0.099349976,0.20225525,-0.2705841
1627,A,442619874098321,1.7951508,-1.612503,-3.0376587,0.5443573,0.14942932,-0.6831665
1627,A,442619894239923,3.2205048,-3.4521484,-3.7730103,0.50419617,-1.0212097,-0.22660828
1627,A,442619914381524,6.0202484,-3.4176178,0.08618164,0.30307007,-1.8313599,0.29737854
1627,A,442619934523126,7.8181763,-2.2198792,0.6339569,0.84432983,-1.1995544,0.48554993
1627,A,442619954664727,8.15007,1.1197357,-1.1339417,1.8316803,-0.7007599,0.59417725
1627,A,442619974806329,9.08194,3.0413818,-2.8899536,2.0505066,-0.33003235,0.792099
1627,A,442619994947930,9.87384,2.511139,-0.8104248,1.2131195,0.09147644,0.5726471
1627,A,442620015089532,10.415268,1.9808197,-0.24732971,0.40092468,0.30537415,-0.14552307
1627,A,442620035231134,11.260681,4.477768,0.18473816,0.24281311,-0.055877686,-0.12998962
1627,A,442620055372735,12.283356,7.0769043,0.88638306,0.16329956,-0.3547821,0.59606934
1627,A,442620075514337,12.033249,6.371063,-1.0613708,-0.10386658,-0.6139374,0.22502136
1627,A,442620095655938,11.4921875,3.2509918,-1.6322174,-0.48910522,0.6569214,0.24317932
1627,A,442620115797540,11.204346,1.9243774,1.40979,-0.13963318,0.41220093,-0.43199158
1627,A,442620135939141,9.760178,-1.967392,6.161499,-0.18688965,1.3526001,-0.94363403
1627,A,442620156080743,10.245361,-3.2360535,5.6119843,-1.0091858,0.34980774,-0.8864441
1627,A,442620176222344,11.021942,-4.2396393,4.1412506,-1.4657135,1.355957,-0.95401
1627,A,442620196363946,13.626312,-5.6183167,-0.6680908,-2.010971,0.74142456,-0.2513275
1627,A,442620216505548,16.922348,-5.810379,-2.3528748,-1.7513733,0.4761505,0.17424011
1627,A,442620236647149,15.880402,-4.64299,1.0728455,-0.78263855,0.11204529,0.17697144
1627,A,442620256788751,13.079285,-3.2529144,1.7731934,0.0018920898,0.11697388,-0.18835449
1627,A,442620276930352,11.6645355,-1.6989136,1.7945862,0.07997131,0.24461365,-0.43969727
1627,A,442620297071954,10.236923,-0.03227234,1.7110138,0.470932,-0.37295532,-0.28572083
1627,A,442620317213555,8.028961,1.3986206,0.36244202,0.39187622,-1.5462494,0.07475281
1627,A,442620337355157,5.663391,2.0171967,-1.0344086,0.2559662,-1.5186615,0.5625305
1627,A,442620357496759,2.992859,2.0237274,-0.96118164,1.9485321,-1.0299225,0.6673889
1627,A,442620377638360,0.169281,1.8162842,-0.45637512,2.3785248,-0.48651123,0.852478
1627,A,442620397779962,-0.32002258,1.8810425,-1.3789978,1.7074432,-0.31962585,0.77378845
1627,A,442620417921563,2.2756653,1.5789032,-2.418396,1.0035248,0.11366272,-0.01574707
1627,A,442620438063165,4.29126,-0.07751465,-3.299286,-0.057769775,0.03878784,-0.20735168
1627,A,442620458204766,5.936676,-1.6669617,-3.8579712,0.22445679,-0.421463,0.254776
1627,A,442620478346368,8.786224,-2.584198,-4.003433,-0.35464478,-0.7862549,0.49572754
1627,A,442620498487969,12.082535,-2.0950775,-3.2605133,-0.5041504,0.23721313,0.33407593
1627,A,442620518629571,14.20816,-1.6858978,-2.9046326,-0.40522766,0.4812317,-0.32463074
1627,A,442620538771173,14.562683,-3.666626,-4.699478,-0.1355133,1.0219269,-0.8171997
1627,A,442620558912774,13.489883,-5.0487823,-7.4782104,-0.24404907,0.6658783,-0.8747864
1627,A,442620579054376,12.086975,-3.4176788,-11.704605,-0.7663574,1.0358429,-0.88368225
1627,A,442620599195977,9.604721,-2.299118,-9.0854645,-1.5698853,1.216095,-0.61886597
1627,A,442620619337579,11.225067,-2.949417,3.0853882,-1.7080383,0.8169098,0.004760742
1627,A,442620639479180,15.550262,-3.583603,7.015518,-1.3520203,0.044692993,0.1048584
1627,A,442620659620782,15.484314,-1.5555267,2.9649963,-0.018753052,0.027832031,-0.27153015
1627,A,442620679762384,12.624603,0.9499054,0.9546051,0.11897278,0.13856506,-0.52908325
1627,A,442620699903985,11.887878,2.0541992,1.9198914,0.54356384,-0.18614197,-0.4892273
1627,A,442620720045587,12.898956,2.9213562,2.8880463,0.5423126,-1.3876953,-0.1965332
1627,A,442620740187188,11.855072,2.2900543,2.458725,0.10398865,-1.6706085,0.4303894
1627,A,442620760328790,10.454575,0.66952515,0.5704956,1.4006042,-1.1807556,0.53474426
1627,A,442620780470391,8.836044,-1.2626648,-1.0551453,1.7206421,-0.68130493,0.5673065
1627,A,442620800611993,6.68309,-2.5054626,-1.2457428,1.4037323,-0.27438354,0.7132416
1627,A,442620820753594,5.8932037,-2.2593994,-1.0559082,0.8989563,0.46697998,0.018325806
1627,A,442620840895196,4.309204,0.64468384,0.15667725,0.06109619,0.49136353,-0.2823944
1627,A,442620861036798,0.62323,0.7425537,-1.9647827,0.4630127,-0.36392212,0.39123535
1627,A,442620881178399,2.2588959,-2.503067,-4.108536,-0.13394165,-0.76690674,0.7057953
1627,A,442620901320001,6.419922,-3.3397675,-1.3426056,-0.21151733,0.03501892,0.29658508
1627,A,442620921461602,8.653534,-2.2619781,0.5098877,-0.3287964,0.43699646,0.026382446
1627,A,442620941603204,9.768417,-0.87158203,-1.5961304,-0.27194214,0.6734314,-0.8098755
1627,A,442620961744805,10.022217,0.03869629,-2.140442,-0.8135681,0.9294739,-0.86828613
1627,A,442620981886407,10.375961,1.1774597,0.1312561,-0.8213196,1.0017242,-0.791687
1627,A,442621002028009,11.678421,3.5359802,0.09173584,-1.6575623,1.3921509,-0.6308594
1627,A,442621022169610,12.958939,5.8437347,-0.35980225,-1.8697662,0.88793945,-0.0060272217
1627,A,442621042311212,12.5824585,7.1007233,-1.06633,-1.5214081,0.40911865,0.16792297
1627,A,442621062452813,11.757874,5.5871124,-1.8798065,-0.43495178,0.12556458,2.746582E-4
1627,A,442621082594415,12.311539,4.068039,-0.361557,-0.3835144,0.18849182,-0.35136414
1627,A,442621102736016,11.532654,2.5135803,4.5451355,0.19924927,-0.14035034,-0.5097046
1627,A,442621122877618,10.43779,-0.3780365,4.795288,0.60398865,-1.0611725,-0.24307251
1627,A,442621143019219,9.930481,-3.2292328,4.2694397,0.62597656,-1.8615265,0.37271118
1627,A,442621163160821,10.911133,-5.124695,3.4372406,1.2931061,-1.210083,0.54901123
1627,A,442621183302423,13.859863,-6.002945,2.0375671,2.1672668,-0.721756,0.7129059
1627,A,442621203444024,15.378662,-5.989975,1.0035858,2.2588196,-0.30680847,0.9328766
1627,A,442621223585626,15.068481,-4.69841,0.46162415,1.5809479,-0.23986816,0.3399048
1627,A,442621243727227,12.966934,-2.393036,0.42616272,0.43737793,0.14241028,-0.27630615
1627,A,442621263868829,10.406143,-0.65904236,0.105148315,0.03755188,-0.11135864,-0.09347534
1627,A,442621284010430,8.233124,0.54556274,0.43226624,0.06686401,-0.33311462,0.30247498
1627,A,442621304152032,5.568344,0.8260956,0.19537354,0.057907104,-0.8238983,-0.038726807
1627,A,442621324293634,3.0519867,0.61335754,0.3592224,-0.41056824,0.9653473,0.11706543
1627,A,442621344435235,2.4387512,0.9048004,0.874527,-0.07495117,0.2243042,-0.35783386
1627,A,442621364576837,3.2122498,1.7013397,-0.091171265,-0.46165466,0.98890686,-1.0681152
1627,A,442621384718438,2.9878082,1.9184113,-1.0062103,-0.87493896,0.5738373,-0.8439331
1627,A,442621404860040,3.7974854,1.8935242,-2.1595612,-1.6109619,0.92930603,-0.7324829
1627,A,442621425001641,5.1500854,0.48823547,-3.5203094,-2.2872772,1.1309509,-0.2854004
1627,A,442621445143243,7.077362,-1.4130249,-4.673813,-1.881897,0.65678406,0.19546509
1627,A,442621465284844,9.020905,-2.6396027,-4.5409546,-0.916687,0.14529419,0.23144531
1627,A,442621485426446,10.956879,-1.8018494,-1.2868195,-0.06855774,0.11042786,-0.22512817
1627,A,442621505568048,12.508667,-0.9085541,-1.2682648,0.059829712,0.2447815,-0.46070862
1627,A,442621525709649,14.294678,-2.5509338,-4.81575,0.5507202,-0.497406,-0.31697083
1627,A,442621545851251,13.389984,-4.2265778,-7.522766,0.46694946,-1.742981,0.14820862
1627,A,442621565992852,12.246338,-3.6483154,-6.919815,0.47642517,-1.4636841,0.5422058
1627,A,442621586134454,10.399063,-3.7536469,-5.697052,1.8749695,-0.8059082,0.55018616
1627,A,442621606276055,12.88121,-2.5273743,5.5171814,2.078537,-0.15196228,0.7194519
1627,A,442621626417657,15.342133,-2.5918884,5.8109894,1.6022949,-0.11172485,0.61079407
1627,A,442621646559259,12.447052,0.7015991,4.760544,0.6556244,0.21878052,-0.11602783
1627,A,442621666700860,9.040817,3.3864288,4.4915924,0.10595703,-0.06452942,-0.10710144
1627,A,442621686842462,12.141083,4.9440155,3.0887299,0.056015015,-0.6783905,0.5198822
1627,A,442621706984063,12.928696,2.374298,0.42442322,-0.18692017,-0.85476685,0.30847168
1627,A,442621727125665,12.783966,-0.32951355,0.14802551,-0.5815582,0.9064026,0.25076294
1627,A,442621747267266,11.344879,-1.4621124,-0.52545166,-0.17704773,0.15145874,-0.3500824
1627,A,442621767408868,8.506454,-2.14682,-1.2561493,0.026138306,1.048996,-1.1753082
1627,A,442621787550469,5.855179,-2.2277222,-1.6680298,-0.6095581,0.5452423,-0.8621521
1627,A,442621807692071,3.874588,-2.0052948,-0.7382965,-1.4086456,1.2851563,-0.82725525
1627,A,442621827833673,2.5124054,-1.0040436,0.23713684,-2.1924896,1.1499939,-0.21011353
1627,A,442621847975274,2.5194702,-0.77334595,0.48776245,-1.8593903,0.45083618,0.23101807
1627,A,442621868116876,4.1165924,-1.7269745,0.028839111,-0.67723083,0.04185486,0.049697876
1627,A,442621888258477,6.9635773,-2.0040436,-1.0988922,0.038650513,0.11149597,-0.23806763
1627,A,442621908400079,8.293289,-0.40097046,-4.2815857,-0.24751282,0.17626953,-0.3473053
1627,A,442621928541680,9.2425995,1.9051208,-2.7770233,0.83940125,-0.27903748,-0.31555176
1627,A,442621948683282,9.53952,2.4323425,0.26438904,0.7445526,-1.6243286,0.121520996
1627,A,442621968824884,9.4882965,1.5206909,1.3926239,0.17773438,-1.5740356,0.5545044
1627,A,442621988966485,10.883469,2.7988586,0.65312195,1.8650513,-0.7992859,0.5233154
1627,A,442622009108087,12.919708,4.143112,-0.83161926,2.2163086,-0.48687744,0.56825256
1627,A,442622029249688,13.420425,2.9165344,-2.7789917,1.6932373,-0.229599,0.7328491
1627,A,442622049391290,12.581558,2.3003998,-2.721634,0.67388916,0.28987122,0.050323486
1627,A,442622069532891,12.026978,1.6473541,0.19013977,-0.14024353,-0.0619812,-0.042510986
1627,A,442622089674493,9.89682,-1.3509521,6.111557,0.25993347,-0.32452393,0.34510803
1627,A,442622109816094,9.160431,-3.0796814,6.2677,-0.086380005,-0.8790436,0.38468933
1627,A,442622129957696,9.488739,-2.4699402,6.1457214,-0.33573914,0.43893433,0.31115723
1627,A,442622150099298,10.842636,-1.5799408,4.3827667,-0.29727173,0.32385254,-0.22277832
1627,A,442622170240899,13.6189575,-1.8265991,0.68966675,-0.17599487,1.1920624,-0.8986206
1627,A,442622190382501,15.15387,-2.20018,0.52305603,-0.29135132,0.60849,-0.90930176
1627,A,442622210524102,14.891541,-1.855835,0.6042938,-0.967865,0.95002747,-0.7953949
1627,A,442622230665704,12.7560425,-1.3191681,0.75309753,-1.6994019,1.0283813,-0.49642944
1627,A,442622250807305,10.648453,-0.1869812,0.59677124,-1.552002,0.69425964,0.13772583
1627,A,442622270948907,8.198654,0.4788971,-0.34481812,-1.15802,0.06993103,0.20791626
1627,A,442622291090509,6.403549,0.89331055,-0.44665527,-0.100112915,0.116378784,-0.21398926
1627,A,442622311232110,4.1950073,0.796463,0.30638123,0.07122803,0.28108215,-0.4407196
1627,A,442622331373712,2.8671112,1.046814,1.8622284,0.7340851,-0.08711243,-0.3608551
1627,A,442622351515313,3.108078,1.4702148,1.3708649,0.82881165,-1.2298279,-0.062942505
1627,A,442622371656915,3.6115265,1.1080322,-1.2173309,0.20022583,-1.7713165,0.39562988
1627,A,442622391798516,4.0452423,0.03326416,-3.6222534,1.3151855,-0.8010559,0.4914856
1627,A,442622411940118,4.8617096,-1.0179749,-3.343567,2.0733948,-0.56336975,0.7056885
1627,A,442622432081719,5.9591827,-1.7893066,-2.5273438,1.2352905,-0.3249359,0.9734497
1627,A,442622452223321,7.621872,-2.433014,-3.3580627,0.9207001,0.11480713,0.059158325
1627,A,442622472364923,9.2304535,-3.0276184,-3.7256927,-0.005844116,0.2638855,-0.33003235
1627,A,442622492506524,11.475006,-4.133255,-2.9231262,0.28962708,-0.17819214,0.074279785
1627,A,442622512648126,14.18811,-4.520294,-2.1016235,-0.16217041,-0.5268707,0.5207825
1627,A,442622532789727,14.39093,-3.1007385,-5.2068787,0.0036773682,-0.46618652,-0.15693665
1627,A,442622552931329,12.486206,-1.6288605,-8.887527,-0.62016296,0.9731293,0.15634155
1627,A,442622573072930,11.202927,-1.0042877,-7.7345734,0.26249695,-0.14512634,-0.34153748
1627,A,442622593214532,11.8003235,-1.4386292,-1.3948822,-0.46520996,0.9428711,-0.95422363
1627,A,442622613356134,13.928207,-1.2554169,6.3618774,-1.1356354,0.7303009,-0.76652527
1627,A,442622633497735,13.640228,-0.8439331,5.5453186,-1.3186493,1.131424,-0.7032318
1627,A,442622653639337,11.090057,0.594635,3.8793793,-2.0037994,0.9855499,-0.17474365
1627,A,442622673780938,10.989822,1.9279022,1.3748016,-1.714798,0.6434784,0.2048645
1627,A,442622693922540,13.006866,2.1723633,-0.38005066,-0.8172455,0.24595642,0.13853455
1627,A,442622714064141,13.606995,1.3345337,0.6443634,-0.14949036,0.16485596,-0.2581482
1627,A,442622734205743,12.337082,0.6716614,1.3844452,-0.19903564,0.177948,-0.39614868
1627,A,442622754347344,10.540207,-0.52111816,0.18652344,0.4974823,-0.4073639,-0.3041687
1627,A,442622774488946,7.812088,-2.446701,-1.4852295,0.6084137,-1.4832001,0.049621582
1627,A,442622794630548,4.6029663,-3.0980682,-2.277237,0.17475891,-1.6343536,0.5523529
1627,A,442622814772149,2.5671082,-2.240036,-1.8800354,1.6064606,-0.7612152,0.505249
1627,A,442622834913751,1.845932,-1.8969727,-1.140686,2.1317902,-0.36917114,0.6150665
1627,A,442622855055352,2.6592102,-3.0111542,-0.43901062,1.7725983,-0.13626099,0.5723877
1627,A,442622875196954,5.354965,-3.4039307,-0.44381714,0.79577637,0.16444397,-0.016921997
1627,A,442622895338555,8.209686,-1.6860352,-2.0394592,0.14703369,0.16201782,-0.16098022
1627,A,442622915480157,9.469925,0.87187195,-2.1802673,0.4776001,-0.63049316,0.37750244
1627,A,442622935621759,9.539642,2.1253662,-0.7579498,0.23345947,-0.93463135,0.2166748
1627,A,442622955763360,9.32341,1.7158966,-0.5251007,-0.1487732,0.6531677,0.34346008
1627,A,442622975904962,10.162064,2.2311401,-0.81015015,-0.1354065,-0.0069122314,-0.17825317
1627,A,442622996046563,11.427902,4.8462524,0.10813904,-0.52059937,0.621109,-1.1703949
1627,A,442623016188165,11.675369,6.5785522,0.39949036,-0.9195862,1.115921,-0.7836914
1627,A,442623036329766,11.534637,5.113907,-1.012497,-1.4152527,1.1949158,-0.7080231
1627,A,442623056471368,12.176498,3.0329132,0.23124695,-2.219757,1.2283783,-0.2836914
1627,A,442623076612969,11.658112,0.4713745,4.824524,-1.9677124,0.79533386,0.048217773
1627,A,442623096754571,11.211639,-1.6399231,6.6421204,-1.2187195,0.26324463,0.03677368
1627,A,442623116896173,10.81189,-2.5548096,5.4917755,-0.22286987,0.09719849,-0.19033813
1627,A,442623137037774,10.578369,-4.3272705,1.8554688,0.050338745,0.260849,-0.6105499
1627,A,442623157179376,13.548645,-4.262024,0.24882507,0.71307373,-0.7377777,-0.5032959
1627,A,442623177320977,15.663315,-3.6337128,0.3854828,0.29327393,-1.9197693,0.17176819
1627,A,442623197462579,15.354248,-3.55365,1.1902161,0.37138367,-1.677948,0.48016357
1627,A,442623217604180,13.819641,-3.390915,1.6129761,1.7631226,-0.7311859,0.55381775
1627,A,442623237745782,11.9861145,-2.3991241,1.2689056,2.1094208,-0.40716553,0.96232605
1627,A,442623257887384,9.931183,-0.6929779,1.0165405,1.4585724,-0.07725525,0.8523712
1627,A,442623278028985,7.5197144,1.0113983,0.7514496,0.87727356,0.25654602,0.005004883
1627,A,442623298170587,4.801361,1.4224854,-0.21263123,0.19685364,-0.31150818,-0.07029724
1627,A,442623318312188,2.3250427,1.277771,-0.3352356,0.12147522,-0.17996216,0.3552246
1627,A,442623338453790,0.89953613,1.3534698,-0.6132355,-0.21218872,-0.6470032,0.20462036
1627,A,442623358595391,0.4150238,1.5544891,-0.21131897,-0.45115662,0.40031433,0.3569641
1627,A,442623378736993,2.2705536,1.430603,-1.0523987,-0.3105774,0.19084167,-0.19248962
1627,A,442623398878594,4.509384,0.39924622,-1.3442383,-0.3256836,0.9551544,-0.9423065
1627,A,442623419020196,5.791153,-0.8969879,-2.6929016,-0.48757935,0.801178,-0.8740082
1627,A,442623439161798,7.8683014,-1.8136139,-5.675476,-0.7576294,1.0261688,-0.7918701
1627,A,442623459303399,9.898254,-2.92247,-4.204315,-1.8105927,0.98420715,-0.56855774
1627,A,442623479445001,12.661987,-3.4171143,-2.045456,-1.7554474,0.7629547,0.059265137
1627,A,442623499586602,15.101044,-2.9064941,-3.580124,-1.4045715,0.10461426,0.13606262
1627,A,442623519728204,14.250244,-3.355545,-7.319046,-0.034210205,0.16630554,-0.31425476
1627,A,442623539869805,13.666458,-3.252594,-7.100128,-0.25730896,0.35746765,-0.54374695
1627,A,442623560011407,10.364853,-1.694931,-6.644272,0.3821106,-0.19132996,-0.52745056
1627,A,442623580153009,9.332382,-2.772583,-4.501663,0.52511597,-1.2447662,-0.2508545
1627,A,442623600294610,12.013123,-2.0552216,5.239792,0.18948364,-1.7888336,0.424057
1627,A,442623620436212,13.790909,-3.4720154,3.9699097,1.5468445,-1.0826416,0.55981445
1627,A,442623640577813,11.854584,-1.4641571,3.6460724,2.2381134,-0.57899475,0.70280457
1627,A,442623660719415,10.643539,0.15771484,3.8343506,1.7387543,-0.072784424,0.92263794
1627,A,442623680861016,13.430557,1.2449036,4.179779,1.02211,0.28163147,0.20803833
1627,A,442623701002618,14.282761,1.2833099,2.6841888,0.12387085,0.2587738,-0.2502594
1627,A,442623721144219,12.836899,0.47831726,1.6268768,0.3146057,-0.23168945,-0.0064086914
1627,A,442623741285821,10.971329,-0.69496155,0.285141,-0.20506287,-0.6191406,0.48731995
1627,A,442623761427423,9.2729645,-1.3477478,-1.3429108,-0.19151306,-0.33547974,0.30690002
1627,A,442623781569024,7.9435577,-1.7650146,-1.7946014,-0.42294312,0.56617737,0.25642395
1627,A,442623801710626,5.97348,-1.5477295,-1.1381989,0.04336548,0.2884674,-0.7154541
1627,A,442623821852227,4.0852203,-0.856781,-1.0441132,-0.45864868,1.1035309,-0.8907013
1627,A,442623841993829,1.8327942,-1.0374756,-2.238449,-0.94651794,0.8455963,-0.8490143
1627,A,442623862135430,1.516449,-2.5826569,-3.4275818,-1.7835846,1.5367737,-0.83384705
1627,A,442623882277032,3.9132996,-3.4569702,-0.50886536,-1.9181824,0.8365021,-0.041641235
1627,A,442623902418634,6.073929,-2.9695892,0.0056152344,-1.5579224,0.15603638,0.20002747
1627,A,442623922560235,8.516617,0.02810669,-1.7380066,-0.19387817,0.21234131,-0.05105591
1627,A,442623942701837,9.402939,3.2778015,-1.0850677,0.15675354,0.24736023,-0.291214
1627,A,442623962843438,9.390915,5.7733154,2.09227,0.3736267,0.100357056,-0.4793396
1627,A,442623982985040,9.788391,6.4273987,-0.76956177,0.7134857,-0.90379333,-0.23544312
1627,A,442624003126641,11.871155,6.077057,-0.2819214,0.5076752,-1.911789,0.27670288
1627,A,442624023268243,12.493027,4.354141,-0.6070099,0.5670471,-1.1360474,0.48612976
1627,A,442624043409844,11.9930725,3.1068726,-2.440445,1.6452942,-0.7052765,0.51693726
1627,A,442624063551446,12.34819,2.5810394,-1.7129517,1.9434967,-0.6927643,0.74627686
1627,A,442624083693048,11.510925,0.45118713,6.221695,1.1862335,-0.1864624,0.5238495
1627,A,442624103834649,10.674545,-2.0158234,7.053055,0.36839294,0.44615173,-0.12861633
1627,A,442624123976251,10.579559,-3.796524,5.2180176,0.20048523,-0.08718872,-0.0867157
1627,A,442624144117852,10.936905,-5.108551,2.1693726,-0.1083374,-0.38894653,0.56733704
1627,A,442624164259454,13.542419,-3.3549042,0.68022156,0.014007568,-1.0020447,-0.27346802
1627,A,442624184401055,14.6719055,-2.3577728,2.3682709,-0.25878906,1.0009155,-0.061401367
1627,A,442624204542657,14.9327545,-2.1514893,2.6095734,0.40367126,-0.28416443,0.11921692
1627,A,442624224684259,13.840851,-1.6672211,2.6792603,-0.09628296,1.0318451,-0.805603
1627,A,442624244825860,12.372696,-1.5551605,1.1001892,-1.6022949,0.10223389,-0.73150635
1627,A,442624264967462,10.299942,-0.9909973,-0.6280365,-1.6234589,1.9542084,-0.64486694
1627,A,442624285109063,8.069794,0.5181885,0.04824829,-1.787262,1.0535736,-0.084472656
1627,A,442624305250665,6.492447,1.489563,1.170929,-1.7559204,0.56843567,0.09118652
1627,A,442624325392266,4.9917297,1.7380829,1.1975555,-0.79304504,0.19773865,0.038497925
1627,A,442624345533868,3.4891663,1.8820038,1.0254211,-0.20401001,0.17010498,-0.21374512
1627,A,442624365675469,2.7664948,1.8513184,0.052749634,0.28964233,0.31513977,-0.6495209
1627,A,442624385817071,2.4364777,1.6553192,-1.2472382,0.5092468,-0.5088043,-0.46635437
1627,A,442624405958673,3.5684052,0.6085663,-1.99263,4.272461E-4,-1.8387451,0.099624634
1627,A,442624426100274,4.2413635,-0.66604614,-2.1181793,0.56863403,-0.95747375,0.37023926
1627,A,442624446241876,5.5713043,-1.3717651,-4.1420593,2.1581726,-0.84913635,0.59454346
1627,A,442624466383477,7.192459,-2.2862244,-5.102417,2.3179016,-0.37782288,1.011261
1627,A,442624486525079,9.839706,-3.0696716,-2.3208466,1.519928,-0.13598633,0.9280243
1627,A,442624506666680,12.590881,-3.6216888,-1.647583,0.71769714,0.24888611,0.11074829
1627,A,442624526808282,14.12561,-4.05777,-4.659546,0.11225891,-0.11401367,-0.17074585
1627,A,442624546949884,13.298721,-4.110199,-7.674713,0.2453003,-0.33013916,0.26182556
1627,A,442624567091485,11.994751,-2.7204742,-6.7385254,-0.14160156,-0.798172,0.39909363
1627,A,442624587233087,10.42366,-2.1249237,-6.049103,-0.39118958,0.07795715,0.3584137
1627,A,442624607374688,12.605637,-3.916504,0.23414612,-0.18022156,0.20735168,0.003036499
1627,A,442624627516290,15.569565,-2.6209717,6.6685486,-0.17555237,0.8357544,-0.84194946
1627,A,442624647657891,13.761871,-0.5382385,4.0346527,-0.52937317,0.67985535,-0.88505554
1627,A,442624667799493,11.085907,1.7018585,2.6379852,-0.901001,1.0532532,-0.7844696
1627,A,442624687941094,12.256073,2.6812897,2.855774,-1.6444397,1.218277,-0.5284271
1627,A,442624708082696,13.891907,2.254715,3.242157,-1.7689362,0.86763,0.049224854
1627,A,442624728224298,12.425674,0.08102417,3.0063477,-1.4649353,0.20999146,0.20559692
1627,A,442624748365899,10.5074005,-1.2466888,1.791336,-0.2731781,0.099868774,-0.18797302
1627,A,442624768507501,9.526596,-2.8858643,-1.0424042,-0.1481018,0.21203613,-0.44448853
1627,A,442624788649102,8.109238,-3.731598,-2.1639252,0.45111084,0.054763794,-0.4508667
1627,A,442624808790704,5.8941803,-1.406189,0.39855957,0.7928314,-0.8808899,-0.33631897
1627,A,442624828932305,4.5076294,0.3144989,-0.22587585,-0.16596985,-2.0254822,0.31498718
1627,A,442624849073907,1.9719238,-0.24069214,-2.9090576,0.93196106,-1.0117645,0.48449707
1627,A,442624869215509,1.6477051,-2.1084442,-4.381714,2.4436493,-0.7921448,0.5211334
1627,A,442624889357110,3.9529572,-3.2756805,-1.3550873,1.9689331,-0.37332153,0.8379059
1627,A,442624909498712,5.7801056,-2.997589,0.7307892,1.8460083,0.11508179,0.32330322
1627,A,442624929640313,7.2510376,-1.135315,-0.73139954,0.6013031,0.37582397,-0.2546234
1627,A,442624949781915,8.717621,0.96658325,-1.3948822,0.36935425,-0.022369385,-0.32836914
1627,A,442624969923516,9.475555,1.9094543,0.019073486,0.13230896,-0.433609,0.20646667
1627,A,442624990065118,11.001755,4.0355225,0.13623047,-0.18373108,-0.790329,0.648468
1627,A,442625010206719,13.153,6.6115875,-0.20814514,-0.15248108,0.32299805,0.27272034
1627,A,442625030348321,13.613464,7.370514,-0.47424316,-0.40289307,0.66619873,-0.5216217
1627,A,442625050489923,12.796524,6.528,-1.1767731,-0.6868439,0.8360138,-0.87402344
1627,A,442625070631524,12.667419,4.9658356,-0.7133789,-1.3121948,0.8645477,-0.9433136
1627,A,442625090773126,12.191864,2.2827759,3.59523,-1.6316528,1.3089447,-0.789978
1627,A,442625110914727,11.66008,-0.26924133,6.320709,-2.0737915,0.9235687,-0.15254211
1627,A,442625131056329,10.820282,-2.3991547,5.059128,-1.5737305,0.46401978,0.1589508
1627,A,442625151197930,9.657776,-4.617569,3.3692474,-0.8077545,0.076690674,0.14945984
1627,A,442625171339532,10.966904,-5.09729,2.0061188,-0.15240479,0.103271484,-0.19892883
1627,A,442625191481134,13.983353,-4.7663727,0.84591675,-0.3697815,0.19967651,-0.49464417
1627,A,442625211622735,15.993011,-3.9700012,1.2598572,0.31929016,-0.3668213,-0.44067383
1627,A,442625231764337,15.248871,-2.6479797,1.7744293,0.40133667,-1.3379669,-0.11437988
1627,A,442625251905938,12.427536,-1.1613007,1.1972504,0.1322937,-1.7029114,0.4264984
1627,A,442625272047540,9.883789,0.06434631,0.2789154,1.7307739,-0.76916504,0.5551758
1627,A,442625292189141,8.163239,0.84298706,0.13581848,2.2592468,-0.3861847,0.7404938
1627,A,442625312330743,6.609741,1.2857208,-0.21183777,1.5838776,-0.16825867,0.9441223
1627,A,442625332472344,4.6432343,1.4937744,-0.108551025,0.9779663,0.12364197,0.21781921
1627,A,442625352613946,2.7409973,1.5906525,0.13308716,0.05973816,0.3019104,-0.35238647
1627,A,442625372755548,1.5648651,1.8478241,0.14706421,0.13095093,-0.22877502,-0.272995
1627,A,442625392897149,1.90979,2.017334,0.1725769,-0.18963623,-0.5244751,0.7401428
1627,A,442625413038751,3.317093,1.036499,-0.68370056,-0.15034485,-0.3789673,0.38378906
1627,A,442625433180352,4.2538147,-0.9136658,-2.6307678,-0.3017273,0.102996826,-0.109069824
1627,A,442625453321954,5.4069977,-2.4586792,-4.831787,-0.26730347,0.60498047,-0.48545837
1627,A,442625473463555,7.597992,-3.989746,-5.4091644,-0.79888916,0.8253937,-0.79441833
1627,A,442625493605157,10.739395,-5.361267,-3.5461578,-1.0234222,0.7758484,-0.8302765
1627,A,442625513746759,14.712814,-5.3346252,-3.193344,-1.5559235,1.1825714,-0.67697144
1627,A,442625533888360,16.71791,-3.8474426,-4.718521,-1.7439117,0.91185,-0.19581604
1627,A,442625554029962,14.714706,-3.8349457,-7.0900726,-1.4707947,0.50357056,0.14251709
1627,A,442625574171563,12.314743,-1.889328,-6.8371887,-0.64175415,0.14395142,0.023223877
1627,A,442625594313165,9.8341675,-2.1452332,-7.6505127,0.09875488,0.1347351,-0.19589233
1627,A,442625614454766,11.32695,-2.311905,0.07385254,-0.013000488,0.044265747,-0.44532776
1627,A,442625634596368,14.358337,-1.9470825,4.2919617,0.24456787,-0.7348938,-0.4564209
1627,A,442625654737969,12.241364,-1.1519318,3.1277313,-0.24687195,-1.7686157,0.04963684
1627,A,442625674879571,9.16806,1.0035858,3.6938477,0.28964233,-1.3042297,0.50190735
1627,A,442625695021173,11.347519,2.0915833,3.7640533,2.0555878,-0.79977417,0.59921265
1627,A,442625715162774,14.053345,1.5085754,4.0313416,1.8425903,-0.15901184,0.8878174
1627,A,442625735304376,14.041626,0.33190918,3.5698395,1.6958771,0.11418152,0.5934906
1627,A,442625755445977,11.452438,-0.5156555,1.0140991,0.77090454,0.09069824,-0.116363525
1627,A,442625775587579,9.264038,-1.000534,-1.28508,0.25187683,-0.13439941,-0.16389465
1627,A,442625795729180,6.879532,-1.9269562,-2.6305084,0.49450684,-0.401886,0.23573303
1627,A,442625815870782,4.897003,-1.9521484,-3.1208344,0.117126465,-0.7965698,0.0929718
1627,A,442625836012384,3.224884,-1.4214172,-1.8262634,-0.15672302,0.46322632,-0.016525269
1627,A,442625856153985,2.9182587,-1.3140259,-0.101242065,0.17643738,0.36701965,-0.27023315
1627,A,442625876295587,2.906952,-2.4576569,-0.40771484,0.1875763,1.0215149,-0.8590851
1627,A,442625896437188,4.1011353,-2.9288025,-0.78518677,-0.8377991,0.80122375,-0.9030762
1627,A,442625916578790,5.724884,-2.7441711,-1.6643524,-1.2180939,1.4485931,-0.80459595
1627,A,442625936720391,8.265579,-0.24873352,-2.332077,-2.1445007,0.9069061,-0.43447876
1627,A,442625956861993,9.358902,2.6816406,-0.1603241,-2.008072,0.7318573,0.0051574707
1627,A,442625977003594,9.820847,3.5481873,1.5176849,-1.2610016,0.094451904,0.1824646
1627,A,442625997145196,11.411499,3.7553558,-0.9211273,0.04310608,0.021148682,-0.10569763
1627,A,442626017286798,13.030518,5.868286,0.09225464,0.2949524,0.20457458,-0.49583435
1627,A,442626037428399,13.360352,5.730606,-0.40124512,0.64653015,-0.24568176,-0.41305542
1627,A,442626057570001,12.555923,4.0114136,-1.9833527,0.339859,-1.4912415,-0.017166138
1627,A,442626077711602,13.015884,2.9220886,-3.1740112,0.2006073,-1.3426971,0.30767822
1627,A,442626097853204,12.074142,1.7623901,1.2177582,1.2594147,-0.90670776,0.5079956
1627,A,442626117994805,10.745789,0.006149292,5.5476837,1.7239685,-0.6556549,0.8343506
1627,A,442626138136407,10.261871,-1.8728638,4.316513,0.8551941,-0.47328186,1.0857086
1627,A,442626158278009,8.729401,-2.593399,5.594055,0.40000916,0.20869446,0.23065186
1627,A,442626178419610,9.797714,-1.8946381,4.354294,-0.1403656,0.21632385,-0.15887451
1627,A,442626198561212,13.025986,-2.3120117,0.7592163,0.24484253,-0.4725647,0.3506775
1627,A,442626218702813,15.205322,-3.1784973,0.9670868,-0.17584229,-0.40789795,0.5153198
1627,A,442626238844415,14.969406,-3.7905731,1.3356781,-0.47483826,-0.09277344,0.2853546
1627,A,442626258986016,12.63826,-3.4492493,1.5685577,-0.41474915,0.35635376,0.020843506
1627,A,442626279127618,10.901825,-2.3218842,1.3848724,0.009307861,0.74461365,-0.7051239
1627,A,442626299269219,9.091797,-0.54322815,1.0806732,-0.3827362,0.58595276,-0.89120483
1627,A,442626319410821,6.959259,0.9066925,0.67427063,-0.78092957,0.9150543,-0.9150543
1627,A,442626339552423,4.949234,1.6715393,-0.47210693,-1.3035278,1.255127,-0.68460083
1627,A,442626359694024,3.2196503,2.1671143,-1.1168213,-1.5283661,0.79626465,-0.053710938
1627,A,442626379835626,2.5231018,2.4645233,-1.7227173,-1.3610992,0.26348877,0.13722229
1627,A,442626399977227,2.670761,2.144394,-0.49562073,-0.30462646,0.10195923,-0.08728027
1627,A,442626420118829,3.4950104,1.3381653,0.29682922,0.010269165,0.17832947,-0.2869873
1627,A,442626440260430,4.416382,-0.18266296,-1.2679138,0.24357605,0.09017944,-0.40298462
1627,A,442626460402032,5.4690704,-2.1126862,-4.4246674,0.53427124,-0.7206726,-0.28834534
1627,A,442626480543634,7.5792847,-3.1970978,-5.9548492,0.18392944,-1.8426208,0.20861816
1627,A,442626500685235,10.582779,-3.6376343,-2.6238556,1.0241394,-1.0186462,0.5232849
1627,A,442626520826837,13.490326,-2.8739166,-2.3406982,2.3614044,-1.1333771,0.6719971
1627,A,442626540968438,15.330673,-3.0868225,-4.954727,1.9934692,-0.39587402,0.9978485
1627,A,442626561110040,14.5486145,-4.2066956,-6.744095,1.484909,-0.1796112,0.5148163
1627,A,442626581240149,12.626862,-4.0601654,-7.621872,0.5515747,0.05760193,-0.04751587
1627,A,442626601381751,10.428818,-2.5545654,-6.71344,0.018234253,-0.14892578,-0.056549072
1627,A,442626621523352,10.318939,-3.3895874,-2.2934875,0.1642456,-0.34814453,0.37353516
1627,A,442626641664954,13.3016205,-1.9354858,5.997452,-0.004425049,-0.80648804,0.08772278
1627,A,442626661806556,13.642197,-1.8754425,3.663971,-0.32841492,0.7115631,-0.015274048
1627,A,442626681948157,10.226761,0.5015869,3.5932007,0.04777527,0.25935364,-0.29475403
1627,A,442626702089759,10.183243,2.3504791,3.607666,0.15174866,1.1337433,-0.981369
1627,A,442626722231360,13.13736,2.1733246,3.011734,-0.5720978,0.6438446,-0.83135986
1627,A,442626742372962,13.5186615,0.77960205,2.4673004,-1.3146973,1.11203,-0.73114014
1627,A,442626762514563,12.040756,0.08451843,1.858902,-1.7893219,0.99328613,-0.39205933
1627,A,442626782656165,9.977203,-0.47483826,0.22073364,-1.9055939,0.6571655,0.02658081
1627,A,442626802797767,8.12677,-1.6264801,-1.2604828,-1.2701263,0.18533325,0.13171387
1627,A,442626822939368,6.1099396,-2.5840454,-1.8346558,-0.08958435,0.108444214,-0.19059753
1627,A,442626843080970,4.3517914,-2.3094635,-1.1731415,-0.16616821,0.19958496,-0.4699707
1627,A,442626863222571,3.030365,-1.6095428,-0.57922363,0.5280304,-0.14349365,-0.42630005
1627,A,442626883364173,2.6617432,-1.9988861,-1.2104187,0.65385437,-1.0370026,-0.030441284
1627,A,442626903505774,3.7462616,-2.605301,-1.5477448,0.108688354,-1.946579,0.48242188
1627,A,442626923647376,6.0540924,-2.408249,-0.80796814,1.3483429,-0.84794617,0.5050049
1627,A,442626943788977,7.62973,-1.0999451,-1.3173981,1.9565277,-0.74794006,0.760437
1627,A,442626963930579,8.590027,1.3377228,-1.5244141,1.3286438,-0.4146576,1.0723877
1627,A,442626984072181,9.42926,3.1161804,-0.6105499,0.91503906,-0.061340332,0.3092804
1627,A,442627004213782,10.929291,3.5725403,-0.39222717,0.18771362,0.22123718,-0.22576904
1627,A,442627024355384,12.354584,4.4569244,-0.40431213,0.14576721,-0.11506653,-0.17652893
1627,A,442627044496985,12.609604,5.3602753,0.04989624,0.001663208,-0.4842224,0.39279175
1627,A,442627064638587,12.142532,4.855255,-1.6780243,0.01272583,-0.4841919,0.028305054
1627,A,442627084780188,12.160645,3.9732056,-2.164978,-0.43141174,0.7969513,0.12086487
1627,A,442627104921790,12.005203,2.460678,2.1088257,0.07926941,0.41964722,-0.31510925
1627,A,442627125063392,10.8515625,-0.23469543,6.0944366,-0.13154602,1.1253967,-0.8027344
1627,A,442627145204993,10.35791,-2.64122,4.854416,-1.028595,0.15785217,-0.91641235
1627,A,442627165346595,10.040298,-3.7214966,3.3676453,-1.1587982,1.1333771,-0.80874634
1627,A,442627185488196,11.072556,-3.3217926,1.8818665,-1.958664,1.1053619,-0.36489868
1627,A,442627205629798,13.612152,-2.8173676,1.1385651,-1.8065491,0.6291199,0.06877136
1627,A,442627225771399,14.922195,-2.8346863,1.8110657,-1.029419,0.24415588,0.101364136
1627,A,442627245913001,14.509949,-2.640091,2.1031647,0.029342651,0.1905365,-0.2077179
1627,A,442627266054602,12.706345,-2.303131,1.5852509,-0.13394165,0.25680542,-0.38763428
1627,A,442627286196204,10.53714,-1.8121796,0.70884705,0.27630615,-0.32270813,-0.42121887
1627,A,442627306337806,8.77359,-0.83625793,0.5711975,0.45491028,-1.4084473,-0.14497375
1627,A,442627326479407,6.9148407,0.40631104,0.597229,0.10949707,-1.6445007,0.48660278
1627,A,442627346621009,5.171219,1.5338287,0.2883606,1.550827,-0.7086487,0.6091156
1627,A,442627366762610,3.547638,2.5113373,-0.26383972,1.9055786,-0.15370178,0.96383667
1627,A,442627386904212,2.2020264,3.113678,-0.91238403,1.0859833,-0.1774292,1.0074158
1627,A,442627407045813,2.2990265,2.9036407,-0.692688,0.6651306,0.36994934,0.18650818
1627,A,442627427187415,3.328125,1.5499268,-0.74069214,0.27809143,0.059310913,-0.3215027
1627,A,442627447329017,3.9413452,-0.7414093,-2.6414795,0.39068604,-0.35812378,0.101501465
1627,A,442627467470618,5.1402435,-2.6969604,-5.350769,-0.14704895,-0.85795593,0.51856995
1627,A,442627487612220,7.5759277,-4.3732605,-4.5740204,0.06985474,0.23591614,0.48272705
1627,A,442627507753821,10.823181,-5.2112427,-1.583786,0.3114624,0.062576294,-0.4977417
1627,A,442627527895423,14.14772,-3.2190704,-2.1772003,-0.037734985,0.9641876,-0.8373718
1627,A,442627548037024,15.74556,-2.1931458,-6.3904266,-0.45220947,0.7186737,-0.7117615
1627,A,442627568178626,14.302368,-2.926239,-7.6211243,-0.751709,1.1956024,-0.6573181
1627,A,442627588320227,12.347427,-2.4155884,-7.1994476,-1.3377533,1.0122986,-0.4741974
1627,A,442627608461829,9.536285,-1.6797485,-7.499771,-1.416748,0.6980438,-0.03564453
1627,A,442627628603431,8.826782,-1.1121521,-1.8462372,-1.2902069,0.0499115,0.060287476
1627,A,442627648745032,11.136276,-1.3504486,4.5951385,-0.035614014,0.08274841,-0.27513123
1627,A,442627668886634,14.085632,-3.3065338,4.2693634,0.29803467,0.12728882,-0.4520874
1627,A,442627689028235,12.818024,-1.6529999,4.7743225,1.0363312,-0.24964905,-0.40596008
1627,A,442627709169837,11.610153,0.6884613,3.7330627,0.8821869,-1.6354523,-0.18530273
1627,A,442627729311438,12.57753,2.0097046,1.8996277,-0.42582703,-1.5902557,0.42897034
1627,A,442627749453040,12.886154,1.4971466,2.2328186,1.0697021,-0.9648895,0.6880951
1627,A,442627769594642,12.47171,1.07164,2.5577698,1.2109985,-1.0970306,1.0063782
1627,A,442627789736243,10.977661,0.34181213,0.5797119,1.2115479,-0.27793884,0.544281
1627,A,442627809877845,9.00531,-1.206665,-1.3338776,1.0884247,0.5997772,-0.16389465
1627,A,442627830019446,6.214752,-2.4011078,-2.7111359,0.27838135,0.37049866,-0.17677307
1627,A,442627850161048,3.5949402,-2.1790009,-2.3476105,0.37265015,-0.47001648,0.31837463
1627,A,442627870302649,3.1604767,-1.0913544,-1.3882904,-0.12794495,-0.79862976,0.3975525
1627,A,442627890444251,2.4341125,-1.6179047,-0.6436615,-0.4242859,0.48582458,0.29814148
1627,A,442627910585852,3.4807281,-2.7692719,0.15266418,-0.40483093,0.7345581,-0.33113098
1627,A,442627930727454,5.539322,-2.7326813,-0.71717834,0.06199646,1.0334778,-1.2102203
1627,A,442627950869056,7.3967133,-1.2832336,-3.0337067,-0.84669495,0.5165558,-1.1902924
1627,A,442627971010657,8.592545,0.6866913,-1.9643707,-1.4206848,0.9206543,-0.7679901
1627,A,442627991152259,9.887344,2.995926,1.2321472,-1.9422913,1.3996887,-0.24856567
1627,A,442628011293860,11.1453705,4.245697,-0.08770752,-1.8460999,0.65667725,0.15396118
1627,A,442628031435462,12.041016,6.1878967,-0.5292511,-0.98921204,0.11166382,0.09611511
1627,A,442628051577063,12.627869,5.934128,0.22149658,0.10900879,0.10891724,-0.27767944
1627,A,442628071718665,12.204361,5.0861053,-1.7952881,0.014419556,0.25502014,-0.5107269
1627,A,442628091860267,12.46843,3.7842102,-2.0143738,0.5358887,-0.26524353,-0.55796814
1627,A,442628112001868,12.387939,2.004486,3.7041016,0.16758728,-1.5313721,-0.09703064
1627,A,442628132143470,12.305298,-0.5349579,5.983536,-0.2939148,-1.5920105,0.44932556
1627,A,442628152285071,11.865997,-2.3913727,4.4967957,1.0769958,-1.156189,0.55718994
1627,A,442628172426673,10.167511,-4.5152283,3.7615051,1.7190399,-0.5711212,0.80656433
1627,A,442628192568274,10.4832,-4.9821777,1.7883453,0.9186554,-0.4426117,1.1180725
1627,A,442628212709876,13.147263,-3.5380096,0.802063,0.79486084,0.20283508,0.1806488
1627,A,442628232851477,14.778763,-2.555832,1.2676086,0.22645569,0.006378174,-0.2189331
1627,A,442628252993079,13.860992,-2.0195618,1.9339905,0.35404968,-0.67681885,0.4236145
1627,A,442628273134681,11.676117,-1.3872375,1.1562042,-0.14442444,-0.26531982,0.495224
1627,A,442628293276282,9.582336,-1.0789948,0.20747375,-0.47877502,-0.026245117,-0.34498596
1627,A,442628313417884,7.8276367,-0.27952576,0.84069824,-0.9715576,0.7838898,0.24183655
1627,A,442628333559485,6.0605316,0.50875854,0.7306061,-0.25180054,0.120162964,-0.5830078
1627,A,442628353701087,4.532028,1.2470245,0.7474365,-0.5758209,0.62257385,-0.9155426
1627,A,442628373842688,3.4482117,2.1358948,0.3585205,-1.1784363,0.8718109,-0.85780334
1627,A,442628393984290,2.1438446,2.5587006,-1.6782074,-1.5597534,1.3009338,-0.7205658
1627,A,442628414125892,2.5571594,1.9210205,-2.2100677,-1.7274475,1.0307465,-0.10417175
1627,A,442628434267493,4.7925415,0.377594,-1.480835,-1.2824402,0.3986206,0.32962036
1627,A,442628454409095,5.124771,-2.654251,-1.4060974,-0.21116638,0.10321045,0.02166748
1627,A,442628474550696,6.187256,-3.4310608,-2.7222137,-0.16456604,0.07121277,-0.44511414
1627,A,442628494692298,7.8559113,-3.7554169,-5.584076,0.16297913,0.011444092,-0.46733093
1627,A,442628514833899,10.895782,-2.8783875,-4.0489807,0.4862976,-0.7199707,-0.2628479
1627,A,442628534975501,14.249496,-1.6886444,-2.8213348,0.34046936,-1.8647308,0.33146667
1627,A,442628555117102,15.813538,-3.8515472,-2.3392792,1.2868958,-1.0226135,0.60235596
1627,A,442628575258704,13.456863,-5.200424,-6.624634,2.1279297,-0.835495,0.73213196
1627,A,442628595400306,12.135437,-3.4175568,-8.488724,1.5360718,-0.42416382,0.95295715
1627,A,442628615541907,10.818893,-2.0185547,-6.0742645,1.1829987,-0.14508057,0.37550354
1627,A,442628635683509,12.168259,-1.9222717,1.8455505,0.39318848,0.50491333,-0.20446777
1627,A,442628655825110,13.817032,-2.4113007,7.2792816,0.14898682,0.05796814,-0.1946106
1627,A,442628675966712,13.636551,-0.46540833,4.394104,0.09037781,-0.50598145,0.6911926
1627,A,442628696108313,10.0260315,2.8053741,3.1292114,-0.31204224,-0.5003052,0.4373169
1627,A,442628716249915,9.707367,3.2414856,2.4595337,-0.47969055,0.28471375,-0.17521667
1627,A,442628736391517,12.356567,2.2013397,1.7911072,-0.80895996,1.1737518,-0.07771301
1627,A,442628756533118,12.486374,0.57499695,2.4475403,0.037719727,0.8113556,-0.8683777
1627,A,442628776674720,11.119522,-0.41607666,2.3939514,-0.4944458,0.1479187,-1.0904846
1627,A,442628796816321,9.457718,-1.1525879,0.2039032,-1.6339111,1.4312439,-0.77427673
1627,A,442628816957923,8.5746,-1.8815918,-0.3265381,-2.048233,1.1087952,-0.25022888
1627,A,442628837099524,6.444412,-2.2640686,0.9393616,-1.7767944,0.82829285,0.17285156
1627,A,442628857241126,4.8665466,-0.930603,-0.09353638,-0.6877289,0.18385315,0.08778381
1627,A,442628877382727,3.420761,-0.32551575,-4.182953,-0.08547974,0.07598877,-0.21549988
1627,A,442628897524329,3.4791412,-1.3708344,-4.281891,-0.40725708,0.15765381,-0.43130493
1627,A,442628917665931,4.9994354,-2.4161682,0.29740906,0.047195435,-0.48110962,-0.4149475
1627,A,442628937807532,5.9308167,-2.2316895,1.0693054,0.9337311,-1.319931,-0.017150879
1627,A,442628957949134,7.160141,0.2893219,-1.5727997,0.6073761,-1.767273,0.5610962
1627,A,442628978090735,8.173187,2.657257,-1.3646088,1.3138428,-1.0338898,0.6111603
1627,A,442628998232337,9.514969,2.874878,-0.16741943,1.9309387,-0.3087616,0.7921295
1627,A,442629018373938,11.910919,2.839386,-0.541275,2.2490997,-0.3815918,0.8233795
1627,A,442629038515540,12.791809,4.041397,0.12275696,1.2064209,0.108291626,0.095062256
1627,A,442629058657142,12.912445,5.013855,0.3379364,0.089416504,0.10447693,-0.22064209
1627,A,442629078798743,11.887466,4.476074,-1.856369,0.3274231,-0.18338013,0.29815674
1627,A,442629098940345,11.633392,2.841095,-1.9966125,-0.25250244,-0.8243866,0.32226563
1627,A,442629119081946,11.988693,1.2053833,1.5713654,-0.22563171,0.14118958,0.36341858
1627,A,442629139223548,11.316162,0.4420166,5.1427917,-0.10229492,0.34768677,-0.06225586
1627,A,442629159365149,9.215546,-0.6672363,3.5701447,0.09169006,1.1718292,-0.8233948
1627,A,442629179506751,6.9426727,-2.8293457,1.5038147,-0.25213623,0.7220001,-0.92503357
1627,A,442629199648352,9.4548645,-3.8774261,1.0849304,-1.0396729,0.9738312,-0.8541107
1627,A,442629219789954,15.832245,-4.687729,1.2468262,-1.7232208,1.0015869,-0.57702637
1627,A,442629239931556,17.542664,-5.8347015,3.399994,-1.8795013,0.65156555,0.06990051
1627,A,442629260073157,14.076721,-5.1921387,3.1032562,-1.4938812,0.051727295,0.14961243
1627,A,442629280214759,12.040558,-3.0159302,-2.8484802,-0.021911621,0.11943054,-0.21876526
1627,A,442629300356360,9.675903,-0.53048706,-5.3835144,-9.0026855E-4,0.23539734,-0.47595215
1627,A,442629320497962,7.1080933,1.7558594,-2.9996643,0.58932495,-0.16882324,-0.4792328
1627,A,442629340639563,6.018402,1.5549011,1.1375885,0.72010803,-1.2029266,-0.18818665
1627,A,442629360781165,4.6311035,-0.08564758,2.1518555,0.37779236,-1.712326,0.4230194
1627,A,442629380922767,3.0835724,-1.1785126,0.8205414,1.5222168,-1.0172272,0.603302
1627,A,442629401064368,2.488968,-0.49746704,-0.17237854,2.267929,-0.618927,0.73043823
1627,A,442629421205970,2.3664246,0.23989868,-0.5879822,1.8556061,-0.22492981,0.88760376
1627,A,442629441347571,3.861496,-0.8831024,-1.5854645,1.4317474,0.0460968,0.19883728
1627,A,442629461489173,5.962448,-3.0033112,-3.1628876,0.34675598,0.363266,-0.23625183
1627,A,442629481630774,7.7171936,-3.8480072,-5.3612823,0.31388855,-0.3287964,0.12579346
1627,A,442629501772376,9.611481,-3.4710083,-5.5899963,-0.119888306,-0.39596558,0.3766327
1627,A,442629521913977,11.71489,-2.6948853,-3.3539124,-0.24635315,-0.70002747,0.12008667
1627,A,442629542055579,13.25058,-3.2169495,-4.3185577,-0.85414124,1.0021973,0.10877991
1627,A,442629562197181,13.699554,-3.7016907,-6.5785065,0.15235901,0.5602112,-0.68170166
1627,A,442629582338782,13.51181,-4.3345337,-7.5755615,-0.21063232,0.7319031,-1.0305481
1627,A,442629602480384,11.857071,-3.923294,-7.318405,-1.1472626,0.9878082,-0.95092773
1627,A,442629622621985,11.956299,-4.4863434,-3.4596252,-1.4687195,1.1749268,-0.6703186
1627,A,442629642763587,14.218994,-4.285187,4.182266,-1.9101257,0.9268799,-0.061645508
1627,A,442629662905188,13.070755,-2.8736877,5.3418427,-1.5886536,0.10722351,0.20028687
1627,A,442629683046790,9.779022,-0.6099396,2.6164856,-0.3572998,0.06338501,-0.15130615
1627,A,442629703188392,9.465927,0.9380951,1.5949097,-0.0043945313,0.23712158,-0.50520325
1627,A,442629723329993,12.7200775,3.062622,1.4634552,0.53808594,0.06416321,-0.5597992
1627,A,442629743471595,12.907028,1.7524567,1.3434906,0.72435,-0.85565186,-0.25862122
1627,A,442629763613196,12.033493,-0.32130432,0.95388794,-0.03933716,-1.9234924,0.3756256
1627,A,442629783754798,10.688629,-1.127121,0.14411926,0.6573181,-0.9616699,0.5682831
1627,A,442629803896399,8.564911,-2.25531,-1.1642914,1.8863983,-0.7092438,0.6226349
1627,A,442629824038001,6.51326,-3.05513,-2.9081726,1.2898865,-0.6377716,0.969223
1627,A,442629844179602,4.8770447,-2.875946,-3.5250702,1.0064697,0.0690155,0.25151062
1627,A,442629864321204,4.4664,-1.9198761,-2.601303,0.1770935,0.35661316,-0.1585846
1627,A,442629884462806,4.17334,-0.9496155,-0.099121094,0.39335632,-0.4142456,0.35403442
1627,A,442629904604407,4.399933,-0.7843323,1.1395111,-0.093048096,-0.4784546,0.60980225
1627,A,442629924746009,5.007416,-1.1320648,-1.9262238,-0.059783936,-0.41610718,-0.17131042
1627,A,442629944887610,7.2120667,-0.723114,-4.4296875,-1.0704193,1.1380157,0.2084198
1627,A,442629965029212,8.628387,0.38702393,-3.303131,-0.1764679,0.3157196,-0.40065002
1627,A,442629985170813,9.208786,2.0104065,-0.3136444,-0.23292542,1.1195679,-1.0429077
1627,A,442630005312415,9.885986,3.3162231,1.4017944,-0.9042511,0.70635986,-0.9389496
1627,A,442630025454017,10.628876,2.691803,1.343689,-1.5306854,0.8849335,-0.7016144
1627,A,442630045595618,12.590164,2.8453217,-0.8144684,-1.9694366,1.008316,-0.21786499
1627,A,442630065737220,12.712921,2.890152,-1.507309,-1.7600403,0.57496643,0.27607727
1627,A,442630085878821,12.567108,3.0265503,-1.8331299,-0.6354828,0.15914917,0.16583252
1627,A,442630106020423,12.536758,3.1705627,3.0209198,-0.042800903,0.18710327,-0.32182312
1627,A,442630126162024,11.023315,-0.2678833,5.194031,0.13517761,0.27355957,-0.56855774
1627,A,442630146303626,10.155594,-3.1260834,3.3402863,0.4453888,-0.46922302,-0.39689636
1627,A,442630166445227,9.51532,-4.1288757,2.9185028,0.27954102,-1.8307343,0.05810547
1627,A,442630186586829,9.353561,-4.0484467,2.7881317,0.5769501,-1.3756714,0.41641235
1627,A,442630206728431,11.522263,-4.0091553,2.9902344,1.776825,-0.87168884,0.57167053
1627,A,442630226870032,14.744339,-3.375763,3.2036896,1.993988,-0.4466095,0.8988495
1627,A,442630247011634,14.106613,-2.775238,3.1170502,1.5446777,-0.19906616,0.6243286
1627,A,442630267153235,11.590622,-2.4433594,1.3537292,0.5809479,0.23443604,-0.04096985
1627,A,442630287294837,8.964569,-1.2535706,-1.0365295,0.099823,-0.16264343,-0.06472778
1627,A,442630307436438,7.1328125,0.6077118,-1.5853271,-0.020385742,-0.55470276,0.58810425
1627,A,442630327578040,6.5325317,1.0364075,-1.4727631,-0.43484497,-0.737381,0.2447815
1627,A,442630347719642,5.9664154,1.0717773,-0.44039917,-0.7288208,0.6580963,0.14146423
1627,A,442630367861243,4.6247864,1.0924835,-0.6167908,-0.58296204,0.5134735,-0.28881836
1627,A,442630388002845,2.1382294,0.28230286,-1.089508,-0.23918152,0.75471497,-0.89134216
1627,A,442630408144446,1.9227905,0.08505249,-1.1693115,-0.8386383,0.9109955,-0.8590088
1627,A,442630428286048,4.954651,-0.56015015,-1.6984406,-1.5284882,0.86112976,-0.7359009
1627,A,442630448427649,4.6023254,-0.3202057,-1.8742065,-2.161621,1.0374146,-0.40150452
1627,A,442630468569251,6.828079,-0.8826752,-5.512558,-1.8336029,0.6325226,0.19915771
1627,A,442630488710852,9.701752,-1.2940063,-4.838501,-0.927948,0.19711304,0.20300293
1627,A,442630508852454,11.54451,-1.3283386,-2.2460175,0.12437439,0.21611023,-0.16085815
1627,A,442630528994056,12.420425,-3.7196808,-3.735733,-0.21478271,0.22625732,-0.37338257
1627,A,442630549135657,15.203186,-3.6454773,-3.9541779,0.3219757,-0.08882141,-0.33691406
1627,A,442630569277259,13.9756775,-3.605774,-9.715317,1.0690765,-1.0883179,-0.11274719
1627,A,442630589418860,10.896225,-1.8783417,-7.316818,0.22381592,-1.9443665,0.6538696
1627,A,442630609560462,10.030533,-3.3099976,-5.1752777,1.9076233,-1.0571594,0.59373474
1627,A,442630629702063,13.447067,-1.4544525,2.7897186,1.9725342,-0.7115021,0.75349426
1627,A,442630649843665,13.498184,-3.163147,3.3958588,1.739212,-0.24378967,0.86891174
1627,A,442630669985267,10.347122,-1.1036987,3.0539703,1.0310669,0.29049683,0.031097412
1627,A,442630690126868,8.854828,2.0375519,2.0678406,-0.048477173,0.10421753,-0.24987793
1627,A,442630710268470,11.632095,2.7720642,0.43670654,0.13647461,-0.36618042,0.058914185
1627,A,442630730410071,13.518356,0.67222595,1.0379028,-0.41230774,-1.0344696,0.74313354
1627,A,442630750551673,15.2821045,-0.33250427,2.1044922,-0.32781982,0.25079346,0.5857849
1627,A,442630770693274,12.358902,-0.6579132,2.001709,-0.42123413,0.7019806,-0.57740784
1627,A,442630790834876,8.856445,-1.7936401,-1.780014,-0.3238678,1.1782227,-0.824173
1627,A,442630810976477,7.056656,-3.4073029,-4.265335,-0.32746887,1.032959,-0.9983978
1627,A,442630831118079,4.0818024,-4.1331787,-3.304184,-1.0045929,1.0741272,-0.8645172
1627,A,442630851259681,3.5196686,-1.7920227,1.4977112,-1.9729462,1.0822296,-0.5142822
1627,A,442630871401282,4.418213,-0.62677,-0.57839966,-1.918808,0.6524353,0.12791443
1627,A,442630891542884,3.4703827,-0.23751831,-0.7789154,-1.2413483,0.0884552,0.18075562
1627,A,442630911684485,3.4692535,-0.83561707,-1.9005127,0.041732788,0.14653015,-0.18171692
1627,A,442630931826087,8.393478,0.5450592,-4.056381,-0.10592651,0.23114014,-0.4281311
1627,A,442630951967688,9.166534,1.8860626,-1.3081055,0.2891388,-0.27279663,-0.47737122
1627,A,442630972109290,9.157043,2.3643951,0.42510986,0.8361511,-1.1742706,-0.19293213
1627,A,442630992250892,10.480316,3.2805939,-1.0946045,0.39614868,-1.9266357,0.457901
1627,A,442631012392493,11.709793,3.6294403,-0.71110535,1.0508118,-1.116806,0.55708313
1627,A,442631032534095,12.229507,5.642929,1.482132,2.0419006,-0.42851257,0.5995178
1627,A,442631052675696,11.65184,5.066818,-1.4327545,1.9260712,-0.29711914,0.81051636
1627,A,442631072817298,11.5707245,3.216217,-0.85931396,1.1916504,0.046524048,0.110321045
1627,A,442631092958899,12.5664215,3.1942139,4.02829,0.22494507,0.1512146,-0.1267395
1627,A,442631113100501,12.913788,1.1743622,7.3240814,0.33720398,-0.46905518,0.409729
1627,A,442631133242102,12.822372,-1.9258728,5.3207245,-0.23342896,-0.5830231,0.3921051
1627,A,442631153383704,11.127914,-4.8125305,1.4020386,-0.26927185,-0.024536133,0.14129639
1627,A,442631173525306,10.761307,-5.750519,-1.6111603,-0.69692993,0.88446045,0.07382202
1627,A,442631193666907,12.910263,-4.4483337,-1.0256348,0.14511108,0.5630646,-0.9210968
1627,A,442631213808509,14.239212,-2.3728333,0.9592285,-0.2879181,0.6982422,-1.0085907
1627,A,442631233950110,14.211975,-0.97431946,3.1080933,-1.1855774,0.981369,-0.88575745
1627,A,442631254091712,11.981094,-0.74313354,3.307434,-1.7982788,0.90678406,-0.5311127
1627,A,442631274233313,9.916763,-0.7462616,1.8981171,-1.9945526,0.98283386,0.059753418
1627,A,442631294374915,8.015869,-0.36419678,1.274353,-1.4824524,0.31100464,0.3193512
1627,A,442631314516517,6.1846313,0.17936707,1.0585785,-0.20205688,0.17341614,-0.049606323
1627,A,442631334658118,4.3871,0.8014374,1.0650177,-0.091918945,0.13957214,-0.4615326
1627,A,442631354799720,3.0606995,1.3337708,0.63500977,0.2295227,-0.01991272,-0.48214722
1627,A,442631374941321,2.453598,1.610321,-0.5344696,0.9221649,-0.7552185,-0.3553772
1627,A,442631395082923,2.4837036,1.2513733,-2.960556,0.30252075,-2.0045624,0.42834473
1627,A,442631415224524,3.4908142,0.29325867,-4.705475,0.80348206,-1.4622192,0.5632782
1627,A,442631435366126,5.492523,-0.23956299,-3.160843,2.1933289,-0.46064758,0.51382446
1627,A,442631455507727,6.893173,-1.0669556,-2.4986725,2.0750275,-0.18592834,0.74128723
1627,A,442631475649329,8.21582,-1.8274841,-4.6865997,1.3203583,0.2199707,0.20994568
1627,A,442631495790931,10.128326,-2.7317047,-5.339157,0.29821777,0.2722473,-0.05026245
1627,A,442631515932532,13.374512,-2.7944946,-3.1394958,0.34407043,-0.41958618,0.16481018
1627,A,442631536074134,14.945404,-2.855774,-4.015381,-0.21583557,-0.5433197,0.49101257
1627,A,442631556215735,13.77861,-3.1468048,-7.9658203,-0.27371216,-0.23544312,0.12835693
1627,A,442631576357337,11.792099,-2.2628937,-8.875488,-0.9671478,1.0169067,0.2620697
1627,A,442631596498938,9.5434265,-1.8514557,-5.262619,-0.031570435,0.5170746,-1.0087433
1627,A,442631616640540,11.0863495,-1.4727173,2.3271484,-0.40997314,1.1786652,-1.0836945
1627,A,442631636782142,14.8363495,-1.0529327,5.3512573,-1.3884735,0.7486267,-0.816864
1627,A,442631656923743,13.678757,-0.20715332,4.604416,-1.9544525,1.2743225,-0.49446106
1627,A,442631677065345,11.311783,1.4414673,4.6640472,-1.9136505,0.8564453,0.24612427
1627,A,442631697206946,11.9075165,1.0619354,2.666626,-1.2642975,-0.0035247803,0.24716187
1627,A,442631717348548,12.967514,-0.0103302,1.8467712,-0.12861633,0.080703735,-0.16764832
1627,A,442631737490149,12.532532,0.2287445,1.4572144,-0.09613037,0.23500061,-0.51786804
1627,A,442631757631751,10.630066,0.04537964,-1.1000214,0.5292206,-0.0037231445,-0.46676636
1627,A,442631777773352,8.235992,-1.0888519,-3.022049,0.7198334,-1.0267487,-0.16311646
1627,A,442631797914954,5.9840546,-2.0519867,-2.944397,0.10568237,-1.7884827,0.3900299
1627,A,442631818056556,4.5425873,-1.672699,-1.3671722,0.9305115,-1.1240082,0.5696564
1627,A,442631838198157,3.9687653,-1.446167,-0.37324524,2.0588226,-0.90856934,0.6659088
1627,A,442631858339759,3.7407074,-2.3097382,-0.39797974,1.7008209,-0.4021759,0.96417236
1627,A,442631878481360,4.1720886,-3.0361938,-0.4144745,1.3104248,0.09655762,0.22079468
1627,A,442631898622962,5.939377,-2.5646515,-1.5422211,0.3435974,0.14451599,-0.19715881
1627,A,442631918764563,7.627945,-0.47880554,-2.9361267,0.29040527,-0.3283844,0.25497437
1627,A,442631938906165,8.718292,2.155777,-1.4273682,-0.14334106,-0.35583496,0.6311188
1627,A,442631959047767,9.618942,3.9382782,0.05819702,-0.3071289,-0.44918823,0.22944641
1627,A,442631979189368,10.289352,4.6980286,-1.0191345,-0.8635254,0.75109863,0.030944824
1627,A,442631999330970,11.197937,5.745529,0.07260132,-0.2808075,0.8291168,-0.6479645
1627,A,442632019472571,12.117844,6.0318604,0.23243713,-0.27824402,0.74661255,-1.1027985
1627,A,442632039614173,11.72496,4.4161377,-1.8829803,-0.8820343,0.81474304,-0.9733887
1627,A,442632059755774,11.826584,3.2612152,-2.6607819,-1.6417847,0.8327484,-0.6256561
1627,A,442632079897376,12.021088,1.9437714,1.0904999,-2.0791473,1.1379395,-0.16357422
1627,A,442632100038977,10.776703,-0.6643677,5.1756134,-1.7344513,0.4394226,0.22866821
1627,A,442632120180579,11.032944,-2.3864288,5.3138123,-0.2651825,0.19032288,-0.06982422
1627,A,442632140322181,11.38237,-2.8922577,4.440323,0.06237793,0.19766235,-0.36753845
1627,A,442632160463782,11.745438,-3.9003143,1.5818329,0.34199524,0.20285034,-0.49131775
1627,A,442632180605384,13.9219055,-3.6356354,-0.14059448,0.5583954,-0.6395111,-0.3524475
1627,A,442632200746985,14.486435,-2.8878174,0.33842468,0.24726868,-1.8371887,0.26541138
1627,A,442632220888587,13.440811,-2.1548004,2.017517,0.89593506,-1.2610321,0.56773376
1627,A,442632241030188,12.157028,-1.6267548,2.3822021,1.7746735,-0.93066406,0.70961
1627,A,442632261171790,10.499313,-1.3466492,1.2446289,1.6347809,-0.14118958,0.92378235
1627,A,442632281313392,8.772949,-0.52760315,0.6330261,1.2774811,-0.016860962,0.52220154
1627,A,442632301454993,7.118683,0.14543152,0.4610443,0.3691864,0.045806885,-0.054351807
1627,A,442632321596595,5.489731,1.0050507,0.30737305,0.116241455,-0.4355011,0.22381592
1627,A,442632341738196,4.222351,1.3875732,0.057128906,-0.17120361,-0.39733887,0.7472534
1627,A,442632361879798,2.5365295,1.878067,-0.86068726,-0.289505,-0.57962036,-0.079818726
1627,A,442632382021399,2.5193176,2.3947906,-2.6127777,-1.083786,1.2017975,0.031555176
1627,A,442632402163001,4.374298,1.1601868,-2.504425,-0.14279175,0.27259827,-0.38415527
1627,A,442632422304602,4.862213,-0.63339233,-2.1659088,0.12272644,1.1651306,-1.2271423
1627,A,442632442446204,5.495331,-2.145935,-3.4621582,-0.7002411,0.6842041,-0.84558105
1627,A,442632462587806,7.1140747,-3.1884155,-5.943222,-1.3484039,1.0938263,-0.7084656
1627,A,442632482729407,9.551422,-3.6735992,-4.050705,-1.8310242,0.93766785,-0.19833374
1627,A,442632502871009,12.586807,-2.9684448,-2.305359,-1.7220459,0.2602539,0.23442078
1627,A,442632523012610,14.97081,-2.723114,-3.083084,-0.7778015,0.05984497,0.0022735596
1627,A,442632543154212,13.885132,-3.721161,-7.636841,0.0035095215,0.11831665,-0.31996155
1627,A,442632563295813,12.90303,-3.5677948,-8.040573,0.19885254,0.14393616,-0.4797516
1627,A,442632583437415,10.249115,-1.8242188,-6.3888245,0.8734741,-0.44021606,-0.42437744
1627,A,442632603579017,8.139526,-1.7788696,-3.8076324,0.566391,-1.840622,0.19128418
1627,A,442632623720618,11.116913,-1.2527466,3.773758,0.41921997,-1.5088959,0.56248474
1627,A,442632643862220,14.082016,-1.8148499,2.5214539,1.8690186,-0.85372925,0.58203125
1627,A,442632664003821,13.145477,-0.22218323,3.068222,1.835846,-0.6342163,0.86647034
1627,A,442632684145423,10.898117,1.5004272,3.1753693,1.6425629,-0.14907837,0.58877563
1627,A,442632704287024,12.402771,2.1833649,1.1226349,0.9863739,0.124679565,-0.14228821
1627,A,442632724428626,12.157059,0.48136902,0.6526947,0.18577576,-0.21328735,-0.04862976
1627,A,442632744570227,12.411957,-0.054641724,1.0934601,0.12062073,-0.33706665,0.6126709
1627,A,442632764711829,11.37764,-0.37852478,-0.5653839,-0.16192627,-0.77290344,0.06022644
1627,A,442632784853431,9.458282,-1.6475983,-0.7971344,-0.6812744,0.86909485,0.18624878
1627,A,442632804995032,7.150284,-1.8856354,-0.56103516,-0.4714508,0.6742401,-0.2615204
1627,A,442632825136634,4.9119263,-1.7232513,-0.8018799,-0.03817749,1.2601471,-1.1892242
1627,A,442632845278235,3.9299011,-1.1206512,0.11230469,-0.6622772,0.6087189,-1.0635223
1627,A,442632865419837,3.318161,-0.7842102,-1.634964,-1.4065704,0.7784424,-0.8101654
1627,A,442632885561438,3.0223846,-1.0835724,-2.9822693,-2.2510223,1.1537933,-0.27293396
1627,A,442632905703040,4.877228,-1.8921356,-2.249588,-1.8417053,0.62927246,0.22538757
1627,A,442632925844642,6.5668945,-1.7650604,-0.89797974,-0.8387909,0.15148926,0.091156006
1627,A,442632945986243,7.8742523,0.34596252,-1.1187744,0.1151886,0.12239075,-0.28431702
1627,A,442632966127845,8.944229,3.2287292,-1.2991791,0.03767395,0.19143677,-0.577652
1627,A,442632986269446,10.136948,4.798462,0.6216583,0.31021118,-0.3623352,-0.41038513
1627,A,442633006411048,11.516556,5.001114,-0.42721558,0.10064697,-1.7482758,0.096450806
1627,A,442633026552649,12.886642,5.567993,0.27383423,0.15211487,-1.2888184,0.4602661
1627,A,442633046694251,13.184738,4.5989685,-1.9365387,1.7608337,-1.0240784,0.56318665
1627,A,442633066835852,11.675537,3.081543,-2.4121246,1.5278168,-0.474823,1.056839
1627,A,442633086977454,12.015259,2.6831207,-1.293747,1.0431976,-0.30107117,0.81817627
1627,A,442633107119056,11.893707,1.4194031,4.53273,0.48521423,0.2872162,-0.022567749
1627,A,442633127260657,11.949356,-0.62246704,5.5732117,0.042129517,-0.121520996,-0.21629333
1627,A,442633147402259,12.4917145,-2.4927063,4.030182,0.25086975,-0.49087524,0.64785767
1627,A,442633167543860,11.200516,-3.876114,2.6881256,-0.31311035,-0.5117035,0.2328949
1627,A,442633187685462,11.268494,-4.0578613,1.2870178,-0.49664307,0.57406616,-0.052261353
1627,A,442633207827063,13.146027,-2.7474213,1.4748993,-0.64030457,0.6151428,0.15707397
1627,A,442633227968665,13.447418,-1.568161,2.1226807,-0.007797241,0.7944946,-0.83451843
1627,A,442633248110267,12.842728,-1.467865,1.7786255,-0.5059967,0.35798645,-0.9645691
1627,A,442633268251868,11.435745,-2.0634308,1.2764435,-1.1971436,0.90200806,-0.9900055
1627,A,442633288393470,9.630386,-1.8258209,1.1933899,-1.8278046,0.6763611,-0.5280304
1627,A,442633308535071,7.632782,-0.51756287,1.6641083,-1.8825531,1.0393219,0.09680176
1627,A,442633328676673,5.49675,0.33891296,1.7224121,-1.2638397,0.4882965,0.31007385
1627,A,442633348818274,3.946457,0.992157,0.9851074,-0.26091003,0.21202087,-0.037994385
1627,A,442633368959876,3.30661,2.0282135,-0.29464722,-0.25914,0.17227173,-0.4129486
1627,A,442633389101477,3.0109253,2.4956055,-2.7221222,0.4547577,0.0688324,-0.38545227
1627,A,442633409243079,4.5176697,2.1185303,-3.9258118,1.0135956,-0.77156067,-0.09492493
1627,A,442633429384681,5.164032,0.2546234,-1.2013245,0.6370239,-2.2572174,0.4817047
1627,A,442633449526282,5.7904816,-1.176239,-0.40893555,1.0326691,-1.2043304,0.5695801
1627,A,442633469667884,6.573181,-2.0083618,-3.1468506,1.8224182,-0.5625763,0.7735443
1627,A,442633489809485,8.305618,-2.188614,-5.6272736,1.9530792,-0.31303406,0.8371887
1627,A,442633509951087,10.819595,-1.675293,-4.374298,1.1933289,-0.16325378,0.44155884
1627,A,442633530092688,12.75827,-2.378067,-3.6613464,0.11000061,-0.30511475,0.0874176
1627,A,442633550234290,13.72551,-4.6275177,-4.3141785,0.3025055,-0.20005798,-0.013442993
1627,A,442633570375892,13.595779,-5.4500885,-5.8562317,-0.15301514,-0.5075226,0.24723816
1627,A,442633590517493,12.12381,-3.5587463,-6.848709,-0.6855774,0.26457214,0.48970032
1627,A,442633610659095,10.4198,-2.2072296,-5.415497,-0.21348572,0.6301575,-0.32981873
1627,A,442633630800696,11.460892,-2.6098022,0.23005676,-0.04336548,1.3173981,-0.82006836
1627,A,442633650942298,14.115555,-1.6057892,5.393219,-0.052642822,0.53518677,-0.98739624
1627,A,442633671083899,12.555084,-0.19503784,3.3017578,-0.60957336,0.8928375,-0.9514618
1627,A,442633691225501,9.857956,2.0720215,2.727188,-1.5226288,1.2793274,-0.6255188
1627,A,442633711367102,11.289703,2.9631958,2.6386414,-2.0740051,0.86203,-0.083480835
1627,A,442633731508704,13.3914795,2.3286896,2.9025269,-1.7382507,0.28677368,0.11576843
1627,A,442633751650306,13.305054,0.8623657,2.7319336,-0.3710327,0.060806274,-0.21008301
1627,A,442633771791907,11.828201,-0.08520508,1.5670013,-0.05050659,0.20536804,-0.4457245
1627,A,442633791933509,10.062973,-1.2949524,-0.14657593,0.6090088,-0.070999146,-0.5154114
1627,A,442633812075110,8.112503,-2.4033813,-1.2836761,0.4696045,-0.92134094,-0.19346619
1627,A,442633832216712,6.0095825,-2.1718903,-1.567215,0.05366516,-1.7006073,0.37557983
1627,A,442633852358313,4.4122314,-0.9732361,-1.4034424,1.1585541,-1.1980133,0.58683777
1627,A,442633872499915,3.3700714,-0.6032562,-2.3256226,1.8597412,-0.7989502,0.89604187
1627,A,442633892641517,2.796692,-1.5557556,-2.8371277,1.418747,-0.8051605,1.1206665
1627,A,442633912783118,3.7176056,-2.9094696,-1.0968018,1.2531433,-0.04585266,0.33950806
1627,A,442633932924720,5.812744,-3.0567474,0.34669495,0.48728943,0.16134644,-0.2136383
1627,A,442633953066321,7.781784,-0.612854,-1.1400452,0.39483643,-0.23287964,0.064834595
1627,A,442633973207923,9.401413,2.4665527,-2.2292786,-0.1715393,-0.45718384,0.5650482
1627,A,442633993349524,10.682449,3.7881622,-0.46514893,-0.4487915,-0.16096497,0.4386444
1627,A,442634013491126,12.606766,4.261612,-0.07499695,-0.7187042,0.5926819,0.019638062
1627,A,442634033632727,13.591522,4.979431,-0.59773254,-0.28060913,1.3774719,-0.6433563
1627,A,442634053774329,12.452103,5.61322,-0.62646484,0.1701355,0.63923645,-0.9385681
1627,A,442634073915931,11.654327,4.6581726,-1.4337463,-0.55662537,0.8652649,-1.0115204
1627,A,442634094057532,11.959854,2.8280182,-2.9232483,-1.3599701,1.3391113,-0.72610474
1627,A,442634114199134,11.604813,1.737915,0.71365356,-1.4242401,0.8581238,-0.15338135
1627,A,442634134340735,10.312912,0.54652405,4.608429,-1.4900513,0.3416748,0.17424011
1627,A,442634154482337,9.241608,-0.88124084,5.0442657,-0.4733429,0.11412048,-0.2642517
1627,A,442634174623938,8.7729645,-1.5349121,4.7018127,0.07421875,0.029708862,-0.45083618
1627,A,442634194765540,9.762985,-1.8933411,3.5099182,0.23730469,-0.034957886,-0.4887848
1627,A,442634214907142,12.946701,-2.860962,1.3710632,0.65112305,-0.7705841,-0.37324524
1627,A,442634235048743,15.079224,-3.5687256,1.571701,0.041046143,-2.0100403,0.2539673
1627,A,442634255190345,14.634613,-3.176712,2.1878204,0.08073425,-1.375473,0.6876526
1627,A,442634275331946,12.503525,-2.0517883,2.0043182,1.7408752,-0.98054504,0.5765228
1627,A,442634295473548,11.033936,-1.0693359,1.5797272,1.3406677,-0.6555023,0.88475037
1627,A,442634315615149,9.717926,-0.33164978,0.45874023,1.0522156,0.012756348,0.41145325
1627,A,442634335756751,7.787781,0.012954712,-0.44532776,0.41163635,0.5696106,-0.27293396
1627,A,442634355898352,5.937042,0.6450043,-0.70207214,0.25045776,-0.32989502,0.0019989014
1627,A,442634376039954,4.419281,1.1102448,-0.618927,-0.15634155,-0.3691864,0.6496887
1627,A,442634396181556,3.8989868,1.9532471,-1.5846405,-0.34410095,-0.3138733,0.097595215
1627,A,442634416323157,3.0952759,2.2582092,-1.367691,-0.78660583,0.9389343,0.31399536
1627,A,442634436464759,2.5191803,1.3202362,-1.5561371,-0.19200134,0.5530548,-0.59103394
1627,A,442634456606360,2.4892273,-0.3167572,-1.7311096,-0.20123291,0.9889221,-1.017456
1627,A,442634476747962,4.362793,-1.335846,-1.9173737,-1.0221405,0.77085876,-1.0306396
1627,A,442634496889563,6.4425507,-2.2128906,-3.6505432,-1.5370483,1.142334,-0.8132019
1627,A,442634517031165,9.002121,-2.91391,-4.416031,-2.132721,1.1507874,-0.20761108
1627,A,442634537172767,12.202896,-4.3627777,-4.2507477,-1.7944183,0.48028564,0.28549194
1627,A,442634557314368,16.012573,-4.252426,-3.215271,-0.625412,0.12461853,0.10813904
1627,A,442634577455970,15.578461,-1.763031,-5.6219788,-0.038085938,0.14440918,-0.25604248
1627,A,442634597597571,12.706726,-1.3141937,-8.149048,-0.1455841,0.13760376,-0.5198364
1627,A,442634617739173,10.912277,-1.2708282,-7.714035,0.2034607,-0.3080902,-0.4051361
1627,A,442634637880774,9.897385,-2.5066986,-5.415802,0.43904114,-1.7696075,0.08189392
1627,A,442634658022376,11.169342,-1.6655579,1.7352295,-0.036880493,-1.7530518,0.5201721
1627,A,442634678163977,12.890732,-2.6014862,4.343292,1.0897217,-0.8196411,0.549942
1627,A,442634698305579,13.523621,-2.6986084,4.5009155,1.6753845,-0.4862671,0.7548523
1627,A,442634718447181,11.492126,-0.09864807,4.899719,1.1036987,-0.3658905,0.97772217
1627,A,442634738588782,11.648193,2.234604,4.439087,0.52905273,0.45298767,0.092926025
1627,A,442634758730384,11.759125,1.9545441,3.6444702,0.021011353,-0.48075867,0.17079163
1627,A,442634778871985,11.818008,1.4256134,3.6161041,0.212677,-0.2024231,0.5455475
1627,A,442634799013587,10.937653,0.11383057,0.74468994,-0.24649048,-0.61024475,0.14474487
1627,A,442634819155188,9.554565,-1.4809875,-1.9809723,-0.64549255,0.6405945,0.20207214
1627,A,442634839296790,7.1567993,-2.3048248,-2.870224,-0.4152832,0.5270996,-0.20227051
1627,A,442634859438392,4.46521,-1.7495728,-2.6425018,0.16798401,1.0082092,-1.0863953
1627,A,442634879579993,3.815918,-0.41011047,-1.1538544,-0.3092804,0.68743896,-0.9719696
1627,A,442634899721595,3.3078766,-0.919754,-0.29223633,-1.1202545,1.1846771,-0.89527893
1627,A,442634919863196,3.451538,-2.3013458,-0.6953888,-1.6531067,1.0742188,-0.50567627
1627,A,442634940004798,5.1440277,-3.3249207,-0.32751465,-1.7439117,0.6542206,0.23291016
1627,A,442634960146399,7.1130676,-2.079193,-2.5280151,-1.0904846,0.120025635,0.19839478
1627,A,442634980288001,8.98259,1.3967133,-2.235794,0.097961426,0.07800293,-0.3230896
1627,A,442635000429602,9.929184,4.116272,-0.2829895,0.14425659,0.1837616,-0.5854492
1627,A,442635020571204,10.685638,5.416107,-0.008056641,0.55184937,-0.2539215,-0.45780945
1627,A,442635040712806,11.397491,6.203888,-0.6747894,0.49588013,-1.7288971,-0.0067443848
1627,A,442635060854407,12.622421,6.978653,1.4584503,0.078689575,-1.5609589,0.48851013
