Subject-Id,Activity Label,Time stamp,Accel_x,Accel_y,Accel_z,Gyro_x,Gyro_y,Gyro_z
1633,A,694780719609246,-1.4602509,-6.277527,0.72839355,-1.884491,-0.46487427,-1.023941
1633,A,694780739750848,-1.6371613,-6.441147,1.1985016,-1.0881195,0.87631226,-0.011886597
1633,A,694780759892449,-1.9923401,-6.411911,1.8094635,-0.06726074,0.19068909,0.83706665
1633,A,694780780034051,-1.4022522,-6.661316,1.2607117,0.5926666,-1.3055878,0.72114563
1633,A,694780800175652,-1.1808777,-7.139496,0.15652466,1.2608032,-1.8068848,0.93066406
1633,A,694780820317254,-1.6101837,-8.090286,-0.63272095,0.8559723,1.0909729,0.60565186
1633,A,694780840458856,-2.2075043,-9.464951,-0.8209076,-0.11125183,1.8786926,-0.15985107
1633,A,694780860600457,-2.8085327,-11.721878,-0.6463165,0.11729431,-0.049682617,-0.53756714
1633,A,694780880742059,-3.311432,-13.613022,0.20188904,0.5159607,-0.4465027,-0.6072998
1633,A,694780900883660,-3.3507538,-15.192154,1.168747,1.0842896,0.058563232,-0.6138611
1633,A,694780921025262,-4.159439,-17.328583,1.7193909,1.7220001,0.56703186,-0.5050812
1633,A,694780941166863,-3.095993,-18.283386,-0.09786987,1.6852112,2.7375336,0.040374756
1633,A,694780961308465,-2.8861084,-17.676102,-0.76252747,0.81881714,2.381958,0.7301178
1633,A,694780981450066,-2.7794952,-13.6662445,-0.29078674,0.031341553,0.31155396,1.0912781
1633,A,694781001591668,-2.5064392,-11.206131,-0.18586731,-0.8473816,0.033325195,0.99365234
1633,A,694781021733270,-2.285141,-8.984375,0.3280182,-1.4050903,-2.9322205,-1.6698303
1633,A,694781041874871,-1.3989868,-7.367874,0.56762695,-0.47203064,-3.8154144,-1.5169525
1633,A,694781062016473,-0.10220337,-6.5947876,0.33087158,0.54803467,-1.5695801,0.28536987
1633,A,694781082158074,1.151062,-6.6683044,-0.33413696,-1.4373322,0.05682373,-0.43528748
1633,A,694781102299676,3.1550446,-6.822006,-1.666626,-2.6832733,2.2615814,-0.43917847
1633,A,694781122441277,5.0457306,-6.6732483,-3.1811066,-0.7402344,3.97583,1.0442657
1633,A,694781142582879,4.294922,-6.2082214,-3.0971375,1.3568268,1.5337677,1.0330353
1633,A,694781162724481,1.2802582,-5.2381744,-0.85279846,-0.04928589,-3.4403534,0.6088104
1633,A,694781182866082,-1.3837433,-6.8958893,0.6579437,-1.2192078,-1.8124237,0.45083618
1633,A,694781203007684,-1.374176,-7.268982,-3.3361816,-0.42295837,-0.037460327,0.33041382
1633,A,694781223149285,-0.5820923,-5.9642334,-3.6111908,0.3773346,-0.24911499,-0.17274475
1633,A,694781243290887,0.35325623,-6.0219574,-3.5533142,0.15228271,-1.1684723,-0.6570282
1633,A,694781263432488,-2.8870087,-8.089844,-3.1902924,-1.373291E-4,-0.33325195,-0.70780945
1633,A,694781283574090,-5.6917877,-9.053589,-2.049179,0.6853943,0.6530609,-0.46714783
1633,A,694781303715691,-5.4476013,-9.18985,-3.3632813,1.7646027,0.027694702,-0.68258667
1633,A,694781323857293,-0.6134491,-8.611328,-4.455017,1.4649353,2.4844818,0.082336426
1633,A,694781343998895,3.582077,-8.65387,-4.3495026,-0.07394409,2.315506,0.68118286
1633,A,694781364140496,-4.37883,-14.4956665,-2.4445953,-0.6404724,-0.76148987,1.2091217
1633,A,694781384282098,-4.853882,-14.957306,-3.3268127,-0.41983032,-1.3561707,0.71990967
1633,A,694781404423699,-0.8742218,-13.677795,-2.1976929,-0.7157898,1.290451,-0.806427
1633,A,694781424565301,-3.7870178,-16.191528,-2.2133026,0.35572815,-0.9866638,-1.0424042
1633,A,694781444706902,1.790863,-14.397278,-1.0068817,1.4801178,-3.1093292,0.31556702
1633,A,694781464848504,1.5427551,-16.228943,-1.1870422,0.17095947,-0.3897705,0.46424866
1633,A,694781484990106,-0.4575348,-13.001175,-2.274231,-2.103836,1.4111023,-0.8203583
1633,A,694781505131707,-1.8532715,-9.333511,-1.565094,-2.164566,0.6134186,-0.24913025
1633,A,694781525273309,-2.4792633,-7.7903595,-0.7916107,0.5604248,4.107712,0.87072754
1633,A,694781545414910,-2.5440216,-8.31073,-0.30847168,0.97895813,-1.5291443,0.6392975
1633,A,694781565556512,-2.876297,-9.588867,0.016311646,-0.23234558,-2.0414276,0.65708923
1633,A,694781585698113,-1.4878235,-9.011108,-0.2846527,-0.6703644,-0.7381592,0.6246033
1633,A,694781605839715,-1.3315277,-7.8257904,-0.16751099,-0.6700287,-1.0741425,-0.06739807
1633,A,694781625981316,-0.698761,-6.486038,-0.5461426,-1.0259094,-2.5713043,-0.78952026
1633,A,694781646122918,0.568161,-5.689972,-0.64793396,-0.6667175,-0.6762085,-0.380661
1633,A,694781666264520,1.2929382,-5.169998,-0.7529907,0.41886902,3.0965576,0.013259888
1633,A,694781686406121,0.39401245,-5.081726,-0.47906494,2.0134888,2.6001587,-0.55345154
1633,A,694781706547723,-0.04824829,-5.200058,-0.41815186,1.953064,2.6435242,-0.29942322
1633,A,694781726689324,0.22561646,-5.4357452,-0.27919006,0.55418396,2.0993652,0.34146118
1633,A,694781746830926,0.7677307,-6.173218,0.12086487,0.2683258,-1.2357788,0.6455536
1633,A,694781766972527,-0.727005,-6.735016,0.5093384,0.47691345,-0.8074951,1.0696869
1633,A,694781787114129,-1.291626,-8.143646,0.24885559,-0.42790222,-0.7068634,1.4796143
1633,A,694781807255731,-1.6514435,-10.008484,0.19470215,-0.95072937,-1.8670502,0.23936462
1633,A,694781827397332,-2.2904358,-12.236282,0.67134094,-0.94551086,-3.0718842,-1.2403259
1633,A,694781847538934,-2.730133,-14.290985,1.3001862,-1.0018616,-1.5554047,-1.3117981
1633,A,694781867680535,-3.8009796,-15.837997,1.3276367,-1.1079865,0.60110474,-0.56259155
1633,A,694781887822137,-5.902527,-18.038483,1.7270966,-0.9977722,2.1304321,0.30197144
1633,A,694781907963738,-6.3670654,-18.717926,1.288269,-0.5710602,3.593155,0.60317993
1633,A,694781928105340,-5.8562775,-17.075836,-0.09854126,1.2611542,-0.059066772,0.41229248
1633,A,694781948246941,-4.879837,-14.593597,-1.3522034,-0.056137085,-1.8373108,0.5826721
1633,A,694781968388543,-3.801056,-11.675674,-1.6548157,-0.62731934,-1.0871277,0.7888031
1633,A,694781988530145,-3.2854004,-9.544266,-1.1312256,-0.22383118,0.21559143,0.46957397
1633,A,694782008671746,-2.4108887,-7.89299,-1.0469818,-0.28248596,0.24497986,-0.5539856
1633,A,694782028813348,-1.6367493,-6.8009796,-1.2224274,-0.6464386,-1.7662964,-1.4362946
1633,A,694782048954949,0.10662842,-6.597183,-1.400589,-0.21107483,-1.2838593,-1.1178894
1633,A,694782069096551,4.2710266,-7.57547,-2.3784485,1.0346985,1.8488617,-0.16378784
1633,A,694782089238152,8.415375,-8.791687,-3.5382996,2.1959534,1.4260712,-0.4876709
1633,A,694782109379754,7.058441,-6.893524,-1.9850922,1.622055,3.4561768,-0.24578857
1633,A,694782129521356,3.5818787,-4.7981567,-0.8303375,0.21670532,3.1152496,0.455307
1633,A,694782149662957,0.23132324,-4.795761,1.3010406,0.17451477,0.6407471,1.012558
1633,A,694782169804559,-2.4448853,-5.762558,1.2723694,-0.30267334,-1.3914032,1.6200867
1633,A,694782189946160,-2.0046844,-6.373581,-2.6510773,-0.9173584,-2.914444,0.3118744
1633,A,694782210087762,1.2691498,-5.3976135,-4.1728363,-1.5639954,-3.7354584,-2.0634918
1633,A,694782230229363,0.95118713,-5.803894,-3.453415,-0.09480286,-1.0972137,-0.42907715
1633,A,694782250370965,-0.17407227,-6.377136,-2.7258606,0.004333496,-1.2714539,-0.2565155
1633,A,694782270512566,-0.49401855,-7.6871033,-2.6786041,-0.9631195,1.7802277,0.25550842
1633,A,694782290654168,-2.4380493,-11.089111,-2.781845,-0.45503235,3.4356842,1.0711823
1633,A,694782310795770,-4.0723724,-15.195694,-2.2867584,0.7588196,3.6479492,0.6836853
1633,A,694782330937371,-5.331299,-17.002869,0.5401001,-0.042510986,-1.6583099,0.6466217
1633,A,694782351078973,-6.5657654,-16.9272,3.208664,-0.7561035,-2.9152222,0.9026489
1633,A,694782371220574,-4.0884857,-16.414383,2.1384125,-0.91000366,-2.38266,0.35858154
1633,A,694782391362176,-2.408371,-15.529541,-0.44114685,-0.95336914,-2.689682,-0.28678894
1633,A,694782411503777,-1.3783722,-13.88208,-3.274353,-1.0497131,-1.5974579,-0.5989227
1633,A,694782431645379,-0.70835876,-13.528122,-3.7607422,-0.6695099,1.4549713,-0.6311188
1633,A,694782451786981,-0.7382202,-12.932007,-1.9256744,0.46313477,2.6909332,-0.8516693
1633,A,694782471928582,-0.10902405,-11.278671,-1.1110382,1.6025543,1.6214294,-1.0693207
1633,A,694782492070184,-0.2748413,-9.751846,0.105392456,1.1749878,2.6661682,-0.56648254
1633,A,694782512211785,-1.5268402,-9.328827,1.1313629,0.41841125,1.6380615,0.25012207
1633,A,694782532353387,-2.1260834,-9.011307,1.5762634,0.21463013,-0.8231964,0.7468567
1633,A,694782552494988,-1.9972687,-8.078812,1.4528656,0.05116272,-0.8760376,1.4244385
1633,A,694782572636590,-0.8112488,-7.0892334,0.45211792,0.13624573,-0.6601105,0.9165344
1633,A,694782592778191,0.37998962,-6.3142548,-0.49771118,-0.5216217,0.10165405,-1.6525726
1633,A,694782612919793,0.78430176,-5.905243,-1.0889435,0.81799316,0.2000885,-0.7612152
1633,A,694782633061395,1.4342041,-5.9538574,-1.295044,0.23687744,-0.9543457,0.0843811
1633,A,694782653202996,2.125183,-6.181671,-0.92533875,-1.5913849,0.7366791,-0.7359772
1633,A,694782673344598,1.6275024,-5.9362335,-0.2846527,-1.951477,-0.097076416,-0.56111145
1633,A,694782693486199,1.0966187,-5.311783,-0.043258667,-1.8477478,0.1053772,-0.0796051
1633,A,694782713627801,0.17170715,-5.2368774,0.38978577,0.08911133,-1.1667786,0.39253235
1633,A,694782733769402,-0.9583435,-5.9933167,0.6055603,0.3390808,-3.6070557,0.66026306
1633,A,694782753911004,-1.4298401,-7.583481,0.2286377,0.27983093,-1.7182922,0.8395996
1633,A,694782774052606,-1.7085571,-9.541397,-0.11756897,0.39797974,0.06718445,0.85531616
1633,A,694782794194207,-2.5002594,-11.176529,-0.14108276,-0.52449036,0.9485779,0.10203552
1633,A,694782814335809,-3.73555,-12.756577,0.2792511,-0.68907166,-0.10002136,-0.29470825
1633,A,694782834477410,-5.136795,-14.212326,0.943161,-0.2370758,0.09214783,-0.73368835
1633,A,694782854619012,-5.9164276,-15.672379,1.5076447,0.6927643,0.19398499,-0.92762756
1633,A,694782874760613,-5.437622,-17.441315,0.2889557,1.212677,1.728653,-0.68966675
1633,A,694782894902215,-5.752182,-18.974838,-0.22454834,1.2120361,4.246765,0.20988464
1633,A,694782915043816,-6.2886047,-17.112915,-0.13061523,1.2407074,3.0455475,0.6753845
1633,A,694782935185418,-4.935562,-13.2599945,-0.14758301,1.0556335,1.4624329,1.1961975
1633,A,694782955327020,-3.639267,-10.54129,-1.0267792,0.6163025,0.8605499,1.1911469
1633,A,694782975468621,-2.0635986,-8.474442,-0.6900482,-0.32914734,-2.4262695,-0.28225708
1633,A,694782995610223,0.1396637,-7.1199493,-0.21170044,-0.106674194,-1.5416107,-1.2190247
1633,A,694783015751824,2.0265656,-6.733841,-0.34861755,1.158783,-1.5706787,0.3554535
1633,A,694783035893426,3.5934906,-7.2019043,-1.9717255,-0.61390686,-0.68395996,-0.6168823
1633,A,694783056035027,5.7542114,-7.7820435,-3.5287933,-2.3060303,0.95783997,-0.64186096
1633,A,694783076176629,7.8676605,-7.5193787,-4.0156403,-2.3090515,0.1174469,-0.102645874
1633,A,694783096318231,2.504425,-5.656433,-1.2689362,-1.3600159,0.84828186,0.8028412
1633,A,694783116459832,1.1061096,-2.9676056,-1.4699402,0.86894226,-3.7531128,1.2571716
1633,A,694783136601434,-0.61146545,-4.023407,-1.8574524,0.70848083,-3.281845,0.8816681
1633,A,694783156743035,-1.9644928,-5.77771,-2.4194489,-0.85043335,0.23590088,0.32037354
1633,A,694783176884637,-2.1044922,-5.554611,-0.4596405,-1.093338,-0.45733643,-0.078063965
1633,A,694783197026238,-1.7077332,-6.339279,-2.6658325,-0.47854614,-0.7204895,-0.68582153
1633,A,694783217167840,-1.9520721,-6.294693,-2.9974976,0.013977051,0.81159973,-0.9553528
1633,A,694783237309441,-1.289566,-7.1270294,-3.5576172,0.47738647,1.9159088,-1.1162415
1633,A,694783257451043,-1.8078156,-9.996872,-3.2776337,1.269867,2.4040833,-0.8091278
1633,A,694783277592645,-3.158783,-12.971848,-3.1438293,0.9763031,3.4939117,0.016220093
1633,A,694783297734246,-4.1529083,-15.460251,-2.3867188,0.15112305,0.8846283,0.9450989
1633,A,694783317875848,-7.6565857,-17.33229,1.3527832,0.7084961,-3.5943604,1.1713715
1633,A,694783338017449,-4.977356,-14.942902,6.418091,0.872406,-2.7962341,1.2002411
1633,A,694783358159051,-1.2795258,-14.29451,5.302246,0.68414307,2.993744,-0.21310425
1633,A,694783378300652,0.42599487,-14.797638,-6.4573364,0.45689392,4.061676,-2.0628052
1633,A,694783398442254,-0.056610107,-15.508484,-6.7323456,1.8984833,-0.22195435,0.6642914
1633,A,694783418583856,-2.487564,-14.509018,-3.488968,-0.10775757,-1.8908844,0.016067505
1633,A,694783438725457,-2.3131714,-13.041092,-0.42712402,-2.8229065,1.4498749,-1.1165314
1633,A,694783458867059,-1.5272675,-11.339371,-0.47377014,-1.5704193,0.9924774,-0.73176575
1633,A,694783479008660,-0.9262848,-9.041199,-0.07220459,-0.34350586,1.940155,0.5834656
1633,A,694783499150262,-2.0072784,-8.303177,0.47825623,-0.323761,-1.9252777,0.43797302
1633,A,694783519291863,-2.093811,-8.291794,0.5488281,0.6560211,-4.193466,0.8590851
1633,A,694783539433465,-0.38258362,-8.091614,-0.0743866,-0.27922058,-1.9131622,0.50816345
1633,A,694783559575066,1.959732,-7.484497,-1.1938477,-1.1694641,-1.2164001,0.2884369
1633,A,694783579716668,3.0627747,-6.845993,-1.681427,-1.3170166,-1.6395874,-0.32167053
1633,A,694783599858270,2.6251526,-6.2559967,-1.339325,-1.0206146,-0.75006104,-0.6703186
1633,A,694783619999871,1.7215881,-5.5965576,0.0071411133,-0.5365143,1.2348785,-0.9305725
1633,A,694783640141473,1.3096619,-6.006729,0.95462036,0.1899414,1.9891205,-0.9110718
1633,A,694783660283074,-0.63412476,-5.9930725,2.5694122,1.2523499,2.7963257,-0.5719452
1633,A,694783680424676,-1.9609985,-5.474167,2.9320831,0.85557556,3.553299,-0.010559082
1633,A,694783700566277,-1.9631042,-5.2447205,2.590683,-0.03895569,0.07785034,0.9346924
1633,A,694783720707879,-1.8142242,-6.0481873,1.7889252,0.5690613,-4.230118,1.1894836
1633,A,694783740849481,-2.2450104,-6.983246,0.9875641,1.3665771,-3.8643188,1.3712158
1633,A,694783760991082,-2.5676422,-8.750946,-0.559845,0.813385,0.56303406,0.19378662
1633,A,694783781132684,-4.0513916,-11.441803,-0.9351196,-0.3515625,3.1797485,-2.1143951
1633,A,694783801274285,-3.833084,-13.754044,-1.5400085,1.0071259,1.0019379,-0.30496216
1633,A,694783821415887,-4.327545,-15.901367,-1.6913757,1.3373566,-0.6065674,0.22573853
1633,A,694783841557488,-4.5090027,-17.112213,-0.9354706,-1.1704559,0.9029999,-0.661026
1633,A,694783861699090,-3.575821,-17.529343,-2.332016,-2.0631714,0.7284088,-0.71006775
1633,A,694783881840691,-3.7270813,-18.68866,-1.8625183,-0.8847809,1.9673462,0.7312927
1633,A,694783901982293,-4.4693604,-17.220383,-0.06767273,-0.22819519,-0.92214966,0.71554565
1633,A,694783922123895,-4.87796,-12.481262,1.7663269,-0.45951843,-5.1654053,0.7285919
1633,A,694783942265496,-4.9575195,-8.8013,1.4485626,-0.93911743,-2.508606,0.73391724
1633,A,694783962407098,-4.2224884,-6.8928986,-0.9477234,-0.7447052,0.80296326,0.49075317
1633,A,694783982548699,-2.9005127,-5.3183746,-1.0281677,-0.73417664,0.824234,-0.37205505
1633,A,694784002690301,-1.8424072,-4.8875275,-1.420105,-0.47576904,-1.1304779,-0.46012878
1633,A,694784022831902,-0.644577,-5.9148407,-1.6046448,0.04637146,-0.41049194,-0.6505127
1633,A,694784042973504,0.53930664,-7.239151,-1.6089783,0.9739227,1.2535858,-0.9064331
1633,A,694784063115106,2.339859,-8.178528,-1.9754486,1.8945618,1.5779724,-0.76605225
1633,A,694784083256707,3.921646,-7.863205,-2.5152588,1.1733093,3.4879456,-0.18751526
1633,A,694784103398309,4.7450104,-6.8852234,-1.8109589,0.42108154,3.3021088,0.6188202
1633,A,694784123539910,2.719101,-4.975586,-0.35856628,0.4566803,1.5424652,1.1322174
1633,A,694784143681512,3.0074005,-4.781189,-1.9214783,0.24235535,0.72473145,1.53125
1633,A,694784163823113,1.3980103,-6.389633,-4.481903,-0.71487427,-0.33384705,0.38417053
1633,A,694784183964715,0.71702576,-6.895157,-4.4624786,-0.82125854,-5.3807983,-1.464386
1633,A,694784204106316,-0.9909973,-8.018326,-0.8579407,0.27600098,-3.0626526,-0.4776001
1633,A,694784224247918,-2.2483368,-9.347702,0.70977783,-0.19628906,-0.40415955,-0.6266937
1633,A,694784244389520,-3.7270355,-11.095779,-1.6355743,-1.8600922,1.5435791,-0.990921
1633,A,694784264531121,-6.1394806,-13.427765,-2.3905945,-1.9515686,2.6524963,0.11273193
1633,A,694784284672723,-6.688095,-13.946411,-2.360077,-0.1865387,4.3076324,1.2971191
1633,A,694784304814324,-8.1332855,-14.036591,-1.1581421,1.1746674,-2.361206,0.7236328
1633,A,694784324955926,-4.1356964,-12.816467,0.59454346,0.35502625,-3.9792633,0.678421
1633,A,694784345097527,-2.5537567,-15.062576,0.4916687,-0.88723755,-1.07164,0.49328613
1633,A,694784365239129,-1.3882904,-17.339813,-1.6191101,-0.6211548,-0.87872314,-5.187988E-4
1633,A,694784385380731,-0.5793152,-16.428009,-2.60289,-0.86650085,-2.199173,-0.71458435
1633,A,694784405522332,-2.1804504,-13.361847,-1.2866974,-0.7014923,-1.4537048,-0.7698517
1633,A,694784425651977,-1.4025726,-10.570892,-0.5423584,0.09057617,2.0041351,-0.86628723
1633,A,694784445793578,-1.3874817,-8.979813,0.05583191,1.4470825,2.8389282,-0.9156189
1633,A,694784465935180,-2.1134033,-8.193695,0.54138184,1.6826477,3.1465607,-0.5633545
1633,A,694784486076781,-2.5555878,-8.042709,0.9447937,0.22128296,2.8713684,0.6306305
1633,A,694784506218383,-2.6936798,-8.149277,1.0173798,-0.38883972,-2.3286438,1.1540527
1633,A,694784526359984,-2.1316376,-8.035019,0.30326843,0.27113342,-4.4575653,1.0248108
1633,A,694784546501586,0.07092285,-7.3116455,-0.64341736,0.57051086,0.6833801,0.74394226
1633,A,694784566643188,2.5025177,-6.2918396,-1.4771271,-0.12214661,2.2518768,-0.24659729
1633,A,694784586784789,2.9129028,-5.4302063,-1.8668213,0.56692505,-0.061065674,-0.06661987
1633,A,694784606926391,2.9786224,-5.061249,-1.4261627,0.63098145,-1.0078278,0.58961487
1633,A,694784627067992,2.798233,-5.4701385,-0.3991394,-1.9042969,0.7133026,-0.69540405
1633,A,694784647209594,1.6957397,-5.755066,0.526886,-2.190796,-0.032196045,-0.7445679
1633,A,694784667351195,0.27886963,-5.372299,1.4403992,0.17414856,1.6289063,0.2992401
1633,A,694784687492797,-1.0152893,-5.67955,2.2937317,0.61764526,1.9206543,0.9028015
1633,A,694784707634399,-1.5350189,-7.5882874,1.7843323,0.36540222,-1.7642517,0.7810364
1633,A,694784727776000,-1.3380585,-10.48909,0.48745728,-0.7279968,-2.3559418,0.44613647
1633,A,694784747917602,-1.6871033,-13.149155,-0.65470886,-1.2486877,-3.5653381,0.007232666
1633,A,694784768059203,-2.8895721,-14.723099,-1.119873,-0.9828949,-2.9764252,0.05050659
1633,A,694784788200805,-4.064987,-15.343674,-0.14341736,-0.7189789,-0.11621094,-0.4773407
1633,A,694784808342406,-5.096344,-15.799286,0.8195343,-0.040740967,1.7353516,-0.70965576
1633,A,694784828484008,-5.1584015,-16.142517,-0.3133545,0.93685913,1.7411652,-1.0561218
1633,A,694784848625609,-5.732025,-17.213852,-1.0042114,1.8513794,0.57310486,-1.2343597
1633,A,694784868767211,-5.8049164,-16.972946,-0.7015228,1.0908966,1.9252777,-0.85162354
1633,A,694784888908813,-4.5839386,-13.637283,-0.49465942,0.17121887,2.9156952,0.41737366
1633,A,694784909050414,-3.9349365,-10.468826,-0.70858765,0.48135376,2.634842,1.4185944
1633,A,694784929192016,-3.651886,-8.26828,-1.67099,0.2674713,1.168457,1.4156189
1633,A,694784949333617,-3.1942444,-6.77623,-2.4638672,-1.1852722,-0.18167114,1.6311188
1633,A,694784969475219,-2.035019,-6.7874603,-1.4326324,-1.6428833,-2.8681946,-0.44621277
1633,A,694784989616820,-0.5135498,-7.4795227,-1.153305,-0.8336792,-8.217728,-2.1598206
1633,A,694785009758422,1.8309784,-8.0134735,-2.2567291,0.8473053,-1.5387115,-0.76060486
1633,A,694785029900024,9.2030945,-9.188034,-4.907181,-0.30810547,1.1996765,-0.24267578
1633,A,694785050041625,8.9978485,-8.617096,-3.3763123,-0.9480896,3.6779785,0.3914795
1633,A,694785070183227,4.9861298,-5.6522064,-0.023864746,-0.66567993,4.709152,1.2368164
1633,A,694785090324828,1.1454926,-4.659378,1.4427338,0.30241394,2.5547333,0.43066406
1633,A,694785110466430,0.21304321,-4.6230927,-2.339859,-0.34236145,-2.9434662,0.56427
1633,A,694785130608031,1.0484772,-4.7122345,-4.133362,-0.88797,-2.7423248,0.17997742
1633,A,694785150749633,1.460083,-5.0963287,-2.1690063,-0.79011536,-1.855835,-0.30433655
1633,A,694785170891234,0.089401245,-5.9373016,-1.4065857,-1.3847656,-0.7245636,-1.1580658
1633,A,694785191032836,-1.4136963,-7.138687,-1.3813171,-0.561615,1.0418854,-0.7739868
1633,A,694785211174438,-2.5719757,-8.651047,-1.6937408,1.1542053,2.8023224,-0.04876709
1633,A,694785231316039,-4.867874,-12.464508,-1.5334015,2.3725128,2.217514,-0.546463
1633,A,694785251457641,-4.84964,-15.797577,-1.201416,1.6338959,1.933609,-0.84324646
1633,A,694785271599242,-5.7128906,-16.703354,1.4343414,0.93270874,2.80542,-0.3113098
1633,A,694785291740844,-5.2135773,-14.881439,3.7253723,0.30815125,0.5050049,0.6132965
1633,A,694785311882445,-1.99617,-12.9951935,1.667099,-0.19212341,0.44606018,1.2954102
1633,A,694785332024047,-1.5841675,-12.710342,-1.8375244,-0.6684418,1.3321075,1.441803
1633,A,694785352165649,-2.3001556,-14.192841,-3.9983063,-1.2823486,-0.76486206,0.92300415
1633,A,694785372307250,-3.1490936,-15.079376,-3.292923,-1.329834,-8.930283,-1.1201477
1633,A,694785392448852,-2.6280365,-12.977097,-1.6045532,-0.44407654,-5.7781067,-1.844101
1633,A,694785412590453,-1.5579071,-10.6983185,-0.82691956,-0.036071777,0.79878235,-0.7425537
1633,A,694785432732055,-0.7197113,-9.369278,-0.30944824,-0.7038727,2.4728088,-0.7145386
1633,A,694785452873656,-0.9155121,-8.613251,-0.029785156,-1.1644745,1.6476898,0.6420593
1633,A,694785473015258,-0.62532043,-8.626602,0.1053009,-2.5529785,3.5673218,0.26046753
1633,A,694785493156859,0.8674469,-8.353867,-0.5988159,-0.087890625,-0.5535736,0.11581421
1633,A,694785513298461,1.7484589,-7.6910706,-0.8461609,1.6293793,-5.7100525,1.1034546
1633,A,694785533440063,1.4768372,-6.9815063,-0.5551758,0.7290497,-0.2490387,0.5546417
1633,A,694785553581664,1.0805511,-6.428467,-0.023345947,-0.72473145,0.26831055,-0.009857178
1633,A,694785573723266,0.6566162,-6.06308,0.52796936,-0.97132874,-0.48350525,-0.3460083
1633,A,694785593864867,0.075164795,-5.733185,0.94877625,-0.17727661,0.62724304,-0.75891113
1633,A,694785614006469,-0.5997772,-5.512741,1.3287659,0.6552582,1.923233,-0.9888458
1633,A,694785634148070,-1.0930634,-5.77182,1.2313538,0.81741333,2.9872894,-1.0849457
1633,A,694785654289672,-0.48968506,-6.1909943,1.4225922,1.0598145,2.207199,-0.38212585
1633,A,694785674431274,-0.83044434,-7.10907,1.6973572,0.08018494,0.9008026,0.68440247
1633,A,694785694572875,-1.3506165,-8.615509,1.1997833,-0.41426086,-1.484436,1.1691437
1633,A,694785714714477,-2.395172,-10.418228,0.52778625,0.4597473,-1.912262,1.5436249
1633,A,694785734856078,-2.5784607,-12.163406,0.26686096,0.4842224,-1.032486,1.4290924
1633,A,694785754997680,-3.381607,-14.1633,-0.2540741,-0.61376953,-2.1235352,-1.1344452
1633,A,694785775139281,-4.9223022,-15.692108,-0.47650146,0.20637512,-1.3343353,-1.4923706
1633,A,694785795280883,-5.79364,-16.658035,-0.15620422,1.3176422,1.0544434,0.01713562
1633,A,694785815422484,-3.8783264,-15.608444,-1.3675232,-0.0118255615,0.7397461,-0.5066376
1633,A,694785835564086,-4.2140045,-16.69777,-1.31987,-1.6358643,3.1151428,-0.34248352
1633,A,694785855705688,-4.1005096,-15.381775,-0.78556824,-0.61138916,3.7687836,0.425766
1633,A,694785875847289,-3.5744934,-12.453857,-0.7374573,-0.31466675,0.15301514,0.53878784
1633,A,694785895988891,-3.0451202,-9.557922,-0.61317444,0.3929596,-5.4129944,0.5662689
1633,A,694785916130492,-3.260498,-7.3693237,-0.25360107,-0.7279968,-2.760559,0.69940186
1633,A,694785936272094,-1.9904938,-6.3477936,-0.27742004,-1.5818329,-0.78356934,0.29794312
1633,A,694785956413695,-0.28877258,-6.912445,-0.49194336,-1.1422119,0.10455322,-0.22741699
1633,A,694785976555297,0.64315796,-8.373001,-0.8427429,-0.49014282,0.78053284,-0.8685303
1633,A,694785996696899,3.5151825,-9.465561,-1.8083954,-1.0275726,-0.28034973,-0.7902374
1633,A,694786016838500,10.873077,-10.133774,-5.169632,0.11355591,1.1421509,-0.51312256
1633,A,694786036980102,7.7681427,-7.90036,-3.2529907,1.8554077,1.0179291,-0.47079468
1633,A,694786057121703,1.5020142,-5.9372253,-0.99832153,1.3756714,1.2908936,0.4473877
1633,A,694786077263305,-1.5549927,-5.9986725,-2.7355042,0.28579712,-0.025665283,0.8207245
1633,A,694786097404906,-1.2034454,-5.58107,-3.258255,1.3770447,-2.3366394,0.9101105
1633,A,694786117546508,-0.14901733,-4.942154,-4.567505,1.0022736,0.5709686,0.20927429
1633,A,694786137688109,0.90800476,-5.2655487,-4.087738,-1.3392487,3.9010162,-2.4022522
1633,A,694786157829711,0.17723083,-5.920395,-2.9359894,0.15829468,2.6007385,-0.4912262
1633,A,694786177971313,-0.27853394,-7.149475,-3.0156403,1.8018951,1.437851,0.3643036
1633,A,694786198112914,-2.2326202,-9.114197,-3.4355927,-1.3083038,0.3307953,-0.50471497
1633,A,694786218254516,-4.1529694,-11.7258,-4.7686462,-2.363556,0.17767334,-0.89108276
1633,A,694786238396117,-2.7491455,-13.405884,-4.817047,-1.176712,-1.9086151,-0.5242615
1633,A,694786258537719,-4.3009186,-14.934311,-3.8235626,-0.52563477,1.5001221,0.81318665
1633,A,694786278679320,-2.980072,-14.604523,-2.4224396,1.1171722,-3.0034637,0.44030762
1633,A,694786298820922,-0.16571045,-13.727234,-0.3628235,0.8780823,-3.6508026,0.6307678
1633,A,694786318962524,2.5332336,-12.402557,0.15130615,0.114715576,-1.5308685,0.7886658
1633,A,694786339104125,2.5656433,-12.699875,-1.6777954,-0.81710815,-1.2035065,0.41348267
1633,A,694786359245727,1.5680695,-13.904312,-3.576294,-1.1748505,-0.7253723,-0.74380493
1633,A,694786379387328,0.124420166,-14.027374,-3.5114288,-0.66555786,-0.020126343,-0.6360626
1633,A,694786399528930,-0.3011322,-12.037811,-1.4904938,0.22857666,2.0325317,-0.7084961
1633,A,694786419670531,-1.0496979,-10.15155,-0.1478424,1.5987091,2.0441742,-0.6451874
1633,A,694786439812133,-2.043274,-9.210861,0.22521973,1.3868561,2.058609,-0.4998169
1633,A,694786459953734,-2.3168182,-8.9891815,0.38420105,0.39749146,2.2146912,0.34272766
1633,A,694786480095336,-1.8694,-8.59877,0.45336914,0.092559814,-0.100250244,0.80352783
1633,A,694786500236938,-1.6476898,-7.4797363,0.3801117,-0.22297668,-1.0561676,1.2120667
1633,A,694786520378539,-1.0048828,-6.30632,0.045654297,-0.7576599,0.23735046,0.6139221
1633,A,694786540520141,-0.28483582,-5.757141,-0.47628784,-0.6705017,-0.49893188,-1.3019714
1633,A,694786560661742,-0.4757843,-5.5286407,-0.29776,1.0239563,1.1903076,-0.17103577
1633,A,694786580803344,-0.14283752,-5.5171814,0.060653687,0.1083374,0.2557068,-0.96617126
1633,A,694786600944945,0.26156616,-5.7523346,0.47558594,-2.39682,0.8694,-0.8119812
1633,A,694786621086547,0.50942993,-6.2977905,0.73690796,-1.0180206,-1.245697,-0.95080566
1633,A,694786641228149,0.78027344,-7.027466,0.9281006,-0.07606506,0.45892334,0.2668457
1633,A,694786661369750,0.56788635,-7.949585,0.8520508,1.0129547,-1.9444122,0.37675476
1633,A,694786681511352,-0.46569824,-9.257019,0.82751465,0.8482971,-4.324356,0.62442017
1633,A,694786701652953,-1.3454437,-11.20253,0.78302,-0.5722351,-1.5315857,0.7229004
1633,A,694786721794555,-2.1134338,-13.469162,0.47190857,-0.70388794,0.5470886,0.27433777
1633,A,694786741936156,-2.8452606,-14.66391,0.39405823,0.012390137,0.6077881,-0.23469543
1633,A,694786762077758,-3.8427582,-15.774429,1.1464996,0.11882019,0.47225952,-0.49734497
1633,A,694786782219359,-4.308487,-17.585464,1.0835876,0.07368469,-0.21884155,-0.7312622
1633,A,694786802360961,-3.926422,-18.176361,-0.3059845,0.84147644,-0.51016235,-0.5750427
1633,A,694786822502563,-3.9954224,-16.78926,-1.475769,0.9606018,0.6954193,-0.2811432
1633,A,694786842644164,-3.8067627,-13.686951,-2.0653534,-0.04927063,2.6696014,0.49162292
1633,A,694786862785766,-3.301651,-10.472809,-1.8219452,0.40950012,0.1973877,0.86639404
1633,A,694786882927367,-2.5164032,-8.175079,-1.3553162,0.9482269,-0.45425415,1.1642151
1633,A,694786903068969,-1.3907013,-6.8235016,-1.2087555,0.3239441,1.1517639,0.42778015
1633,A,694786923210570,-0.6290436,-6.5766907,-1.3681183,-0.3291626,1.9538879,-0.66342163
1633,A,694786943352172,0.7279663,-7.406433,-2.2115784,1.1273956,1.0894623,0.348938
1633,A,694786963493774,3.4369202,-9.060089,-3.614502,0.6678772,0.54312134,-0.37965393
1633,A,694786983635375,5.587799,-9.4101715,-4.1070404,-1.6844788,1.8002319,-0.72039795
1633,A,694787003776977,7.547058,-7.7486115,-2.9959564,-0.30906677,1.4227295,-0.28982544
1633,A,694787023918578,4.035141,-5.8944244,1.2668152,-0.22840881,0.7084961,0.79389954
1633,A,694787044060180,-1.5305939,-7.2074585,-0.061309814,-1.0493317,-2.1323395,0.5917816
1633,A,694787064201781,-2.624466,-7.668152,-2.516449,-0.6115265,-5.472702,0.563324
1633,A,694787084343383,-0.60969543,-6.3217926,-2.2122803,-0.8396454,-3.2226868,-0.11997986
1633,A,694787104484984,1.4312439,-5.3267517,-2.837082,-0.7659607,0.31584167,0.025344849
1633,A,694787124626586,1.9629669,-4.79422,-3.7326813,-0.54992676,0.8144989,-0.602005
1633,A,694787144768188,0.71336365,-5.553955,-2.9011536,-0.3218994,-0.08364868,-0.77075195
1633,A,694787164909789,-0.7130585,-7.1921387,-3.7333984,-0.06309509,-0.54071045,-0.6842346
1633,A,694787185051391,-1.2550507,-9.258713,-4.591217,1.1609192,1.3312836,-0.6040039
1633,A,694787205192992,-2.3704376,-12.007095,-4.044571,2.37529,1.8733673,-0.3556671
1633,A,694787225334594,-6.7013702,-17.480286,-3.0073395,0.7301941,1.3847809,0.64404297
1633,A,694787245476195,-6.58963,-17.09079,-4.366989,-0.07098389,-1.1319275,0.982666
1633,A,694787265617797,-3.341217,-14.055252,-1.632782,0.7354126,-2.2862244,0.70176697
1633,A,694787285759399,0.59584045,-13.711014,3.0955353,-0.08363342,2.2894135,0.26522827
1633,A,694787305901000,2.1735992,-14.795303,0.37321472,-1.1126404,3.8677063,-0.49572754
1633,A,694787326042602,1.1923218,-14.102539,-3.0777283,0.5472412,0.0043182373,0.13366699
1633,A,694787346184203,-0.4181671,-12.333771,-3.1268768,0.70214844,-2.247223,-0.33067322
1633,A,694787366325805,-0.7832947,-11.142349,-1.4942322,-1.6475677,0.029876709,-0.33859253
1633,A,694787386467406,-1.2451172,-10.463364,0.029922485,-1.7879639,0.4015503,-0.7608948
1633,A,694787406609008,-1.3662415,-10.318665,0.37475586,0.058288574,0.8397827,0.11331177
1633,A,694787426750609,-0.49053955,-10.03508,-0.11231995,-0.2648468,1.129425,0.5875397
1633,A,694787446892211,0.9436493,-9.208603,-0.39645386,0.21646118,-3.6872559,0.7210083
1633,A,694787467033813,1.0365295,-8.0273285,0.0438385,-0.052642822,-3.2014465,0.20527649
1633,A,694787487175414,0.62138367,-6.638199,0.4313507,-0.16716003,-0.596756,0.18484497
1633,A,694787507317016,0.71243286,-5.5929413,0.9015045,-0.80555725,-0.26434326,-0.29019165
1633,A,694787527458617,1.1368408,-5.0701294,1.1132813,-0.75671387,-0.58509827,-0.6921997
1633,A,694787547600219,0.59336853,-5.309433,1.035675,-0.28970337,0.24993896,-0.975235
1633,A,694787567741820,-0.12194824,-5.548477,0.9038391,0.7389374,1.3623047,-0.88471985
1633,A,694787587883422,-0.86283875,-5.8631287,1.0788116,1.500061,2.7093353,-1.1322632
1633,A,694787608025024,-0.92015076,-6.024124,-1.2794037,0.5131378,4.398712,-0.1295166
1633,A,694787628166625,-1.8137207,-7.0204926,0.36663818,0.47483826,2.285904,0.8560486
1633,A,694787648308227,-2.1367645,-8.41539,0.66700745,-0.2117157,0.7055054,1.7120056
1633,A,694787668449828,-2.69841,-10.403732,0.54322815,-1.1602783,-1.0616608,1.9245453
1633,A,694787688591430,-3.320633,-12.739166,0.42427063,-1.2157745,-4.91008,-0.87117004
1633,A,694787708733031,-4.0800934,-15.090057,0.5016937,1.0956573,-3.5317688,-0.36953735
1633,A,694787728874633,-4.826706,-15.894348,-0.1774292,1.4616241,1.1817627,0.10331726
1633,A,694787749016234,-6.2378693,-16.068146,-1.0231934,0.03715515,0.40670776,-0.52342224
1633,A,694787769157836,-5.4375,-16.065872,-2.3501282,-1.4231873,0.9635315,-0.622818
1633,A,694787789299438,-5.164337,-16.930283,-3.2508545,-1.3068237,3.4944305,0.09664917
1633,A,694787809441039,-4.1488647,-15.363739,-2.012619,0.394516,4.3573456,0.8040924
1633,A,694787829582641,-2.781372,-12.310852,-1.2297058,-0.22354126,-1.4125824,0.8668976
1633,A,694787849724242,-1.9352417,-9.818939,-1.0992279,-0.6126404,-4.968857,0.48078918
1633,A,694787869865844,-1.8500214,-7.9937286,-0.30407715,-0.8345032,-4.160385,-0.58717346
1633,A,694787890007445,-1.7932281,-7.010544,-0.15110779,-1.0286407,-1.2822266,-0.18321228
1633,A,694787910149047,-1.1545868,-7.4080505,0.35850525,-0.11117554,0.930954,-0.2593689
1633,A,694787930290649,1.2415771,-8.429535,0.49560547,0.18597412,1.5113525,-0.62675476
1633,A,694787950432250,7.222336,-9.2009735,-0.8918152,0.17599487,1.860199,-0.9335327
1633,A,694787970573852,11.467361,-9.472092,-6.8410187,0.6602783,1.4401245,-0.68981934
1633,A,694787990715453,2.5381165,-6.713318,-0.4199524,0.79655457,0.861557,0.054473877
1633,A,694788010857055,-0.96128845,-5.8664856,-1.3233032,0.33114624,-0.07034302,0.72584534
1633,A,694788030998656,-1.9988251,-5.272705,-2.2594452,0.046340942,-0.033813477,1.1475983
1633,A,694788051140258,-2.3696747,-5.21019,-2.4009552,-0.21325684,0.27268982,1.3312836
1633,A,694788071281859,-0.050369263,-5.1121216,-3.2058563,-0.4237976,-0.42311096,0.6392975
1633,A,694788091423461,2.1782684,-6.481491,-6.4877625,0.17269897,-2.9311829,-0.042922974
1633,A,694788111565063,0.88235474,-6.7842865,-3.2745361,1.152771,-1.8820038,-0.3955078
1633,A,694788131706664,-1.3355255,-7.352112,-2.4093628,0.026397705,-0.5136566,-0.9029541
1633,A,694788151848266,-2.1488953,-9.741013,-3.0229645,-0.6772003,1.4833679,-0.7279968
1633,A,694788171989867,-2.5363312,-12.498062,-2.576828,-0.99946594,3.179535,-0.12495422
1633,A,694788192131469,-3.2085114,-15.377411,-1.6920013,-1.4478455,3.1059875,0.043762207
1633,A,694788212273070,-3.8492126,-15.906036,-0.0663147,0.054244995,-2.6625671,0.80259705
1633,A,694788232414672,-4.5804443,-15.437408,1.0624237,0.048034668,-5.2272186,0.57147217
1633,A,694788252556274,-3.4887085,-14.344696,-1.5247803,-0.53115845,-2.2738953,0.20529175
1633,A,694788272697875,-0.45988464,-13.38382,-4.0524597,-0.8711548,-1.028595,-0.18449402
1633,A,694788292839477,0.5899658,-12.937805,-2.2740479,-0.7883301,-1.1710968,-0.47875977
1633,A,694788312981078,-0.3582306,-14.021713,-0.35995483,-0.7461853,-0.20588684,-0.6214142
1633,A,694788333122680,-0.55937195,-13.576721,-0.04045105,-0.57876587,0.6800842,-0.87249756
1633,A,694788353264281,0.71588135,-12.159103,-0.029052734,-0.06401062,0.2626648,-1.0949249
1633,A,694788373405883,1.5217133,-10.892746,-0.41351318,-0.38194275,0.97517395,-0.65257263
1633,A,694788393547484,0.9064636,-9.246643,-0.74290466,-0.056396484,-0.112701416,0.25421143
1633,A,694788413689086,0.009765625,-8.018265,-0.8591919,2.3425903,-1.5746307,0.70874023
1633,A,694788433830688,0.4294281,-7.612549,-0.5460205,3.023758,0.80314636,0.7440491
1633,A,694788453972289,1.6045685,-7.287903,-0.6418915,1.306427,4.7013397,0.3215332
1633,A,694788474113891,2.1654205,-6.9358215,-0.33073425,0.24557495,5.7882843,-0.85313416
1633,A,694788494255492,1.7229156,-6.3734436,0.4402771,0.9386444,2.228485,-0.3804779
1633,A,694788514397094,1.3794861,-6.123413,0.82092285,1.1060028,-0.9022217,0.021911621
1633,A,694788534538695,1.4544678,-6.1934204,1.5069733,-0.8562927,0.08778381,-0.6188965
1633,A,694788554680297,0.90631104,-6.2299805,2.1263733,-1.6343689,-1.4731598,-0.979599
1633,A,694788574821899,0.07296753,-6.433197,1.8413239,-1.6676178,-1.7515259,-0.09869385
1633,A,694788594963500,-0.86457825,-7.0546417,1.1270294,-0.9900665,0.7672272,0.641098
1633,A,694788615105102,-1.6432648,-7.516281,0.96907043,-0.038909912,-4.136902,0.42321777
1633,A,694788635246703,-1.9346619,-8.163879,0.9886322,-0.13407898,-4.6680756,0.7849579
1633,A,694788655388305,-2.501007,-9.31015,0.9582825,-1.1631775,-1.7045746,0.40112305
1633,A,694788675529906,-2.9844208,-10.99202,0.9238434,-0.9563751,0.5494995,-0.12547302
1633,A,694788695671508,-3.3267975,-12.63002,0.6170502,-0.31306458,1.4773102,-0.54422
1633,A,694788715813109,-3.660843,-13.884277,-0.16305542,0.20195007,1.8964691,-0.8782196
1633,A,694788735954711,-4.544739,-14.749359,-1.1275177,0.75964355,2.5857544,-0.6375885
1633,A,694788756096313,-5.6732635,-15.789886,-2.1941376,1.1591492,2.5721436,-0.4169159
1633,A,694788776237914,-5.432129,-16.937271,-3.087616,0.53616333,2.0469666,0.42456055
1633,A,694788796379516,-4.119568,-16.68544,-3.3796387,0.0065307617,-1.0428314,0.5901947
1633,A,694788816521117,-3.042099,-14.958817,-2.6004944,1.1941833,-1.7399292,0.7980499
1633,A,694788836662719,-2.4987793,-12.453171,-0.84654236,0.9902649,-0.6190338,-0.21105957
1633,A,694788856804320,-2.306305,-10.346527,0.16841125,0.059921265,3.9126282,-0.462677
1633,A,694788876945922,-2.1286469,-8.935608,-0.01272583,0.24887085,2.2196198,0.027526855
1633,A,694788897087524,-1.8595123,-7.884262,-0.014083862,-1.4468536,-0.8126526,-0.58833313
1633,A,694788917229125,-1.056961,-7.4078674,-0.29666138,-0.95539856,-0.30921936,-0.44099426
1633,A,694788937370727,0.86865234,-7.3297424,-0.5846405,0.0849762,-1.5042725,-0.36068726
1633,A,694788957512328,7.047119,-7.9262695,-2.0423431,-0.75112915,-0.32296753,0.25679016
1633,A,694788977653930,10.147705,-8.56752,-4.6566315,0.0957489,-2.747589,0.2650299
1633,A,694788997795531,7.416809,-7.2634583,-3.772934,-0.22988892,-3.2548523,0.5997772
1633,A,694789017937133,4.428314,-4.566864,-1.4273376,-0.6702881,-1.3793182,0.38757324
1633,A,694789038078734,2.879425,-3.1122742,-2.348343,-0.99494934,0.14930725,0.014282227
1633,A,694789058220336,1.1792297,-4.1055603,-3.409546,-0.2431488,0.21611023,-0.23170471
1633,A,694789078361938,-0.74946594,-6.5854034,-3.1129913,-0.68544006,-2.0654907,-0.4060974
1633,A,694789098503539,-0.91282654,-8.425873,-0.5319519,-0.30207825,-3.1537018,-0.47200012
1633,A,694789118645141,0.0065612793,-8.270126,-2.125946,1.5939941,1.9220123,-0.60998535
1633,A,694789138786742,0.21539307,-8.122604,-5.4696655,2.2201843,3.6770477,-0.7229004
1633,A,694789158928344,-1.5723877,-9.183624,-4.4252777,0.4887848,2.819748,0.25982666
1633,A,694789179069945,-1.9880066,-10.603119,-3.3510284,0.5882263,1.5765991,0.41049194
1633,A,694789199211547,-1.8824005,-12.714249,-2.8966675,0.36645508,0.7996063,0.64634705
1633,A,694789219353149,-4.3559265,-15.454208,-0.99368286,-0.40473938,1.1012878,-0.195755
1633,A,694789239494750,-6.5167694,-16.844193,0.89016724,-0.27211,0.42033386,-0.07997131
1633,A,694789259636352,-4.1962433,-15.374924,1.4115448,1.2120514,0.4194336,0.72328186
1633,A,694789279777953,-0.7512207,-13.724258,0.82203674,-0.7523804,-1.4072876,-0.29786682
1633,A,694789299919555,1.0290375,-13.763824,-2.3065338,-1.741806,-2.4289856,-0.7527313
1633,A,694789320061156,1.9581146,-13.752686,-2.4096527,-0.7420807,-0.6438904,-0.4021759
1633,A,694789340202758,0.8945465,-13.074326,-0.6753845,0.023071289,1.2585602,0.4819641
1633,A,694789360344359,0.40989685,-11.82605,0.43385315,-0.64024353,0.18379211,0.6074066
1633,A,694789380485961,-0.24363708,-10.685913,1.0813446,-0.48942566,-3.3416443,0.46322632
1633,A,694789400627563,-1.3626709,-9.624451,1.6566467,0.109191895,-3.2974243,0.3935089
1633,A,694789420769164,-2.0661926,-9.256973,2.150177,-0.20578003,-1.7453461,0.15740967
1633,A,694789440910766,-1.5498962,-8.937836,1.8953705,-0.62135315,-0.07098389,-0.25856018
1633,A,694789461052367,0.020874023,-8.220505,1.0048065,-0.2735901,0.7910156,-0.51031494
1633,A,694789481193969,2.6680908,-7.259613,-0.086746216,0.007949829,0.93955994,-0.68118286
1633,A,694789501335570,2.561432,-6.396164,-0.6646576,0.40498352,1.2997742,-0.8164215
1633,A,694789521477172,1.5498352,-5.5184174,-0.6912689,0.6787262,2.0118256,-0.4207306
1633,A,694789541618774,1.7328491,-4.702896,-0.22428894,0.46928406,2.8598785,0.23402405
1633,A,694789561760375,1.8962708,-4.8762817,0.05053711,0.51205444,1.3038788,0.6999512
1633,A,694789581901977,1.3059998,-4.8810577,0.3988037,0.22325134,0.39794922,1.0933685
1633,A,694789602043578,0.5511627,-5.651642,0.819046,0.24305725,0.3111267,1.0362854
1633,A,694789622185180,-0.213974,-6.3330536,1.154541,0.18719482,-1.6803436,0.026062012
1633,A,694789642326781,-0.9496155,-7.620392,0.85905457,0.5907898,-2.0505066,-0.4346161
1633,A,694789662468383,-1.8069916,-9.668457,0.64224243,0.46383667,-0.021942139,-0.43669128
1633,A,694789682609984,-2.137558,-12.185654,0.61047363,-0.13493347,1.1798401,-0.4606018
1633,A,694789702751586,-2.3510742,-13.886353,0.5281067,-1.3095093,3.756134,-0.47514343
1633,A,694789722893188,-3.3991394,-14.736649,0.47479248,-0.74534607,4.8626404,0.47042847
1633,A,694789743034789,-4.4869995,-15.749054,0.5129547,-0.4616089,-0.45411682,0.7835846
1633,A,694789763176391,-4.8639984,-17.952408,0.021621704,-0.57603455,-4.8084717,0.566864
1633,A,694789783317992,-4.727173,-18.777771,-0.5315857,-0.34069824,-3.7491608,0.2246399
1633,A,694789803459594,-4.542618,-16.571518,-0.41151428,-0.7807312,-1.0812073,0.05430603
1633,A,694789823601195,-4.167679,-14.113129,-1.0543365,-0.88674927,0.0060577393,-0.08834839
1633,A,694789843742797,-3.1541138,-11.19165,-1.4268036,-0.1342926,-0.16114807,-0.47888184
1633,A,694789863884399,-2.5206757,-8.796143,-1.2064362,0.4290924,0.7367096,-0.6556549
1633,A,694789884026000,-2.4234009,-6.9833984,-1.3589783,0.32551575,1.3240356,-0.7381592
1633,A,694789904167602,-1.9203186,-6.577408,-1.6524353,0.61946106,1.6298828,-0.63920593
1633,A,694789924309203,-0.68362427,-7.3898926,-1.968399,0.7470093,1.2748718,-0.22784424
1633,A,694789944450805,0.832016,-7.5663147,-2.1704865,0.32658386,0.102371216,0.15179443
1633,A,694789964592406,9.304153,-9.4339905,-5.0538483,0.32565308,-0.43119812,0.4965515
1633,A,694789984734008,7.762924,-8.606674,-2.192749,0.45243835,0.03778076,1.0943756
1633,A,694790004875609,4.689804,-6.0012817,-0.7502899,-0.44366455,0.37797546,1.170517
1633,A,694790025017211,3.7866516,-4.6676636,-0.809021,-0.582489,-2.2444305,-0.12535095
1633,A,694790045158813,1.9836426,-5.5429688,1.9129028,0.91166687,-4.3640594,-0.35687256
1633,A,694790065300414,-1.7977905,-4.904663,-0.04550171,0.68888855,-0.97810364,-0.5925293
1633,A,694790085442016,1.662384,-4.7574463,-3.573227,-0.438797,1.7546234,-0.7245636
1633,A,694790105583617,1.2981415,-6.1378326,-3.134079,-0.9683838,4.040161,-0.39245605
1633,A,694790125725219,1.1236267,-6.9542694,-3.3090057,-0.5595856,5.54245,0.16061401
1633,A,694790145866820,0.4212799,-7.9079742,-2.4638214,-0.7016144,1.8156738,0.54577637
1633,A,694790166008422,-0.45391846,-9.806808,-2.6438599,0.61398315,-4.2686768,0.56362915
1633,A,694790186150024,-1.4285889,-12.5377655,-2.5728302,-0.36186218,-5.0177307,0.3934784
1633,A,694790206291625,-4.582596,-17.445251,-2.5038452,-1.3896332,-3.1385498,-0.0796814
1633,A,694790226433227,-5.5881653,-17.025589,0.48365784,-0.89619446,-0.6701355,0.10592651
1633,A,694790246574828,-3.7799835,-14.379715,2.1950378,-0.6273804,0.83154297,-0.5709381
1633,A,694790266716430,-1.7843018,-12.763092,-0.17196655,-0.29016113,1.5167542,-0.8579712
1633,A,694790286858031,-0.7083435,-12.468246,-3.0468597,0.050613403,0.7758179,-0.9322052
1633,A,694790306999633,-0.68003845,-13.802994,-5.3611145,0.39360046,0.17016602,-0.7056427
1633,A,694790327141234,-1.5877838,-14.659576,-2.9644012,0.08354187,2.4258728,-0.21339417
1633,A,694790347282836,-1.269043,-13.663345,-1.4351349,0.38586426,3.8878174,1.0528259
1633,A,694790367424438,-0.6856842,-11.236313,-0.33399963,0.7151947,2.8721466,1.2282867
1633,A,694790387566039,-0.9285431,-9.1091,-0.02861023,0.404953,1.1630096,1.4810791
1633,A,694790407707641,-1.2944641,-8.216263,0.94699097,-0.14556885,-0.41786194,1.2081146
1633,A,694790427849242,-0.948822,-8.074799,1.3318939,-0.047805786,-4.7095184,-0.97302246
1633,A,694790447990844,0.42485046,-7.87619,0.098220825,0.85017395,-4.254181,-0.62953186
1633,A,694790468132445,2.1129456,-7.3545685,-1.2633667,0.81877136,0.9349823,-0.373703
1633,A,694790488274047,3.195984,-6.444763,-1.1318512,-0.40797424,2.3227844,-0.66278076
1633,A,694790508415649,2.6262054,-5.650696,-0.50234985,-1.1844177,4.0541687,0.2910614
1633,A,694790528557250,2.2707062,-5.5558167,0.17131042,-0.38684082,3.9337158,0.5801697
1633,A,694790548698852,1.6391754,-5.9651184,0.6515503,-0.56073,-1.5843201,0.57733154
1633,A,694790568840453,0.7848053,-6.3798065,1.5281067,-0.17080688,-5.49411,0.502655
1633,A,694790588982055,-0.4190216,-6.332443,2.3150635,-0.9733429,-4.9129333,-0.35740662
1633,A,694790609123656,-0.28189087,-6.3976593,2.097046,-1.1791382,-2.9724274,0.005142212
1633,A,694790629265258,-0.858963,-7.2937927,1.5761566,-1.0226135,0.04269409,-0.14331055
1633,A,694790649406859,-1.5644379,-8.742264,0.7508545,-1.2484589,1.28302,-0.55426025
1633,A,694790669548461,-1.8325195,-10.671539,-0.43592834,-0.7367554,1.7106628,-0.5495453
1633,A,694790689690063,-1.9917297,-13.041733,-1.086441,0.304245,1.1938019,-0.5779877
1633,A,694790709831664,-2.9882813,-15.265976,-0.20854187,0.7311249,0.30651855,-0.22102356
1633,A,694790729973266,-3.8385925,-16.163208,-0.9010773,0.93844604,0.21395874,0.6829071
1633,A,694790750114867,-4.7404633,-16.217316,-2.240738,0.8752594,0.47354126,0.8683777
1633,A,694790770256469,-4.6700134,-16.391861,-2.6842194,0.48320007,1.3673401,1.3451385
1633,A,694790790398070,-3.4865723,-16.698349,-2.9105835,0.078933716,2.1982574,1.0992126
1633,A,694790810539672,-2.387497,-15.552414,-2.331665,0.3869629,-2.9467468,-1.9029694
1633,A,694790830681274,-1.5012054,-12.376175,-0.82588196,2.1182861,-3.479248,-0.75331116
1633,A,694790850822875,-0.966629,-9.501038,0.35079956,1.7727661,2.1407776,-0.12611389
1633,A,694790870964477,-0.871521,-7.833313,0.87953186,0.7273712,1.6627502,0.3988037
1633,A,694790891106078,-0.3513794,-7.2826843,0.9663696,-0.40452576,1.7781067,0.32861328
1633,A,694790911247680,1.7944946,-7.67099,0.14253235,-1.3773041,0.35845947,-0.013809204
1633,A,694790931389281,3.5192719,-8.055618,-1.8441925,-1.2788086,-0.04486084,-0.27511597
1633,A,694790951530883,4.986679,-8.021942,-3.5812988,-1.3381653,0.20584106,-0.5856476
1633,A,694790971672484,5.185074,-7.3996277,-3.3175201,-1.0987396,-3.8052216,-0.01763916
1633,A,694790991814086,2.852066,-5.7031403,-1.6114807,-1.2333221,-2.6319427,0.24746704
1633,A,694791011955688,0.14259338,-5.96579,-0.50375366,-1.248764,0.10067749,-0.072021484
1633,A,694791032097289,-2.0059662,-7.266449,-0.2629547,-1.2733307,-0.99313354,-0.31263733
1633,A,694791052238891,-1.9712982,-6.485504,-1.2528229,-1.3654175,-3.2960815,-0.16386414
1633,A,694791072380492,-0.54974365,-5.698944,-3.4736786,-0.6616211,-1.4737854,-0.65579224
1633,A,694791092522094,0.109451294,-5.2078094,-3.916977,0.6813202,1.3086395,-0.65252686
1633,A,694791112663695,0.18661499,-5.948227,-3.0766144,2.0574493,3.3572998,-0.5643463
1633,A,694791132805297,0.16534424,-8.457626,-3.3986359,1.8219452,4.6489563,0.36654663
1633,A,694791152946899,-1.5923309,-12.5408325,-3.163971,0.82865906,3.469635,0.87461853
1633,A,694791173088500,-2.7362823,-14.9077,-1.4299927,0.85723877,2.2146301,1.4861908
1633,A,694791193230102,-3.1781006,-15.284119,1.5836792,0.28300476,0.29751587,-0.4120636
1633,A,694791213371703,-4.1316376,-14.071808,2.9974365,0.27770996,-0.41238403,-0.6872406
1633,A,694791233513305,-3.5134125,-12.518631,1.613266,1.033493,4.5221252,0.92910767
1633,A,694791253654906,-2.7926483,-12.747269,-1.1669312,1.394516,-0.26037598,0.91555786
1633,A,694791273796508,-2.696106,-12.471085,-3.2668152,-0.66241455,-0.19682312,-0.6789398
1633,A,694791293938109,-2.6669312,-12.0728,-2.2755432,-2.1315002,-0.18847656,-1.2446747
1633,A,694791314079711,-2.8410034,-12.196716,-1.553482,-1.1700134,-0.91548157,-0.45776367
1633,A,694791334221313,-2.3711853,-11.698441,-1.9405823,-0.33433533,-1.2020416,0.4275055
1633,A,694791354362914,-0.93743896,-10.813583,-1.604187,-0.3286438,-5.8237,0.3399353
1633,A,694791374504516,0.7225952,-9.933121,-1.2813416,-1.1444092,-4.487076,0.35069275
1633,A,694791394646117,1.1764832,-9.455887,-1.3148346,-0.8281708,-1.9200897,-0.03741455
1633,A,694791414787719,1.5236816,-9.107788,-0.69169617,-0.84332275,-0.7411194,-0.26315308
1633,A,694791434929320,1.219696,-8.969711,0.1592102,-0.7948761,0.68833923,-0.58651733
1633,A,694791455070922,1.310669,-8.612259,0.58766174,-0.8182678,0.11051941,-0.73220825
1633,A,694791475212524,1.4472656,-7.639328,0.90164185,0.3067932,-0.8130646,-0.7028198
1633,A,694791495354125,1.1427765,-6.9091187,1.1116638,1.3823853,1.0368347,-0.50257874
1633,A,694791515495727,1.1934662,-6.6299744,1.1937256,1.5047455,3.1634827,0.055908203
1633,A,694791535637328,0.75912476,-6.341156,1.1990814,0.9903717,3.8123627,0.73587036
1633,A,694791555778930,0.78689575,-5.9531097,0.9049225,0.61253357,2.4828796,1.3052216
1633,A,694791575920531,0.9197235,-5.624298,0.29644775,0.29335022,1.6683502,1.4092102
1633,A,694791596062133,0.31411743,-5.9301147,-0.18078613,-0.31095886,-1.32341,-0.58348083
1633,A,694791616203734,-0.45996094,-7.486801,-0.52838135,0.4734192,0.2210083,0.008361816
1633,A,694791636345336,-1.5110321,-9.321564,-0.76771545,1.6309052,1.3290405,0.49690247
1633,A,694791656486938,-1.8970337,-10.767517,-0.8984375,0.007598877,-1.4808655,-0.28915405
1633,A,694791676628539,-2.8921356,-12.080475,-0.38339233,-1.830368,0.42230225,-0.76322937
1633,A,694791696770141,-4.3875275,-13.349976,-0.030090332,-0.6652527,1.0905304,-0.5410919
1633,A,694791716911742,-4.4355774,-13.86438,-0.010726929,-0.37275696,1.1071777,0.30796814
1633,A,694791737053344,-4.7476044,-14.430176,-0.13621521,-0.73617554,-2.8818512,0.14660645
1633,A,694791757194945,-5.902252,-16.486313,0.0740509,-0.4908905,-3.9417572,0.38356018
1633,A,694791777336547,-6.29393,-17.783615,0.41671753,-0.469635,-1.5596619,0.28814697
1633,A,694791797478149,-5.976471,-16.46051,1.1336365,-0.42378235,-1.5470276,0.024230957
1633,A,694791817619750,-5.115631,-13.8832245,0.63246155,-0.50509644,-1.5421753,-0.40664673
1633,A,694791837761352,-4.0647736,-10.746384,-0.55000305,-0.50523376,0.26745605,-0.6507721
1633,A,694791857902953,-3.8072357,-8.386459,-1.8478088,-0.47612,1.0082703,-0.79307556
1633,A,694791878044555,-3.5135956,-7.3611298,-2.8117523,0.37895203,0.6273804,-0.67074585
1633,A,694791898186156,-2.6093597,-6.6268005,-2.5109253,1.593277,0.92381287,-0.26524353
1633,A,694791918327758,-1.0214233,-7.0790253,-2.195282,1.6938782,1.280304,0.29748535
1633,A,694791938469359,0.5371704,-7.5966797,-1.2772369,0.33789063,0.99235535,0.3814392
1633,A,694791958610961,3.2162323,-8.222244,-1.5921783,0.28063965,0.8687897,1.1155701
1633,A,694791978752563,7.136856,-9.688782,-2.9569702,0.0017852783,1.7119141,1.3671722
1633,A,694791998894164,8.228455,-9.476959,-1.6209259,-0.7790375,0.57170105,-0.13400269
1633,A,694792019035766,7.673065,-5.9029083,-1.3354645,0.3869171,-2.491333,0.29632568
1633,A,694792039177367,4.4658813,-4.615738,1.4785156,0.79763794,-1.8713074,-0.61460876
1633,A,694792059318969,2.9812775,-3.353775,6.0383453,-0.25531006,-0.1454773,-0.77027893
1633,A,694792079460570,-0.49728394,-6.2538605,-3.7148743,-1.00177,1.7889862,-0.44010925
1633,A,694792099602172,2.2718964,-6.2803497,-5.3871613,-1.2071228,3.3513947,-0.09640503
1633,A,694792119743774,-0.4947052,-7.8466187,-3.112915,-0.5033417,1.3127899,0.18833923
1633,A,694792139885375,-1.5432434,-8.288162,-0.23257446,0.044540405,-3.226654,0.4693756
1633,A,694792160026977,-1.4809418,-9.792313,-0.79748535,-0.7631378,-3.2101288,0.40660095
1633,A,694792180168578,-4.7089233,-13.741608,-1.014679,-0.87564087,-2.390854,0.1031189
1633,A,694792200310180,-7.8898926,-15.952835,0.081604004,-0.4596405,-2.3430786,0.011642456
1633,A,694792220451781,-10.841141,-14.980286,0.016403198,-0.4805603,-0.782074,-0.34301758
1633,A,694792240593383,-7.800354,-8.465393,-0.48924255,-0.30856323,1.5826874,-0.65252686
1633,A,694792260734984,-4.9151154,-10.836044,2.4593048,0.09899902,2.4577026,-0.774353
1633,A,694792280876586,-3.0976257,-14.640579,-4.4846954,0.6240845,1.8550262,-0.80918884
1633,A,694792301018188,-3.0861359,-15.64682,-4.077011,0.7892914,1.2286682,-0.70565796
1633,A,694792321159789,-2.582077,-14.237549,-2.617157,0.7963257,0.54130554,-0.18305969
1633,A,694792341301391,-0.4360962,-12.34082,-1.332901,0.8463135,0.4500885,0.45550537
1633,A,694792361442992,-0.08834839,-10.759354,0.5769806,1.0122986,-0.30392456,1.0658569
1633,A,694792381584594,0.5819855,-9.570038,0.33377075,0.15319824,-0.59643555,1.5287628
1633,A,694792401726195,0.92204285,-9.223572,-0.44789124,-0.11340332,0.2424469,1.0836182
1633,A,694792421867797,1.5433044,-8.918518,-1.1039124,0.48258972,1.889267,0.79081726
1633,A,694792442009399,3.2243958,-8.228134,-1.7180939,0.497406,-0.594635,-0.09288025
1633,A,694792462151000,4.3204346,-7.264572,-2.0847168,-0.70980835,-2.0127716,-0.8712158
1633,A,694792482292602,3.0502472,-6.317337,-1.3070679,-0.8917694,1.0748596,-1.1126404
1633,A,694792502434203,1.406723,-5.798889,0.46661377,-0.65589905,3.530426,-0.43380737
1633,A,694792522575805,0.17985535,-5.257477,2.2091675,-0.89105225,2.8834076,0.497818
1633,A,694792542717406,-0.6381378,-4.8723755,2.1492462,-0.16557312,-2.4341888,0.21740723
1633,A,694792562859008,-1.1655121,-5.5173798,1.5910339,-0.5326233,-4.777115,0.42396545
1633,A,694792583000609,-0.15220642,-6.330765,1.0835724,-0.8462677,-3.002777,0.1842804
1633,A,694792603142211,-0.4424591,-7.559784,0.5952301,-0.47045898,-2.2979736,0.26408386
1633,A,694792623283813,-1.5999908,-9.288025,-1.1282196,-0.81796265,-1.7058868,-0.3461609
1633,A,694792643425414,-2.16185,-10.745773,-2.6085968,-0.6637573,-0.27578735,-0.7322693
1633,A,694792663567016,-2.8199005,-12.2990265,-2.0197754,0.21913147,1.3643799,-1.2995911
1633,A,694792683708617,-2.8691864,-13.340179,-0.58406067,-0.24066162,1.6634827,-1.4774933
1633,A,694792703850219,-2.9324799,-13.7487335,-0.6199951,-0.2866516,2.5589447,-0.7926178
1633,A,694792723991820,-2.944107,-13.816528,-1.880188,1.3121033,1.8639069,-0.2679901
1633,A,694792744133422,-2.974121,-14.471313,-2.8747864,0.8197479,0.83314514,0.53134155
1633,A,694792764275024,-3.8825226,-15.756912,-2.9165802,0.8364868,-1.6268616,1.0809784
1633,A,694792784416625,-5.4518585,-16.310913,-1.6307373,1.0813904,-1.9933472,1.7192688
1633,A,694792804558227,-5.231262,-14.580109,-0.27363586,0.5026245,4.4970245,1.2998962
1633,A,694792824699828,-4.6604156,-11.642715,0.66204834,0.35661316,5.04718,0.5398865
1633,A,694792844841430,-4.278824,-9.318802,0.65086365,0.85461426,-2.1426086,-0.8802948
1633,A,694792864983031,-3.438095,-8.183105,-0.3937378,-0.32991028,-3.3632965,-0.9044037
1633,A,694792885124633,-2.7960052,-8.134323,-1.3558807,-1.4513855,2.8762054,-0.8918915
1633,A,694792905266234,-1.6210938,-8.699463,-2.039734,-0.67529297,0.10949707,-0.8284302
1633,A,694792925407836,1.2783661,-9.155914,-2.559616,-1.6799164,0.5385132,-0.22563171
1633,A,694792945549438,5.3581543,-9.488907,-3.6541443,-0.27713013,-3.4563293,0.09378052
1633,A,694792965691039,7.6277313,-9.19548,-2.8421173,0.8786926,-5.2022705,0.77456665
1633,A,694792985832641,8.186829,-7.1981506,-0.5270386,-0.27246094,-1.5574646,0.6202698
1633,A,694793005974242,8.000565,-4.444977,0.51213074,-1.4228363,-0.2605133,0.23452759
1633,A,694793026115844,4.091049,-4.1570435,4.6519775,-1.0247192,-1.4934387,-0.37449646
1633,A,694793046257445,-0.053634644,-5.4627533,2.1656494,-1.0541534,-2.3147888,-0.9025421
1633,A,694793066399047,1.5217285,-6.2353973,-5.0030823,-1.0654755,0.402771,-0.5967102
1633,A,694793086540649,3.144699,-5.8462677,-4.025543,0.23153687,3.4232635,-0.45898438
1633,A,694793106682250,1.7351685,-5.5133057,-1.5489655,1.4769897,4.372711,-0.43034363
1633,A,694793126823852,0.74731445,-6.168518,-1.5226746,0.94073486,3.7497864,0.13438416
1633,A,694793146965453,-0.772583,-8.820129,-3.4282227,1.1528625,0.72094727,0.747345
1633,A,694793167107055,-6.739914,-15.310165,-4.0487976,1.7414551,-1.8627014,0.85672
1633,A,694793187248656,-10.923294,-19.386353,-3.8072357,1.3286285,-2.1642761,1.0870056
1633,A,694793207390258,-8.578049,-15.835495,-3.303421,0.3532257,0.3186798,1.0380859
1633,A,694793227531859,-2.573944,-9.973816,-0.61865234,-1.0197906,6.4319153,-0.23770142
1633,A,694793247673461,3.2571716,-9.527573,1.7971802,0.38078308,2.8179169,-0.33976746
1633,A,694793267815063,3.8643494,-14.060867,-0.61576843,0.98657227,-1.5379486,-0.15667725
1633,A,694793287956664,1.6626434,-16.202652,-4.470276,-1.1738892,1.0754242,-0.7166748
1633,A,694793308098266,1.0280457,-14.171738,-4.36322,-1.0089722,-0.41812134,-0.6317291
1633,A,694793328239867,1.6228027,-11.692749,-1.3057709,-1.0510559,-1.3812714,0.11361694
1633,A,694793348381469,-0.22219849,-10.141937,-0.026992798,-0.65509033,-2.1867523,0.44859314
1633,A,694793368523070,-0.89634705,-9.137146,-0.7160034,-0.27342224,-3.3462524,0.50961304
1633,A,694793388664672,0.37457275,-8.870895,-1.1497498,-0.7683563,-2.4846497,0.5427704
1633,A,694793408806274,2.030777,-8.993515,-1.9724731,-0.95410156,-1.2719116,0.0904541
1633,A,694793428947875,2.9518585,-8.530441,-2.1274261,-0.8470764,-1.2881775,-0.34849548
1633,A,694793449089477,2.5074005,-7.2738953,-0.2597351,-0.3471985,0.11503601,-0.7414856
1633,A,694793469231078,2.1298065,-6.5703125,0.59552,-0.07110596,2.4161987,-1.0487518
1633,A,694793489372680,1.2011871,-6.472473,1.3976288,0.8110199,3.080597,-0.9200287
1633,A,694793509514281,0.42462158,-5.8312836,1.5983582,1.3014679,3.1108093,-0.54319763
1633,A,694793529655883,-0.96276855,-5.9397736,1.7459564,0.53530884,3.200882,0.58836365
1633,A,694793549797484,-2.057434,-6.076721,1.7688751,0.39631653,1.2146301,1.2615967
1633,A,694793569939086,-2.0695038,-5.93927,1.2319489,0.7449188,-1.5419464,1.431839
1633,A,694793590080688,-1.8815155,-6.18277,0.18629456,0.385849,-1.6091766,1.747879
1633,A,694793610222289,-2.3201752,-7.62027,-0.25624084,0.29734802,1.4364014,1.1592865
1633,A,694793630363891,-2.918457,-9.777374,-0.42973328,0.440979,1.3385925,-0.0973053
1633,A,694793650505492,-2.9260712,-11.879913,-0.8709259,0.33709717,-3.0359192,-0.52485657
1633,A,694793670647094,-2.7778625,-13.658966,-1.2444,-0.88391113,-1.5658417,-1.0306396
1633,A,694793690788695,-3.305893,-14.062225,-1.5188141,-1.9049683,1.7445068,-1.1232147
1633,A,694793710930297,-4.1448975,-14.375092,-1.813324,-0.53308105,1.3391724,-0.51849365
1633,A,694793731071899,-3.5385132,-16.093826,-2.2636566,-0.40724182,0.62661743,0.5696411
1633,A,694793751213500,-3.1573334,-18.26213,-2.3921509,-0.18713379,-4.595749,0.5787201
1633,A,694793771355102,-3.1132965,-17.406128,-1.1304779,-0.96469116,-4.6399384,0.47787476
1633,A,694793791496703,-3.3589478,-13.539001,0.72662354,-0.8135376,-2.3974915,0.15260315
1633,A,694793811638305,-3.497757,-10.53801,0.69992065,-0.73350525,-0.99490356,-0.11705017
1633,A,694793831779906,-3.039383,-9.060104,0.59465027,-0.5509033,-0.116378784,-0.5680542
1633,A,694793851921508,-2.7333374,-8.019653,0.22903442,-0.491333,1.6358185,-0.8651886
1633,A,694793872063109,-1.1046143,-7.712433,-0.61987305,-0.089920044,2.3289337,-0.7588806
1633,A,694793892204711,0.5532532,-7.8139954,-1.4318848,1.2016296,2.70813,-0.38098145
1633,A,694793912346313,2.3225708,-8.002472,-2.280655,1.1050262,3.0471954,0.46723938
1633,A,694793932487914,11.289337,-9.984222,-5.735153,0.54722595,1.2154541,1.0408478
1633,A,694793952629516,7.6259155,-6.869385,-2.3439178,1.0231476,-1.4216919,1.2059631
1633,A,694793972771117,3.2735748,-5.425415,1.1578217,1.4358673,-1.6121979,1.4099884
1633,A,694793992912719,2.84523,-1.9065399,1.2750244,0.7256317,0.50250244,0.7420349
1633,A,694794013054320,0.8978729,-3.3425446,-1.6035004,0.26460266,4.358902,-0.47724915
1633,A,694794033195922,0.5436096,-5.7738647,-2.9072113,0.91500854,0.93885803,-0.03253174
1633,A,694794053337524,1.1023407,-6.454178,-4.1285095,-1.0572815,1.0193939,-1.38414
1633,A,694794073479125,2.0088806,-7.284195,-3.9021301,-1.9445801,1.9333038,-1.2491608
1633,A,694794093620727,-0.56889343,-8.566071,-4.6971436,-0.39167786,-0.33218384,-0.5598297
1633,A,694794113762328,-2.4931183,-10.607346,-3.484085,-1.128952,-1.9525604,0.18284607
1633,A,694794133903930,-3.9523926,-12.427582,-1.3282928,0.48820496,-5.05249,0.676239
1633,A,694794154045531,-5.796631,-16.665207,-0.65171814,-0.03883362,-4.175705,0.5822449
1633,A,694794174187133,-6.782303,-16.49144,-1.0681,-0.96798706,-2.4242096,0.40577698
1633,A,694794194328734,-5.547806,-13.0979,-1.1483612,-0.61447144,-1.4860077,-0.09365845
1633,A,694794214470336,-2.3374481,-11.688736,-2.271347,-0.8023224,-1.1244354,-0.55348206
1633,A,694794234611938,2.1291962,-12.989334,-2.9351196,-1.3484497,-1.5004425,-1.0151978
1633,A,694794254753539,3.488556,-15.293884,-2.8525696,-0.7488861,-0.7733154,-1.049057
1633,A,694794274895141,1.4848175,-13.186981,-1.9128113,0.463562,1.7160034,-0.90208435
1633,A,694794295036742,0.26713562,-11.619537,-0.050567627,1.4430695,3.8584137,-0.7633667
1633,A,694794315178344,0.21296692,-11.38327,0.109436035,0.4807434,4.1532135,0.050079346
1633,A,694794335319945,1.3073578,-10.271286,-0.13981628,1.0414734,1.729248,0.85243225
1633,A,694794355461547,1.900116,-9.452255,0.21650696,0.92030334,0.20359802,1.4718018
1633,A,694794375603149,2.4371185,-8.806168,-0.07611084,0.049301147,0.7638855,1.5213165
1633,A,694794395744750,2.670517,-8.466019,-0.002532959,-0.19708252,0.3279419,-0.19116211
1633,A,694794415886352,1.8303528,-7.3936462,1.1987762,0.41300964,-0.38937378,-0.30168152
1633,A,694794436026381,0.970047,-6.232254,2.5094147,0.8739624,0.3549652,-0.3428955
1633,A,694794456167983,0.7945099,-5.847275,2.9364777,-0.38757324,0.35920715,-0.9131012
1633,A,694794476309584,1.3759003,-6.289917,2.2028809,-1.6406555,2.4838867,-0.80885315
1633,A,694794496451186,-2.3824158,-6.2295685,-0.8941498,-0.37623596,1.2872314,-0.32514954
1633,A,694794516592787,-3.0033417,-6.454605,-1.3989868,-0.98942566,0.9378357,0.6374817
1633,A,694794536734389,-3.0349731,-6.3349304,1.4857025,0.10072327,-4.3802032,0.6408844
1633,A,694794556875991,-2.531189,-5.952759,1.6634369,-0.062942505,-5.111389,0.571579
1633,A,694794577017592,-2.8945465,-6.8567963,1.1322021,-0.9179535,-1.7680817,0.27211
1633,A,694794597159194,-1.6903687,-8.234695,0.4219513,-0.5595703,-0.6128082,-0.19064331
1633,A,694794617300795,-0.95344543,-10.625168,0.33670044,-0.537735,-0.32458496,-0.4794159
1633,A,694794637442397,-1.6681519,-13.625992,-0.009765625,-0.56399536,0.92004395,-0.98703
1633,A,694794657583998,-3.0411224,-15.701508,-0.35806274,0.033843994,1.9406433,-1.0357208
1633,A,694794677725600,-4.4822235,-17.051346,-1.0287476,1.2053833,2.4890747,-0.8496094
1633,A,694794697867202,-4.253006,-18.300735,-1.0710907,0.9565277,3.0268402,-0.6343689
1633,A,694794718008803,-3.5720978,-18.356613,-1.5672455,0.64845276,2.0766907,0.60491943
1633,A,694794738150405,-3.2706146,-16.974167,-1.6821136,0.46443176,-1.1187286,1.2295227
1633,A,694794758292006,-2.6568604,-14.437302,-1.1446533,0.52163696,-2.4155884,1.6878204
1633,A,694794778433608,-2.0794067,-11.771072,-0.19636536,0.12644958,-0.68785095,1.9501953
1633,A,694794798575209,-1.2701416,-9.741409,-0.076934814,-0.049560547,1.2036438,0.71572876
1633,A,694794818716811,-0.03765869,-7.877304,-0.33685303,0.74894714,-0.40924072,-0.030395508
1633,A,694794838858412,1.2938995,-6.6851654,-0.8620758,0.37384033,-1.9798584,-0.6440277
1633,A,694794859000014,6.3352356,-6.81781,-2.9811096,-0.51272583,0.44378662,-0.8841553
1633,A,694794879141616,13.008652,-7.9374237,-6.736206,-0.7852173,3.1616669,-0.41496277
1633,A,694794899283217,8.230026,-7.759552,-4.927597,-0.7336273,4.8247375,0.29710388
1633,A,694794919424819,3.513733,-3.7327576,-0.7258301,-0.44024658,1.437088,0.029846191
1633,A,694794939566420,2.6988525,-0.7728882,-0.24131775,-0.5181732,-6.310074,0.3343048
1633,A,694794959708022,-0.99935913,-4.369232,1.386383,-1.0655518,-4.9389496,0.094573975
1633,A,694794979849623,-1.8461609,-7.0946655,2.769394,-0.8636017,-2.0933685,0.014160156
1633,A,694794999991225,0.7575989,-6.9653473,-3.309616,-0.40621948,-1.5394287,-0.26560974
1633,A,694795020132827,0.62677,-6.938904,-7.895401,-0.35884094,-0.61557007,-0.57933044
1633,A,694795040274428,-2.4214935,-8.018799,-5.5458527,-0.43171692,1.5397339,-0.9481354
1633,A,694795060416030,-4.6997375,-9.121918,-4.473938,0.044647217,2.6364899,-1.111969
1633,A,694795080557631,-1.5535431,-8.968109,-5.3869934,0.15510559,1.947525,-0.7420807
1633,A,694795100699233,2.406601,-9.220444,-4.8466034,0.55426025,1.4872589,-0.010848999
1633,A,694795120840834,3.127533,-11.450317,-3.3991547,1.341156,-0.5757904,0.6361084
1633,A,694795140982436,-0.32484436,-15.555115,-2.250229,1.9464417,-1.3737793,0.9301605
1633,A,694795161124037,-3.2431183,-17.601212,-1.6988525,0.72865295,1.4438324,1.1476135
1633,A,694795181265639,-2.4894104,-16.29985,-0.015106201,-0.31269836,3.0351563,1.2207336
1633,A,694795201407241,1.776947,-14.844666,0.030151367,-0.48435974,1.1974945,0.39595032
1633,A,694795221548842,5.2246246,-15.057419,-1.3863525,-0.01335144,-3.5514832,-0.5783081
1633,A,694795241690444,3.489853,-13.903854,-1.5210419,-1.2904205,-3.0819092,-0.97961426
1633,A,694795261832045,1.383667,-11.343948,-1.6578064,-1.5401764,1.0732422,-0.66400146
1633,A,694795281973647,1.8160858,-10.182388,-1.1758575,-1.074707,2.5619507,-0.5104523
1633,A,694795302115248,1.3068848,-10.176712,-0.74194336,-0.27217102,2.7436066,0.30239868
1633,A,694795322256850,-0.7032623,-9.830795,-0.66030884,-0.1552887,-0.34805298,0.46424866
1633,A,694795342398452,-1.8070221,-9.357361,-0.7247925,0.08325195,-3.5871582,0.53967285
1633,A,694795362540053,-1.1152344,-8.6562805,-0.45063782,0.24111938,-3.2345734,0.24978638
1633,A,694795382681655,0.60614014,-7.614441,-0.5975952,-0.09339905,-1.9363556,0.04095459
1633,A,694795402823256,2.37648,-6.5352936,-0.08973694,-0.31829834,-1.1205902,-0.18083191
1633,A,694795422964858,3.3902435,-5.8966827,0.05671692,-0.04574585,0.21177673,-0.88516235
1633,A,694795443106459,2.876175,-5.8882904,-0.3494873,-0.085510254,1.658081,-1.0749664
1633,A,694795463248061,1.8888397,-6.570694,-0.17623901,0.09710693,2.3325653,-0.85084534
1633,A,694795483389662,2.475769,-6.6651154,0.55270386,0.36776733,2.2523499,-0.5913391
1633,A,694795503531264,3.4380188,-6.1219482,0.8482208,0.24320984,1.9402924,0.1525116
1633,A,694795523672866,1.4458618,-6.262207,1.0564575,-0.109817505,0.1570282,0.74757385
1633,A,694795543814467,-0.7884369,-6.9606323,1.0843353,0.66741943,0.06147766,1.3867645
1633,A,694795563956069,-0.7176361,-7.8941803,1.2630768,-0.014587402,-1.1626129,1.485733
1633,A,694795584097670,-0.9370575,-9.520889,1.0479126,-0.92996216,-1.6205902,0.22264099
1633,A,694795604239272,-1.1481018,-11.640015,-0.1481781,0.2748413,-3.4691772,-0.708313
1633,A,694795624380873,-1.9895782,-13.84671,-1.1328888,1.0764465,0.5266266,-0.8174896
1633,A,694795644522475,-2.5462036,-15.142212,-1.1322479,-0.07710266,0.9219208,-0.9297638
1633,A,694795664664077,-3.2780151,-16.337387,-0.9348602,-1.3036041,4.147461,0.36065674
1633,A,694795684805678,-3.3664703,-16.060455,-1.684082,-0.9411316,2.6979523,-0.36276245
1633,A,694795704947280,-3.2022247,-16.496124,-1.8937225,-0.7485199,1.2541962,0.4202118
1633,A,694795725088881,-2.810791,-16.084488,-1.3384247,0.2389679,-3.490036,0.8860016
1633,A,694795745230483,-2.4469604,-13.287796,-1.2412567,0.037216187,-4.4834595,0.567276
1633,A,694795765372084,-2.1052246,-10.29567,-1.3681183,-1.2615967,-1.0731812,0.38989258
1633,A,694795785513686,-1.659378,-8.327621,-1.1651917,-0.919754,-0.2244873,-0.020599365
1633,A,694795805655287,-0.29589844,-7.381668,-0.9403839,-0.42173767,-0.08389282,-0.4922943
1633,A,694795825796889,0.2752838,-7.5164948,-0.28344727,-0.2556305,1.3872833,-0.7208557
1633,A,694795845938491,1.5483551,-8.132095,-0.21989441,0.3076477,2.443512,-0.8607788
1633,A,694795866080092,11.070114,-9.127243,-2.3903198,0.58421326,2.6806335,-0.7706604
1633,A,694795886221694,11.245026,-9.451828,-3.2571259,0.69789124,2.2954407,-0.33285522
1633,A,694795906363295,6.368576,-4.5703125,0.05630493,0.1663971,1.1678467,0.55662537
1633,A,694795926504897,2.3757782,-1.9445496,1.0675964,0.36053467,-1.8998108,0.8535156
1633,A,694795946646498,0.56314087,-3.594513,0.3841095,0.3106842,-5.9451294,1.1364288
1633,A,694795966788100,2.596817,-3.949997,-2.3494263,1.3560944,-3.005951,0.98812866
1633,A,694795986929702,2.9556122,-4.9210815,-7.8467865,0.29115295,8.075699,-0.035003662
1633,A,694796007071303,0.2678833,-6.981735,-6.2438507,0.30393982,4.408188,-0.56552124
1633,A,694796027212905,-3.4275818,-9.532806,-5.6239777,2.1639862,-0.50575256,0.69496155
1633,A,694796047354506,-3.2885132,-10.44902,-6.258621,-1.0098877,1.404007,-0.21255493
1633,A,694796067496108,-0.86824036,-9.850693,-4.5118103,-1.4634552,-0.8148651,-0.8832245
1633,A,694796087637709,1.5634308,-9.3545685,-2.5467072,0.04660034,-3.070938,-0.53645325
1633,A,694796107779311,0.21292114,-12.071732,-0.8476105,-1.603363,-1.7592621,0.31889343
1633,A,694796127920912,-1.0654297,-16.512573,-2.7674103,-0.75102234,-1.9749451,0.32414246
1633,A,694796148062514,-0.051483154,-18.788742,-1.5959015,-0.06964111,-3.8289795,0.54533386
1633,A,694796168204116,0.58966064,-16.126251,0.16731262,-0.6793518,-2.8972473,0.383667
1633,A,694796188345717,5.391098,-13.514725,-2.147705,-0.9456177,-1.2736206,-0.20811462
1633,A,694796208487319,3.4526672,-13.256882,-1.9238892,-0.92710876,-0.6345062,-0.536026
1633,A,694796228628920,1.9642639,-11.3116,-2.2767487,-0.9888153,-0.13987732,-0.79940796
1633,A,694796248770522,2.1180115,-10.717651,-1.0432739,-1.039566,-1.1873779,-0.7963562
1633,A,694796268912123,1.4824371,-10.60376,-1.4611206,0.97436523,1.8470764,-0.84332275
1633,A,694796289053725,0.6023407,-10.167221,-1.681366,1.9519196,3.5166168,-0.47659302
1633,A,694796309195327,-0.19291687,-9.80867,-0.3076172,1.7855835,3.3641357,0.3629303
1633,A,694796329336928,-0.26296997,-9.210144,1.3226471,1.1475525,1.1294708,0.8780365
1633,A,694796349478530,-0.08378601,-8.082077,2.3896637,0.83792114,-0.11772156,1.2243652
1633,A,694796369620131,1.3042603,-7.0042267,1.0365753,0.20417786,1.8214417,0.8011627
1633,A,694796389761733,1.3338623,-6.3043823,0.23410034,-0.40560913,3.184723,-0.76693726
1633,A,694796409903334,1.223053,-5.491913,-0.084243774,0.9328613,2.5249023,0.83625793
1633,A,694796430044936,1.401123,-4.897827,-0.595047,0.52615356,-0.7219696,-0.31053162
1633,A,694796450186537,1.2671967,-4.6892395,-0.89871216,-1.558136,-1.5192413,-0.8397827
1633,A,694796470328139,0.99276733,-4.5709076,-2.9182434,-1.7547607,-1.6582489,-1.3482361
1633,A,694796490469741,1.0875854,-4.789154,-0.9404297,-0.32531738,-1.5639954,-0.43270874
1633,A,694796510611342,0.9919739,-5.8713837,-0.20043945,-0.28431702,0.9336548,0.69459534
1633,A,694796530752944,0.6041107,-8.0720825,0.21910095,-0.28074646,-1.9068298,0.5578308
1633,A,694796550894545,0.50605774,-10.921143,0.63734436,-0.839447,-4.532196,0.6542969
1633,A,694796571036147,0.58602905,-13.580017,0.78804016,-0.8509064,-3.0547943,0.018371582
1633,A,694796591177748,0.1299591,-15.016632,0.49058533,-0.54397583,0.30789185,-0.14187622
1633,A,694796611319350,-1.1657104,-16.108658,0.049072266,-0.34924316,0.88793945,-0.5768738
1633,A,694796631460952,-2.8192902,-17.396835,0.74209595,-0.19911194,1.4656372,-0.8424835
1633,A,694796651602553,-1.4696808,-17.845795,0.74658203,0.85879517,2.679657,-0.62164307
1633,A,694796671744155,-1.2783813,-17.134079,-0.2256012,1.4241791,2.5935059,-0.4703827
1633,A,694796691885756,-0.8935394,-14.972275,-1.0984192,1.3133698,2.0708313,0.107543945
1633,A,694796712027358,-1.2034302,-11.941376,-0.6736145,0.37194824,0.24993896,0.9132843
1633,A,694796732168959,-1.6317139,-9.975479,0.05155945,0.73783875,-2.3111267,0.9736023
1633,A,694796752310561,-1.1187439,-8.4175415,-0.66264343,0.97320557,-2.1228027,1.3550873
1633,A,694796772452162,0.19200134,-7.2644196,-1.2210693,-0.23269653,1.6664581,1.1794586
1633,A,694796792593764,1.759201,-6.7888184,-1.1934204,-0.3470459,4.259781,0.30726624
1633,A,694796812735366,4.619217,-6.984833,-1.8847504,1.0236053,-0.46476746,-0.45603943
1633,A,694796832876967,9.072327,-7.485489,-3.3207855,0.005340576,-3.0342712,-0.6199341
1633,A,694796853018569,5.748413,-5.5333557,-1.483429,-1.4554901,-0.57688904,-0.8839874
1633,A,694796873160170,4.925537,-2.9243774,-0.7032318,-1.4084167,2.665741,-0.55992126
1633,A,694796893301772,1.2584381,-4.377533,0.12309265,-0.1977539,4.063675,0.22491455
1633,A,694796913443373,0.13397217,-5.909134,0.96284485,0.07795715,-0.08906555,0.66270447
1633,A,694796933584975,2.100357,-6.1692657,-4.0061035,-0.28918457,-2.9205017,1.1434631
1633,A,694796953726577,2.757782,-6.736252,-11.633194,-0.44129944,-4.80336,0.40957642
1633,A,694796973868178,0.8042145,-8.210022,-7.182556,-0.59033203,-4.726013,-0.26924133
1633,A,694796994009780,-1.6657104,-9.773346,-3.941162,-0.51750183,-0.4113617,-0.5751648
1633,A,694797014151381,-2.006485,-9.990372,-4.056595,-1.9738312,-2.616043,-1.0477142
1633,A,694797034292983,-1.3344116,-10.580399,-3.07547,-1.2623138,-0.7602844,-0.66796875
1633,A,694797054434584,-1.5238647,-12.359436,-1.188385,0.6731262,4.2400208,-0.5926666
1633,A,694797074576186,-2.774994,-14.4326935,-2.5795593,1.0098419,3.4822845,-0.08856201
1633,A,694797094717787,-3.3080902,-15.098373,-6.051758,0.97480774,1.2967987,0.45721436
1633,A,694797114859389,-3.3545227,-13.986618,-3.6556091,1.1270447,-0.4867859,0.75801086
1633,A,694797135000991,-1.6638031,-12.746109,-1.9636688,1.1544342,-2.6006622,0.75723267
1633,A,694797155142592,0.7632446,-13.70488,-1.0093536,0.4300995,-1.6660767,0.9691467
1633,A,694797175284194,2.749054,-14.086502,-1.3347015,-0.7094574,3.4086456,0.7405548
1633,A,694797195425795,1.6703796,-12.580078,-0.84207153,-0.30168152,2.8159637,0.23554993
1633,A,694797215567397,2.464157,-11.2916565,-0.150177,1.3056946,-0.47943115,0.021438599
1633,A,694797235708998,3.6900635,-10.5095215,0.6425934,0.09877014,-1.1546631,-0.6747894
1633,A,694797255850600,3.6736755,-9.456284,0.9595337,-0.3866272,-0.18432617,-0.9537506
1633,A,694797275992202,2.980774,-8.423126,0.69366455,-0.91015625,2.3853912,-0.24533081
1633,A,694797296133803,3.0600739,-7.626297,0.7379761,-0.9076233,5.7503204,0.58309937
1633,A,694797316275405,3.607956,-7.208908,1.058136,-0.01499939,0.47973633,-0.484787
1633,A,694797336417006,3.2533112,-6.968109,0.87893677,-0.07421875,-2.5449524,-0.6986084
1633,A,694797356558608,1.7300873,-6.5403748,0.17866516,-0.15396118,1.4254913,-1.2264557
1633,A,694797376700209,0.2526703,-6.211136,0.48051453,-0.2247467,0.49165344,-1.4811707
1633,A,694797396841811,-0.017822266,-6.07753,1.1306915,-0.0975647,-0.8849335,-1.9910736
1633,A,694797416983412,-1.4393616,-6.407501,0.27441406,-0.26763916,0.23770142,-1.8325653
1633,A,694797437125014,-2.5270233,-6.6174774,0.30093384,-0.17004395,0.8562317,-1.8422852
1633,A,694797457266616,-1.5784912,-6.509308,1.15625,-0.26763916,0.68133545,-2.0526123
1633,A,694797477408217,-2.0261688,-7.0106506,1.1749115,-0.48623657,0.24220276,-2.015915
1633,A,694797497549819,-1.9633789,-8.010147,0.7557831,-0.8865051,-0.09727478,-1.1186676
1633,A,694797517691420,-1.0227661,-9.9664,0.48468018,-0.48924255,-0.20344543,-0.32702637
1633,A,694797537833022,-1.1069946,-12.480118,0.28852844,-0.26390076,1.0011292,0.33509827
1633,A,694797557974623,-1.8795166,-14.750717,-0.2629547,-0.4571991,1.9628601,0.7757263
1633,A,694797578116225,-2.9325256,-16.123154,-1.6516266,-0.6872101,2.3434143,1.2556763
1633,A,694797598257827,-3.3645325,-16.846497,-2.1636047,0.023452759,-0.33900452,1.6912689
1633,A,694797618399428,-2.821579,-17.748398,-2.0301208,1.8004608,-2.750702,1.5720673
1633,A,694797638541030,-2.1286774,-18.371399,-1.6854401,2.3290405,-3.8306427,0.714386
1633,A,694797658682631,-1.5440979,-16.429535,-0.6852722,1.7080078,-2.815857,0.060821533
1633,A,694797678824233,-0.58444214,-12.608505,-0.21939087,0.39837646,-1.9607086,-0.06611633
1633,A,694797698965834,-0.101135254,-9.712524,0.5096741,-0.7188873,-1.3553772,-0.12452698
1633,A,694797719107436,0.39039612,-8.134277,0.19552612,-1.14534,0.66993713,0.10636902
1633,A,694797739249037,1.2347412,-7.313324,-0.2409668,-1.470459,2.8045654,0.12886047
1633,A,694797759390639,2.701538,-6.8610535,-0.5927582,-1.2879486,1.745697,-0.090911865
1633,A,694797779532241,11.242798,-7.5327454,-3.6100159,-0.74497986,0.66542053,-0.21696472
1633,A,694797799673842,9.481506,-6.9442444,-3.156662,0.048309326,0.6706543,-0.4438324
1633,A,694797819815444,5.984253,-3.105835,-1.8658295,0.3588562,-0.21969604,-0.6249237
1633,A,694797839957045,2.3729095,-2.6471558,-0.7440491,0.10826111,-0.61868286,-0.78471375
1633,A,694797860098647,0.5770874,-4.1372375,-0.7436676,-0.30361938,-0.2743683,-0.6865845
1633,A,694797880240248,1.0995026,-5.227051,-1.1877441,-0.6175232,0.46022034,-0.4063263
1633,A,694797900381850,-0.41101074,-6.402069,-3.0957336,-0.26548767,-0.001663208,-0.19171143
1633,A,694797920523452,-0.8767395,-6.6703796,-4.758087,0.9108429,-0.12794495,0.2313385
1633,A,694797940665053,-3.858429,-8.183151,-3.3502655,0.71180725,0.11088562,0.6168518
1633,A,694797960806655,-4.7207947,-8.661087,-2.7236176,0.6088867,-1.3476105,0.8169708
1633,A,694797980948256,-3.1749268,-8.715897,-2.9462738,1.6491547,-2.1727905,0.3640747
1633,A,694798001089858,0.78323364,-10.124924,-2.774109,1.3400726,-1.4284363,-0.07046509
1633,A,694798021231459,1.6391296,-12.715286,-1.2420502,0.44424438,-1.2244873,-0.34823608
1633,A,694798041373061,-1.7258453,-14.513824,2.10112,-0.13916016,-1.0735168,-0.58480835
1633,A,694798061514662,-1.7014923,-15.592697,-1.2793732,-0.67710876,-0.3501587,-0.40275574
1633,A,694798081656264,-1.7013245,-17.232605,-1.276535,-0.39822388,0.8786011,-0.18945313
1633,A,694798101797866,-1.4928741,-15.954712,-0.7200775,0.37496948,0.63734436,0.28289795
1633,A,694798121939467,-0.24855042,-15.546768,-0.96188354,-0.038360596,0.68647766,0.5944519
1633,A,694798142081069,-0.1733551,-15.179428,-3.1561432,-0.43826294,0.7098999,0.39115906
1633,A,694798162222670,0.16238403,-13.376694,-2.3744202,-0.6947174,0.32019043,0.33851624
1633,A,694798182364272,1.0213165,-10.934814,-1.2022858,-0.34526062,1.3335114,0.52282715
1633,A,694798202505873,0.977005,-8.812424,0.14692688,0.034072876,2.8821716,0.76553345
1633,A,694798222647475,-0.60336304,-7.9907227,0.5896759,0.14241028,2.8920135,1.0617828
1633,A,694798242789077,-0.91397095,-8.067444,0.47781372,-0.09098816,1.7824097,1.2397766
1633,A,694798262930678,0.37139893,-7.8785553,0.047714233,-0.6481781,-1.7155914,0.97673035
1633,A,694798283072280,1.654068,-7.2194366,-1.1152954,-0.7632599,-4.8570557,0.8410034
1633,A,694798303213881,2.7221832,-5.834076,-1.1843567,0.7570343,-5.282715,2.1549225
1633,A,694798323355483,3.0302887,-5.1114197,-0.86187744,0.3481598,-3.8173676,1.2103729
1633,A,694798343497084,2.615738,-5.1036224,-1.1972656,0.0022277832,-1.8409882,1.1595154
1633,A,694798363638686,2.794876,-4.570816,0.2944336,-0.5530243,3.4789276,-0.6298523
1633,A,694798383780287,3.847229,-4.194153,0.42912292,0.31082153,1.9593658,-1.1762695
1633,A,694798403921889,2.3679962,-4.484665,0.74394226,1.2149658,0.90530396,0.25274658
1633,A,694798424063491,1.0818939,-5.2438354,1.0630951,-0.6494751,3.8412476,0.18341064
1633,A,694798444205092,-0.08779907,-7.472336,1.448349,-0.46394348,3.043457,-0.020462036
1633,A,694798464346694,-0.609375,-10.189316,2.2380981,0.28312683,0.81196594,0.39691162
1633,A,694798484488295,-0.47476196,-13.039902,1.5226288,0.16438293,-6.0503845,0.55210876
1633,A,694798504629897,-0.34417725,-15.850555,1.0373993,-0.26716614,-6.586319,0.13214111
1633,A,694798524771498,-0.7522888,-17.26828,-0.31152344,-1.553482,-0.74716187,0.7920532
1633,A,694798544913100,-3.0319672,-17.096588,-1.3616638,-0.784256,1.4018555,0.06600952
1633,A,694798565054702,-3.935608,-16.913422,-1.1048126,-0.34191895,-0.029174805,-0.2102356
1633,A,694798585196303,-3.7223206,-17.427048,-1.7744751,-0.013427734,0.5988922,-0.24307251
1633,A,694798605337905,-4.018936,-17.036606,-1.7683563,0.28216553,1.555893,-0.47229004
1633,A,694798625479506,-3.7719574,-14.711273,-1.5265961,-0.5357666,0.38453674,-0.7616577
1633,A,694798645621108,-3.6784058,-12.889374,-1.9772949,-0.9363556,-1.8953094,0.0592041
1633,A,694798665762709,-3.4229736,-10.324036,-2.4416962,2.5496826,-1.9126434,0.5405884
1633,A,694798685904311,-2.2134552,-8.832962,-2.4802246,2.6105652,0.083099365,0.5774536
1633,A,694798706045912,-0.68089294,-8.318329,-2.217163,1.319519,3.4098663,0.82785034
1633,A,694798726187514,1.8660278,-8.322479,-1.7719269,0.06260681,5.418167,-0.68281555
1633,A,694798746329116,9.229721,-9.030762,-2.586258,-0.056640625,2.7246857,-0.380661
1633,A,694798766470717,12.068802,-9.509979,-3.1056976,0.8820801,-0.14030457,0.66819763
1633,A,694798786612319,8.712692,-7.8272705,-0.77464294,-0.31204224,-1.3699188,-0.21742249
1633,A,694798806753920,9.022263,-1.215805,3.668045,-1.9478455,-0.9203644,-0.89826965
1633,A,694798826895522,3.8615265,-1.0049133,3.6864014,-0.91111755,-0.06361389,-0.45259094
1633,A,694798847037123,-1.1259003,-4.002838,-1.2982635,0.2548828,-0.43955994,0.17611694
1633,A,694798867178725,0.09611511,-4.7039185,-3.9820404,-0.5660248,-1.9357605,0.32740784
1633,A,694798887320327,1.9260101,-5.4163666,-5.273346,-1.2323608,-2.567978,0.49850464
1633,A,694798907461928,1.6323547,-6.8371277,-4.0226746,-0.4619751,-1.441742,0.33563232
1633,A,694798927603530,0.5802765,-7.9200287,-3.3059387,0.098236084,0.15701294,0.20678711
1633,A,694798947745131,-0.41540527,-9.011078,-3.0276031,-0.107421875,-0.28408813,0.01826477
1633,A,694798967886733,-2.1306763,-10.920349,-2.201828,-0.21905518,-1.3110199,-0.40164185
1633,A,694798988028334,-3.3820648,-13.285934,-1.0846558,0.6775665,0.78834534,-0.65626526
1633,A,694799008169936,-3.4899292,-15.2022705,0.440979,0.9420166,2.6559753,-0.84213257
1633,A,694799028311537,-3.9000854,-15.6645355,3.2133636,1.0034485,2.7983398,-0.7607727
1633,A,694799048453139,-3.8647919,-14.665222,3.4318085,1.2340698,2.3664703,-0.3200531
1633,A,694799068594741,-3.0171967,-14.432541,0.38690186,0.6918335,1.5558167,0.100494385
1633,A,694799088736342,-2.4529114,-13.477463,-3.7740173,0.38890076,0.3889618,0.47917175
1633,A,694799108877944,-1.4721832,-13.441895,-5.435852,0.14706421,-0.3687744,0.95129395
1633,A,694799129019545,-0.6482239,-13.295258,-3.792099,-0.94506836,-0.51397705,1.3596497
1633,A,694799149161147,-0.12789917,-12.298538,-2.0187225,-0.9893799,-1.01828,0.6099701
1633,A,694799169302748,0.70999146,-11.104095,-0.77098083,0.06576538,-2.6437683,0.26976013
1633,A,694799189444350,1.7560883,-9.893799,0.004714966,-0.21252441,-2.3873749,-0.7186127
1633,A,694799209585952,2.7259521,-9.236237,-0.23045349,-1.708313,-0.8322296,-1.3615112
1633,A,694799229727553,3.6082764,-8.911423,-1.1695404,-1.6296539,2.7585144,-1.2435608
1633,A,694799249869155,4.0598755,-8.0473175,-1.2595215,0.17320251,3.676056,-0.20506287
1633,A,694799270010756,3.4830322,-6.4131317,-0.21055603,0.01512146,-0.20002747,0.51623535
1633,A,694799290152358,2.7881927,-5.3888702,0.63446045,-0.37158203,-4.431122,0.18710327
1633,A,694799310293959,1.5728607,-5.723709,1.1335449,-0.03010559,-3.7210388,0.11218262
1633,A,694799330435561,0.12968445,-5.8615265,1.4250183,-0.095199585,-1.1212769,0.50335693
1633,A,694799350577162,-0.7648163,-5.772354,1.3397369,-0.33888245,0.025421143,0.2290802
1633,A,694799370718764,-1.3870087,-5.666977,0.91067505,-0.18582153,0.6491699,-0.26852417
1633,A,694799390860366,-1.3651276,-5.704773,0.44961548,0.14614868,0.42407227,-0.2723236
1633,A,694799411001967,-1.0303955,-6.2294006,0.16516113,0.48918152,-0.33895874,-0.45236206
1633,A,694799431143569,-0.974823,-7.787155,-0.14550781,0.8645477,0.066467285,-0.5330353
1633,A,694799451285170,-0.96720886,-10.356155,-0.83522034,0.7017212,0.95162964,-0.10769653
1633,A,694799471426772,-0.7362976,-12.972763,-1.129303,0.29475403,1.4352112,0.21566772
1633,A,694799491568373,-0.82328796,-14.6996765,-1.5462952,0.53204346,0.45999146,0.46766663
1633,A,694799511709975,-1.799942,-15.794998,-1.6609802,0.064590454,0.85961914,0.8952942
1633,A,694799531851577,-2.5535583,-17.63179,-1.2870789,-0.45446777,1.2148743,0.5832062
1633,A,694799551993178,-2.619461,-18.985077,-1.531189,-0.08293152,-0.21084595,0.05456543
1633,A,694799572134780,-2.8193512,-17.824692,-1.2924805,0.86224365,-0.21324158,-0.22764587
1633,A,694799592276381,-2.9024658,-14.893036,-0.5040741,-0.33761597,0.22059631,-0.59791565
1633,A,694799612417983,-2.791153,-11.939468,-0.111450195,-1.826477,1.3786926,-1.0585327
1633,A,694799632559584,-2.4183197,-9.697205,-0.18521118,-0.48797607,-0.5899048,-0.85295105
1633,A,694799652701186,-1.7040863,-8.213638,-0.558548,1.1533356,0.5098877,0.5078888
1633,A,694799672842787,-0.5421753,-7.480835,-0.93614197,-0.8163147,-0.6444702,0.4152069
1633,A,694799692984389,0.705246,-7.859833,-1.3751831,-0.7463074,-3.529663,0.3688202
1633,A,694799713125991,2.426117,-8.0091095,-2.0681763,-0.13981628,-1.645874,0.29055786
1633,A,694799733267592,5.3163757,-7.5280457,-2.7665405,0.55278015,0.33988953,0.43969727
1633,A,694799753409194,7.367447,-6.6678925,-2.7017212,0.18128967,-0.037231445,-0.043182373
1633,A,694799773550795,4.700592,-4.0155945,-0.921051,0.12176514,0.14830017,-0.48225403
1633,A,694799793692397,3.8104858,-1.8998566,0.45921326,-0.2515869,-0.42063904,-0.75045776
1633,A,694799813833998,2.6841583,-3.3224182,-0.58210754,-0.14241028,-0.7891846,-0.9167328
1633,A,694799833975600,1.157608,-5.139038,-4.008011,0.8808899,1.6274872,-0.8451538
1633,A,694799854117202,1.2178192,-6.08461,-4.5836334,0.8113251,4.2069244,-0.11808777
1633,A,694799874258803,1.5567322,-7.5303802,-3.2401733,0.28559875,3.193344,0.5224457
1633,A,694799894400405,0.8192749,-8.670181,-1.0144043,0.19036865,0.92362976,0.972702
1633,A,694799914542006,-1.4614258,-9.761063,-2.2271576,-0.28155518,-0.20805359,1.2526398
1633,A,694799934683608,-5.028717,-11.508652,-2.1942596,-0.8242798,-0.46923828,0.5412445
1633,A,694799954825209,-6.9687653,-13.705566,-1.2552032,-0.21313477,-3.1355133,-0.045318604
1633,A,694799974966811,-4.518982,-13.350784,-2.5008087,0.39172363,-2.6690674,-0.8613434
1633,A,694799995108412,-3.7226563,-13.964325,-3.5288086,-0.8338928,-0.3368225,-0.94880676
1633,A,694800015250014,-2.711502,-15.409149,-1.9781952,-2.1405487,2.47435,-0.6949005
1633,A,694800035391616,-0.43925476,-15.031891,1.0215912,-0.64271545,1.4151917,-0.13267517
1633,A,694800055533217,1.3856812,-13.679657,-0.51704407,1.3134918,1.7142181,1.0874786
1633,A,694800075674819,2.1800537,-12.981537,-2.1708832,-0.5214844,-1.438858,0.57702637
1633,A,694800095816420,1.1422882,-12.568619,-2.7000427,-0.06430054,-3.5130157,0.69241333
1633,A,694800115958022,1.570755,-12.110367,-2.0450592,-0.15275574,-2.0902252,0.4767151
1633,A,694800136099623,0.9822693,-11.275787,-0.8701172,-0.3836975,-1.4358978,0.38594055
1633,A,694800156241225,-0.1605072,-10.253983,0.2074585,0.049682617,-1.3856812,-0.46200562
1633,A,694800176382827,-0.5125885,-9.75119,0.77500916,0.06707764,-0.5664673,-0.6602173
1633,A,694800196524428,0.104278564,-9.340439,0.08065796,-0.15272522,1.1220093,-0.8213501
1633,A,694800216666030,0.980423,-8.393311,-0.53279114,0.3587494,1.8631744,-1.0886383
1633,A,694800236807631,1.5105286,-7.236603,-0.46987915,-0.06564331,3.096344,-0.83110046
1633,A,694800256949233,1.0279846,-6.192749,0.39709473,0.30682373,3.7635803,0.052490234
1633,A,694800277090834,0.9998779,-5.372925,0.84840393,0.71995544,1.5979462,0.78564453
1633,A,694800297232436,-0.45043945,-5.0535583,0.59114075,0.6932831,0.03665161,1.3295441
1633,A,694800317374037,-0.567276,-5.0234833,0.50450134,-0.13961792,-0.4825287,1.6450653
1633,A,694800337515639,-0.046844482,-5.0904083,1.235733,-0.87719727,-1.1007233,0.13072205
1633,A,694800357657241,0.0030670166,-6.279953,0.6604767,0.06814575,-3.9781647,-0.636322
1633,A,694800377798842,0.7002106,-6.9864197,0.8513794,1.018692,-0.9944458,-0.18339539
1633,A,694800397940444,0.79533386,-8.243469,0.2531433,-0.18199158,0.6920471,-0.9753418
1633,A,694800418082045,0.30465698,-9.90863,-0.22415161,-1.9236298,2.5148773,-0.7717438
1633,A,694800438223647,-0.29592896,-11.643356,0.093429565,-1.888977,1.2711029,-0.6350403
1633,A,694800458365248,-0.90600586,-13.362946,-0.21417236,-0.74446106,1.9755554,0.27252197
1633,A,694800478506850,-2.2410278,-15.428253,-0.8126373,0.5251312,-2.388153,0.42417908
1633,A,694800498648452,-2.4449463,-16.710815,-0.9273834,0.8141327,-3.2687225,0.5272064
1633,A,694800518790053,-3.3755493,-19.055801,0.17311096,0.20652771,-1.4507446,0.4507599
1633,A,694800538931655,-3.178009,-16.14801,0.7909546,-0.37487793,-0.97857666,0.2657776
1633,A,694800559073256,-2.7521515,-13.935425,0.6979523,-0.9296112,-1.9534912,0.004470825
1633,A,694800579214858,-2.9728088,-11.695023,0.9898224,-0.84199524,-0.8559418,-0.5209503
1633,A,694800599356459,-1.6439209,-10.458252,0.70780945,-0.4766388,1.4092255,-0.67477417
1633,A,694800619498061,-0.94558716,-10.6766205,0.19606018,0.28022766,2.749237,-0.76794434
1633,A,694800639639662,-0.14477539,-10.512924,-1.0392303,1.0730896,2.8419647,-0.5920868
1633,A,694800659781264,1.3836212,-10.5961,-2.0907135,0.703598,2.8214417,-0.14562988
1633,A,694800679922866,4.0957184,-10.338867,-2.7281952,0.15084839,1.218277,0.56832886
1633,A,694800700064467,11.804749,-9.631729,-3.3258972,0.88967896,-1.8632813,0.95124817
1633,A,694800720206069,9.232056,-8.044983,-0.93540955,0.9125061,-1.8915253,1.331665
1633,A,694800740347670,6.7807617,-5.907074,-2.6186218,0.2780609,-0.090042114,1.1679535
1633,A,694800760489272,4.3069153,-4.77536,-3.2394562,-0.2972412,1.4250488,-0.5297241
1633,A,694800780630873,1.9316406,-4.3966675,-2.384781,0.56108093,1.3224487,0.12301636
1633,A,694800800772475,0.07077026,-5.3048706,-4.1474,0.66226196,-0.037322998,-0.08432007
1633,A,694800820914077,-0.8006134,-6.2554626,-4.5149384,-1.9103241,1.0359802,-1.0623627
1633,A,694800841055678,0.36480713,-6.815445,-0.6213074,-1.220932,0.6268158,-0.9065857
1633,A,694800861197280,0.9543915,-6.561081,-5.404358,0.19160461,-1.3501587,-0.16345215
1633,A,694800881338881,0.9548187,-7.144333,-6.6368713,-0.32583618,-0.5218506,0.657547
1633,A,694800901480483,0.05496216,-7.985916,-5.6931915,-0.458786,-2.9859314,0.49162292
1633,A,694800921622084,0.42863464,-9.279373,-5.109131,-0.3656311,-3.0833435,0.40644836
1633,A,694800941763686,0.59495544,-11.648819,-3.8988342,-0.18893433,-1.085495,0.25801086
1633,A,694800961905287,-1.7214508,-15.549194,-2.6208496,-0.22895813,-0.9686127,-0.026672363
1633,A,694800982046889,-4.16037,-17.656921,-0.47862244,-0.22801208,-0.62257385,-0.3993988
1633,A,694801002188491,-3.3625946,-15.72287,2.7579498,-0.23248291,0.65278625,-0.7822876
1633,A,694801022330092,-0.22711182,-14.514404,3.882187,-0.06500244,1.6750183,-0.98739624
1633,A,694801042471694,1.7681427,-14.428909,0.07859802,1.1291656,2.3702545,-0.79063416
1633,A,694801062613295,4.588333,-12.806656,-2.3399963,1.2319641,2.6535492,-0.4781952
1633,A,694801082754897,2.3856506,-11.686432,-1.6946411,0.3777771,2.3316803,0.38526917
1633,A,694801102896498,0.7486267,-11.60968,-0.72055054,0.58825684,0.34095764,0.98109436
1633,A,694801123038100,1.232666,-11.173538,-0.23561096,0.3847351,-0.4257965,1.3070068
1633,A,694801143179702,1.3572845,-9.657928,-0.4177246,-0.6496124,0.15455627,0.83781433
1633,A,694801163321303,1.599411,-8.63884,-0.16444397,-1.0397491,-1.8413239,-0.5227661
1633,A,694801183462905,1.7465057,-8.394196,0.6660919,0.5844574,-0.50642395,0.025238037
1633,A,694801203604506,2.6295319,-7.9166718,1.0475159,-0.0025024414,-0.13578796,-0.5569763
1633,A,694801223746108,2.997406,-6.9436646,1.2067413,-2.0603638,0.22293091,-0.69532776
1633,A,694801243887709,1.9822845,-6.531967,1.1813354,-0.73716736,-0.4955902,-0.8419342
1633,A,694801264029311,0.8621826,-6.6824646,1.2191162,1.1006622,-0.46522522,0.43338013
1633,A,694801284170912,0.9476471,-5.7079163,2.0260468,-0.42018127,0.5677948,0.633728
1633,A,694801304312514,0.565506,-5.958832,2.1303558,-0.6561127,-1.640091,0.59677124
1633,A,694801324454116,0.2652588,-6.071289,0.75553894,0.17448425,-3.0970154,0.16851807
1633,A,694801344595717,-0.37913513,-6.1907043,-0.2874298,0.114471436,-2.1414185,0.12361145
1633,A,694801364737319,-0.46159363,-6.6929626,1.0244751,-0.16447449,0.53862,-0.07965088
1633,A,694801384878920,-0.28944397,-8.247498,0.5622864,-0.29039,1.0410614,-0.56695557
1633,A,694801405020522,0.29364014,-10.330551,-0.41685486,-0.38804626,1.5267944,-0.7729492
1633,A,694801425162123,1.0121613,-12.476456,-2.7343445,0.31915283,1.542511,-0.70732117
1633,A,694801445303725,0.38082886,-14.214935,-3.5154877,1.1007538,1.7825928,-0.5496216
1633,A,694801465445327,-1.3699188,-16.946213,-1.0315704,0.63475037,2.5248566,0.07762146
1633,A,694801485586928,-1.3147736,-19.101608,-1.313446,0.21081543,1.1752167,0.65786743
1633,A,694801505728530,-0.6979065,-17.86058,-2.3822021,0.40867615,-1.3093414,1.0127869
1633,A,694801525870131,-1.0063324,-15.20285,-2.2438507,0.4361267,-0.66319275,1.2086334
1633,A,694801546011733,-0.83265686,-11.920273,-0.949646,-0.58180237,0.5452423,0.20666504
1633,A,694801566153334,-0.7194824,-9.744492,0.8347931,0.06286621,-0.4400177,-0.24476624
1633,A,694801586294936,-0.5098877,-9.5434265,0.58670044,1.5487213,-0.6017914,-0.09838867
1633,A,694801606436537,1.2718048,-9.777985,-0.7368164,-0.8111572,0.30239868,-0.85595703
1633,A,694801626578139,4.981781,-8.984131,-2.2297058,-2.0081482,2.198349,-0.86094666
1633,A,694801646719741,9.4409485,-7.766754,-3.2626495,0.18592834,2.1458893,0.14741516
1633,A,694801666861342,8.612686,-5.687607,-2.3441772,-0.033859253,0.3046875,0.5770874
1633,A,694801687002944,2.3343506,-4.525894,2.856781,-1.0084534,-3.2286835,0.53764343
1633,A,694801707144545,0.290802,-4.816696,1.1190643,-0.031280518,-4.888382,-0.11376953
1633,A,694801727286147,1.684082,-4.689026,-4.9339447,-0.3357544,-1.3933716,0.30348206
1633,A,694801747427748,2.4106445,-5.0359497,-7.9254,-0.37045288,1.3797455,0.041305542
1633,A,694801767569350,0.12049866,-6.569504,-7.4856415,-0.56918335,-0.49864197,-0.4310913
1633,A,694801787710952,-2.29599,-7.6152344,-4.113693,-0.53237915,-2.491928,-0.8220215
1633,A,694801807852553,-1.8554993,-7.6875763,-2.7366028,0.38970947,0.0927124,-0.5928345
1633,A,694801827994155,-0.7460022,-8.621735,-3.2840424,0.93670654,3.1278534,-0.5409546
1633,A,694801848135756,0.9758606,-9.720657,-3.5054932,0.96284485,3.5825653,-0.13449097
1633,A,694801868277358,2.240982,-10.634979,-2.601181,0.6986847,2.244873,0.5303955
1633,A,694801888418959,0.93318176,-12.621033,-0.9027252,0.13414001,-0.59358215,0.5482178
1633,A,694801908560561,-0.28625488,-15.249023,-1.7820129,0.41758728,-1.5884094,0.8357849
1633,A,694801928702162,-0.30508423,-15.739899,-1.3977356,-0.29711914,-0.28790283,1.0844269
1633,A,694801948843764,1.5073242,-13.365936,0.46151733,-0.8735962,1.2916718,0.2043457
1633,A,694801968985366,2.9483643,-12.8411255,0.83821106,0.14770508,-0.93925476,0.054153442
1633,A,694801989126967,4.3783264,-13.200378,-0.64564514,1.1029663,-1.7620697,-0.6431732
1633,A,694802009268569,3.4326172,-12.028076,-1.7103729,-0.3260498,-0.89897156,-0.84254456
1633,A,694802029410170,2.1685028,-10.463348,-1.5757904,-1.333664,1.4829407,-0.56329346
1633,A,694802049551772,2.4935608,-9.800278,-0.65589905,-0.5859375,4.2914734,0.19894409
1633,A,694802069693373,2.263031,-9.671829,-0.06488037,-0.07698059,2.1969147,0.54029846
1633,A,694802089834975,1.3362732,-10.00293,0.07115173,-0.30143738,-2.3825073,0.6023102
1633,A,694802109976577,1.1574554,-9.996414,0.13102722,-0.37799072,-4.8125916,0.4045105
1633,A,694802130118178,1.4472351,-9.130814,0.5506134,-0.59524536,-3.7352753,-0.036865234
1633,A,694802150259780,1.3745422,-7.7713623,1.1018982,-0.4594574,-0.32362366,0.20547485
1633,A,694802170401381,0.97628784,-6.3693237,1.4931335,-0.31277466,0.58047485,-0.33363342
1633,A,694802190542983,1.1241913,-5.545639,1.5405121,-1.4035492,-2.3139496,-0.7366028
1633,A,694802210684584,0.5815735,-5.714447,0.074905396,0.34931946,-0.8166199,-0.32904053
1633,A,694802230826186,0.18441772,-5.7509613,-2.2240143,1.6276245,3.0386505,-0.73828125
1633,A,694802250967787,-0.16444397,-7.145462,-3.6838074,1.0849152,3.4306488,-0.6154785
1633,A,694802271109389,0.33247375,-7.1418,2.9606018,-0.50076294,3.3017883,0.2477417
1633,A,694802291250991,-0.676239,-5.6764984,3.3082733,0.3032074,2.0453033,0.934494
1633,A,694802311392592,-1.502655,-6.7747955,2.7915955,0.20413208,1.2943115,1.1872559
1633,A,694802331534194,-0.874115,-8.692932,3.5006256,-0.85531616,-0.31861877,0.82598877
1633,A,694802351675795,1.3418427,-10.904266,2.40831,-0.4123993,-4.0246887,-0.44073486
1633,A,694802371817397,3.4824371,-13.515793,0.5951233,0.59199524,-1.3322906,-0.59552
1633,A,694802391958998,0.1686554,-14.848053,-3.4707794,0.6336365,0.48587036,-0.6723938
1633,A,694802412100600,-0.6243744,-16.26239,-3.598053,-1.34021,1.8014526,-0.9481659
1633,A,694802432242202,-1.4310608,-17.258148,-0.50341797,-1.5607147,2.2330017,-0.93055725
1633,A,694802452383803,-1.0248413,-17.874985,0.10079956,1.0569763,0.7946167,0.20439148
1633,A,694802472525405,-0.84706116,-16.546753,-0.6757202,-0.6491699,0.26560974,0.86763
1633,A,694802492667006,-0.18771362,-13.405426,-1.2845612,0.20193481,-2.5421906,0.5313721
1633,A,694802512808608,0.07546997,-10.969666,-1.4436798,0.35868835,-2.6327972,0.32939148
1633,A,694802532950209,-0.17253113,-9.78038,-1.5390472,0.04875183,-2.5224915,0.30082703
1633,A,694802553091811,0.95692444,-8.257294,-1.6411743,-0.2541504,-0.8893585,0.016494751
1633,A,694802573233412,2.855011,-7.4391174,-1.4891052,-0.44926453,0.18959045,-0.5931549
1633,A,694802593375014,8.684906,-7.539505,-3.2644958,-0.39175415,1.7346344,-0.8644562
1633,A,694802613516616,8.7104645,-6.963974,-2.8070068,-0.0549469,2.5331879,-0.779129
1633,A,694802633658217,6.254425,-3.469574,-1.3577881,0.8992157,1.4792633,-0.48579407
1633,A,694802653799819,2.2221527,-3.7732086,-0.8172302,0.97875977,1.5424957,-0.105285645
1633,A,694802673941420,-1.0363312,-6.9766083,0.08703613,0.4827118,0.2508545,0.6977997
1633,A,694802694083022,-1.0512848,-7.8163757,1.8409271,0.034347534,-1.9728241,0.8587189
1633,A,694802714224623,0.60188293,-6.8986053,-15.300995,0.10173035,-2.186905,1.2205963
1633,A,694802734366225,-0.2594452,-5.603119,-5.298111,-0.6103821,-0.285141,0.95869446
1633,A,694802754507827,-0.7645416,-7.2481384,-4.3771057,-1.164444,-0.09159851,0.023620605
1633,A,694802774649428,0.7032318,-7.67717,-4.127838,0.9256439,-0.89105225,-0.34866333
1633,A,694802794791030,0.53590393,-9.135544,-3.198578,1.2756042,-0.5988617,-0.6387329
1633,A,694802814932631,0.6396332,-10.918808,-1.7582855,-0.94932556,0.537796,-0.6812897
1633,A,694802835074233,0.7331543,-11.932159,-0.44752502,-1.9620056,3.945877,-0.22688293
1633,A,694802855215834,0.19850159,-12.273544,0.3912964,-0.24995422,2.2846222,-0.1519928
1633,A,694802875357436,-1.8025055,-13.395554,1.6720886,-1.0866241,0.051879883,0.54901123
1633,A,694802895499037,-1.9693146,-12.305634,1.5849457,0.3633423,-3.5458221,0.4764099
1633,A,694802915640639,-0.13591003,-12.671997,1.3888855,0.11679077,-3.5761719,0.2774353
1633,A,694802935782241,0.062698364,-12.441254,-1.1120758,-0.37623596,-1.4857941,0.22003174
1633,A,694802955923842,0.2561798,-14.311523,-2.5500336,-0.6077728,0.17088318,0.013824463
1633,A,694802976065444,1.2819214,-14.403702,-2.1722107,-0.24577332,1.0319214,-0.4505005
1633,A,694802996207045,0.12498474,-12.747101,-0.34783936,0.094055176,1.5373383,-0.6598816
1633,A,694803016348647,0.13409424,-10.987457,0.31814575,0.6351166,0.71325684,-0.61372375
1633,A,694803036490248,0.80130005,-9.448303,-0.15193176,1.1378479,1.3258362,-0.59646606
1633,A,694803056631850,1.1415558,-9.306549,-0.6298065,1.0121613,2.758194,-0.3212738
1633,A,694803076773452,1.7297821,-9.636322,-0.75590515,0.6384125,2.042038,0.28634644
1633,A,694803096915053,2.0834198,-8.896545,-0.4867096,0.39657593,-0.15538025,0.6133728
1633,A,694803117056655,2.1065674,-7.5842133,-0.33700562,-0.096466064,-1.4429626,1.0679779
1633,A,694803137198256,2.084198,-6.7807617,-0.48194885,-0.70951843,-1.4199371,0.9973297
1633,A,694803157339858,1.678772,-6.2865906,0.13168335,-0.7366638,-0.77705383,0.22842407
1633,A,694803177481459,1.0901031,-6.0170135,0.8645172,0.45458984,-1.1223755,-0.32200623
1633,A,694803197623061,0.6393585,-5.799362,0.9377594,0.102249146,-1.5965424,-0.7359314
1633,A,694803217764662,0.15779114,-5.6861267,0.09631348,-1.3986816,0.25605774,-0.7809906
1633,A,694803237906264,-0.4466858,-6.377472,0.957016,-1.3108215,2.2207336,-0.5542145
1633,A,694803258047866,-1.156784,-6.3745728,1.0622864,0.24327087,1.3753052,0.061965942
1633,A,694803278189467,-0.3280487,-7.131668,0.42971802,-0.35858154,0.61958313,0.6484375
1633,A,694803298331069,-0.23478699,-9.553299,0.25802612,0.20721436,-1.4891357,0.63316345
1633,A,694803318472670,-0.31567383,-11.727371,-0.074539185,0.5733795,-2.8870697,0.137146
1633,A,694803338614272,-0.5328827,-13.151733,-0.36201477,0.07783508,-2.1512604,0.17637634
1633,A,694803358755873,-0.72042847,-13.484085,-0.7366638,-0.37757874,0.13034058,0.04232788
1633,A,694803378897475,-1.1749878,-14.23082,-0.89468384,-0.5601959,0.1374054,-0.45059204
1633,A,694803399039077,-1.0761108,-16.330597,-0.786911,-0.41293335,0.90167236,-0.77763367
1633,A,694803419180678,-0.197052,-17.918396,-1.3011932,-0.006011963,1.271637,-0.7715454
1633,A,694803439322280,-0.6255951,-17.844345,-1.7384491,0.72987366,1.6942596,-0.48498535
1633,A,694803459463881,-1.2546844,-14.639252,-1.8995056,0.73246765,2.4793243,-0.16741943
1633,A,694803479605483,-1.5565491,-11.620026,-1.3176727,0.1950531,1.3417358,0.5266266
1633,A,694803499747084,-1.3759918,-9.433319,-0.7177582,0.11991882,-0.5375061,0.9598999
1633,A,694803519888686,-0.50045776,-7.7364197,-0.32887268,0.010910034,-0.96759033,1.3726044
1633,A,694803540030287,0.5936279,-7.0494995,-0.60702515,-0.74261475,-0.64146423,0.61865234
1633,A,694803560171889,2.5667725,-7.45166,-1.73732,-0.6773071,-2.6334229,-0.20755005
1633,A,694803580313491,4.8340607,-7.901825,-2.6933289,1.2059784,0.22898865,-0.20788574
1633,A,694803600455092,5.9728546,-7.3220215,-2.478119,1.1644287,0.015457153,-0.16377258
1633,A,694803620596694,6.7467346,-5.8236694,-1.8310242,-1.2723083,1.5216827,-0.71884155
1633,A,694803640738295,5.6076813,-4.2292633,-0.8803253,-2.1271667,2.3950195,-0.840683
1633,A,694803660879897,3.5032349,-4.3013153,-0.7274933,0.3117981,1.059021,-0.08087158
1633,A,694803681021498,1.4670105,-5.6522827,-2.02417,-1.2761993,1.8524628,0.44100952
1633,A,694803701163100,0.4248047,-6.4119415,-3.1094513,0.33422852,-3.6091309,0.30677795
1633,A,694803721304702,0.4268341,-6.9997406,-2.412613,0.15422058,-3.36026,-0.22061157
1633,A,694803741446303,0.08508301,-8.19696,-1.9953461,0.3066864,-0.62358093,0.49464417
1633,A,694803761587905,-0.27305603,-9.468536,-2.600647,-0.38012695,0.13134766,0.150177
1633,A,694803781729506,-0.5771179,-11.009399,-2.662918,-0.85621643,-0.5392761,-0.30873108
1633,A,694803801871108,-1.7093506,-13.168625,-2.2003021,-0.015136719,0.57702637,-0.6721039
1633,A,694803822012709,-2.7289429,-13.896545,-0.05529785,0.8477478,1.2021942,-0.8089752
1633,A,694803842154311,-2.6513672,-12.350601,1.4862213,1.1260376,1.5133209,-0.65200806
1633,A,694803862295912,-1.8377075,-10.961227,-1.2950134,0.9395447,2.2864075,-0.38035583
1633,A,694803882437514,-1.9221802,-10.499756,-3.956787,0.37687683,1.1921387,0.1859436
1633,A,694803902579116,-2.17865,-11.365433,-4.4335785,0.24082947,-0.8176117,0.7022095
1633,A,694803922720717,-1.1493835,-12.939026,-3.8035889,0.27082825,-1.104248,1.2454987
1633,A,694803942862319,-0.20101929,-14.600235,-2.7035675,-0.684494,-0.8578186,1.3283997
1633,A,694803963003920,0.01423645,-14.409958,-0.7812805,-1.0466766,-1.1347809,-0.076416016
1633,A,694803983145522,-0.10746765,-12.497757,0.72972107,0.3743286,-1.5045624,-0.18696594
1633,A,694804003287123,-0.11399841,-10.509415,0.31123352,1.1201324,-0.0513916,-0.5543823
1633,A,694804023428725,1.17099,-9.730011,-0.16743469,-0.88279724,-0.35787964,-0.8247833
1633,A,694804043570327,2.3290558,-9.987259,0.12921143,-1.8114319,1.8388367,-0.6253357
1633,A,694804063711928,2.806717,-9.504166,-0.15875244,0.19232178,1.559967,-0.08415222
1633,A,694804083853530,3.394806,-8.359161,-0.41062927,0.28718567,0.37495422,0.6711426
1633,A,694804103995131,2.5405731,-7.459503,0.30444336,-0.5647125,-0.92318726,0.69828796
1633,A,694804124136733,1.1136017,-6.735626,0.9883423,0.14979553,-3.5162354,0.44755554
1633,A,694804144278334,0.38859558,-6.174988,1.1091614,0.080215454,-2.5679474,0.23365784
1633,A,694804164419936,-0.28900146,-5.6921387,1.2074585,0.06703186,0.8308258,0.2374878
1633,A,694804184561537,-1.1294556,-5.2898254,0.9902649,-0.6053772,-0.0057525635,-0.40124512
1633,A,694804204703139,-1.1154938,-4.908432,-0.26817322,-0.6014099,0.8587036,-0.7659302
1633,A,694804224844741,-1.0362701,-5.180252,-0.6178131,0.12863159,1.3171539,-1.0705719
1633,A,694804244986342,-0.7017975,-6.177902,-0.84999084,1.2460785,1.9042816,-0.91456604
1633,A,694804265127944,-0.17497253,-7.795883,-1.2988281,0.8244934,2.9026794,-0.47665405
1633,A,694804285269545,-0.05065918,-9.679642,-0.85505676,0.29257202,1.939621,0.36769104
1633,A,694804305411147,-0.20611572,-11.24881,-0.14601135,-0.047531128,-0.41142273,0.8561554
1633,A,694804325552748,-0.4577484,-12.308868,-0.472229,-0.42384338,-2.5898285,1.315506
1633,A,694804345694350,-0.87368774,-13.173401,-0.9412079,-0.604126,-1.836029,1.2559967
1633,A,694804365835952,-1.4571838,-14.652237,-1.2532349,-0.5501251,-2.4555664,0.16288757
1633,A,694804385977553,-1.2568207,-16.946884,-1.6705017,0.49893188,-1.1573639,-0.0053863525
1633,A,694804406119155,-0.99679565,-18.15982,-1.8343353,0.52659607,0.86424255,-0.42100525
1633,A,694804426260756,-1.9386597,-17.795044,-1.127655,-0.5266876,-0.5110321,-0.68904114
1633,A,694804446416063,-2.6496735,-15.037415,-0.124816895,-1.6572418,1.627945,-0.4721985
1633,A,694804466557664,-2.7773743,-12.189011,0.5423584,-0.511261,1.5479431,-0.4750061
1633,A,694804486699266,-2.375946,-9.580261,0.49324036,-0.08055115,1.0539093,-0.032165527
1633,A,694804506840867,-1.9356384,-7.4090576,-0.68478394,-0.9324341,-0.9217529,0.41137695
1633,A,694804526982469,-0.8348999,-5.9835052,-1.3782501,0.39511108,-2.7314453,0.42062378
1633,A,694804547124071,0.37678528,-6.0914307,-1.7363129,-0.11238098,-0.82662964,0.36271667
1633,A,694804567265672,2.5219116,-7.1056824,-1.9708405,-0.21376038,0.4753418,0.2668457
1633,A,694804587407274,7.7004547,-8.337692,-3.1972046,-0.21290588,-0.011962891,-0.23666382
1633,A,694804607548875,8.216232,-8.43782,-2.6955566,0.35499573,0.027679443,-0.6217346
1633,A,694804627690477,5.0539093,-4.5157013,-0.6813507,0.35108948,-0.7716217,-0.5914154
1633,A,694804647832078,4.9543457,-2.6945953,0.3938141,0.32307434,-1.4638672,-0.51078796
1633,A,694804667973680,3.774063,-4.746414,0.96873474,0.60147095,0.44224548,-0.5040283
1633,A,694804688115282,1.4315948,-7.028122,-1.7322693,0.4273529,3.2985535,0.21252441
1633,A,694804708256883,0.038009644,-7.7832947,-4.3849945,-0.007446289,2.9388885,0.45043945
1633,A,694804728398485,0.8657379,-7.542633,-2.197235,0.30943298,0.4870453,0.65426636
1633,A,694804748540086,0.7739563,-7.509735,-6.715164,0.076828,0.017730713,0.9237366
1633,A,694804768681688,-0.83602905,-8.714355,-0.8271942,-0.4458313,-0.29151917,0.6828766
1633,A,694804788823289,-1.5380249,-10.502838,-0.9913635,0.2108612,-1.223114,-0.030303955
1633,A,694804808964891,-3.2894287,-13.114655,-0.7123718,-0.4852295,-1.3848114,-0.62316895
1633,A,694804829106492,-3.8742065,-13.735901,1.4995117,-1.6641846,0.33499146,-0.92152405
1633,A,694804849248094,-2.0096436,-12.263824,1.6114197,-0.9252472,-0.3323059,-1.226654
1633,A,694804869389696,-2.2131958,-12.26265,-1.8332062,1.516159,0.6526489,0.32304382
1633,A,694804889531297,-3.8067627,-12.592758,-4.316513,0.26255798,1.5698242,0.75535583
1633,A,694804909672899,-2.4672089,-13.17865,-5.829178,-1.1431427,-2.208313,0.5852356
1633,A,694804929814500,-1.7141418,-15.125458,-2.4685974,-0.097335815,-2.967163,0.53038025
1633,A,694804949956102,-0.22792053,-14.8897705,-1.9614563,0.17630005,-2.0806122,0.26538086
1633,A,694804970097703,-0.084228516,-12.934631,-2.4289856,-0.072006226,-0.5868988,0.011444092
1633,A,694804990239305,0.48295593,-11.757431,-2.394333,0.06552124,0.1491394,-0.36154175
1633,A,694805010380907,1.2885437,-10.411789,-1.3467255,0.20742798,1.7532806,-0.7589264
1633,A,694805030522508,2.7815552,-9.478394,-1.0248413,0.34638977,2.3068085,-0.8672333
1633,A,694805050664110,3.7863312,-8.938675,-0.25016785,0.50375366,2.033783,-0.55708313
1633,A,694805070805711,3.8719482,-8.367081,0.074295044,0.7321167,1.8549957,-0.17120361
1633,A,694805090947313,3.9106903,-7.5990143,1.3109283,0.033493042,0.38656616,0.43936157
1633,A,694805111088914,2.1022491,-7.14209,2.0544434,0.27645874,-1.7318115,0.98223877
1633,A,694805131230516,1.7698975,-6.4900665,1.8439941,0.61761475,-1.133728,1.214508
1633,A,694805151372117,1.0698395,-5.738434,0.5371704,-0.5264282,1.6173859,0.031539917
1633,A,694805171513719,0.8919525,-5.4836426,0.87854004,-0.3531494,1.40625,-0.28468323
1633,A,694805191655321,0.4285736,-5.736206,0.63609314,1.2786713,-0.4502716,0.05633545
1633,A,694805211796922,0.2586975,-6.223938,0.37112427,-1.4263763,-1.0147095,-0.63972473
1633,A,694805231938524,0.49551392,-6.6115265,0.022125244,-1.882843,-1.2142487,-0.8995514
1633,A,694805252080125,0.8365936,-7.3716736,-0.3560791,0.4927826,-1.1543121,-0.5018463
1633,A,694805272221727,0.36335754,-8.981628,-0.3115692,0.72613525,0.53385925,0.2982483
1633,A,694805292363328,-0.035507202,-10.982544,-0.27148438,-0.88179016,0.76608276,0.8627014
1633,A,694805312504930,-0.15664673,-13.13324,0.038208008,-0.1894226,-2.4304504,0.5651398
1633,A,694805332646532,-0.6718445,-14.553894,0.380188,0.21469116,-3.1239624,0.10437012
1633,A,694805352788133,-1.660553,-15.0976715,0.8001404,-0.10510254,-2.0049286,0.14007568
1633,A,694805372929735,-2.8148956,-15.250641,0.9389038,-0.32974243,0.58258057,-0.5018158
1633,A,694805393071336,-3.9731293,-16.783615,0.8678131,-1.1830597,-1.521698,-1.1238251
1633,A,694805413212938,-3.4910736,-17.033585,-0.23719788,-0.123931885,0.30273438,-0.88253784
1633,A,694805433354539,-3.228775,-15.571747,-0.7324524,1.4893951,2.5479279,-0.7577362
1633,A,694805453496141,-2.9650574,-13.23172,-1.3774719,1.019043,3.051651,-0.33843994
1633,A,694805473637742,-2.3244324,-10.711151,-1.9133911,-0.029891968,1.1931763,0.627121
1633,A,694805493779344,-2.0130005,-8.950958,-2.0503998,0.447052,-2.3837585,0.65644836
1633,A,694805513920946,-1.5280914,-8.099716,-2.0424347,0.7844391,-1.8182983,0.60095215
1633,A,694805534062547,-0.95132446,-7.5401,-2.29628,0.705246,0.95014954,0.9290161
1633,A,694805554204149,0.21073914,-7.393326,-1.7802124,-0.88723755,2.90654,0.49313354
1633,A,694805574345750,2.0545197,-7.5359497,-1.9064331,-0.7465973,0.70910645,-0.22332764
1633,A,694805594487352,7.3045807,-8.587402,-2.9514008,-0.0738678,-2.2686462,-0.59254456
1633,A,694805614628953,9.759888,-9.57782,-2.8869324,-0.8306732,-1.3570862,-0.8507385
1633,A,694805634770555,7.202301,-6.7273254,-0.8665161,-0.5486145,1.7352448,-0.47373962
1633,A,694805654912157,8.234665,-2.5282745,0.9565735,0.106414795,3.2205048,-0.06503296
1633,A,694805675053758,5.179184,-3.5375214,1.8180847,-0.3348999,1.8242188,0.61416626
1633,A,694805695195360,0.39083862,-6.1857452,-1.2879791,-0.9183655,-0.13987732,0.6624298
1633,A,694805715336961,1.3550415,-6.4660645,-4.258148,0.8650055,-4.145859,0.60969543
1633,A,694805735478563,2.0974731,-6.9804993,-3.6479645,-0.1060791,-4.1376495,0.09715271
1633,A,694805755620164,0.73321533,-7.9596252,-2.5692902,-0.53678894,-0.16690063,0.275589
1633,A,694805775761766,-0.704895,-9.344635,-2.7832184,-0.09880066,0.27650452,-0.3439331
1633,A,694805795903367,-3.0880127,-12.007919,-2.0843353,-0.76686096,-0.6500244,-1.2071838
1633,A,694805816044969,-4.0712433,-14.526382,-0.53356934,-0.5660858,0.46290588,-0.9780121
1633,A,694805836186571,-3.3528137,-14.197067,1.2249908,0.58239746,1.5899048,-0.8788605
1633,A,694805856328172,-3.0125732,-12.526718,0.4807129,0.7531128,2.3490753,-0.42593384
1633,A,694805876469774,-3.6592407,-11.830597,-3.5280457,0.73117065,1.960846,0.26353455
1633,A,694805896611375,-3.4782562,-12.668381,-5.825821,0.2457428,-0.2868805,0.5977936
1633,A,694805916752977,-1.3476868,-14.916138,-4.2627563,0.2624359,-1.7714233,0.9142456
1633,A,694805936894578,0.5756836,-15.133575,-2.5373077,0.13421631,-0.38856506,1.3565674
1633,A,694805957036180,0.99749756,-13.189072,-1.3478241,-0.21343994,1.5197296,1.0262909
1633,A,694805977177782,0.5463104,-11.8007965,-0.95713806,-0.29599,1.5877228,-0.23422241
1633,A,694805997319383,2.4173126,-11.156677,-0.98469543,0.43644714,-1.6241455,-0.763855
1633,A,694806017460985,5.345825,-10.403397,-0.7360382,0.029876709,0.75512695,-1.2042236
1633,A,694806037602586,5.251419,-9.392914,-0.12561035,-0.932251,5.037567,-0.15356445
1633,A,694806057744188,3.7249298,-8.195755,0.68066406,-0.3860016,2.391449,0.107437134
1633,A,694806077885789,3.041809,-7.4588013,1.5239563,-0.45672607,-1.8936615,0.8025818
1633,A,694806098027391,2.7677612,-7.318405,1.6549988,-0.12791443,-4.177414,0.85757446
1633,A,694806118168992,2.0890503,-6.90625,0.13624573,-0.6568756,-4.050049,0.62249756
1633,A,694806138310594,0.15435791,-6.8484497,0.53074646,-0.54777527,-2.0791473,0.29867554
1633,A,694806158452196,-0.9031067,-6.808731,0.81903076,-0.33088684,0.4338684,-0.08232117
1633,A,694806178593797,-1.3648682,-6.5572357,0.965271,-0.6136017,0.35327148,-0.6539459
1633,A,694806198735399,-1.5991821,-6.4745636,1.4580994,-0.29751587,1.4171295,-0.9049072
1633,A,694806218877000,-1.4866791,-6.6480865,1.3843536,0.29522705,2.0929718,-0.9832916
1633,A,694806239018602,-1.1740723,-7.4159393,1.1070404,1.0763855,2.209793,-0.750824
1633,A,694806259160203,-0.91296387,-8.688904,0.7564392,0.98291016,1.9059601,-0.38157654
1633,A,694806279301805,-1.1931458,-10.286438,-0.51467896,0.7620697,-0.11427307,0.4052124
1633,A,694806299443407,-1.6776123,-11.596588,-1.3053436,0.95059204,-2.2473907,0.7796173
1633,A,694806319585008,-2.2603912,-12.191925,-1.0712433,0.6543579,-1.8177795,1.0893555
1633,A,694806339726610,-3.1588593,-12.683182,-0.77830505,-0.11755371,-0.11520386,1.3164978
1633,A,694806359868211,-4.1273346,-14.454514,-0.2806244,-0.9733124,2.616455,0.5566101
1633,A,694806380009813,-4.3279266,-16.435684,-0.27397156,-0.20480347,-0.07267761,-0.27163696
1633,A,694806400151414,-4.107422,-17.569504,-0.7029419,0.9929657,-2.8101807,-0.5813751
1633,A,694806420293016,-4.2085724,-16.89656,-0.67562866,-0.30821228,-0.59129333,-1.2656097
1633,A,694806440434617,-4.491623,-13.868546,-0.29437256,-1.822998,3.3594818,-0.43774414
1633,A,694806460576219,-4.216507,-11.029694,-0.06774902,-1.1222076,1.8756714,-0.6264343
1633,A,694806480717821,-2.8183746,-9.346039,-0.4633484,-0.7865906,0.68395996,0.15640259
1633,A,694806500859422,-1.5778809,-7.832382,-1.1836853,0.24899292,-2.2108002,0.58177185
1633,A,694806521001024,0.6860962,-7.280899,-1.603241,0.81651306,-4.365692,0.63630676
1633,A,694806541142625,8.455582,-7.825775,-2.8214111,-0.39492798,-1.5948486,0.42721558
1633,A,694806561284227,14.618256,-10.304062,-3.8603058,-0.17822266,-0.0362854,0.06929016
1633,A,694806581425828,10.446426,-9.1262665,-1.1369019,-0.24613953,0.04801941,-0.40394592
1633,A,694806601567430,7.8332214,-1.4742279,1.0636292,-0.28308105,0.32167053,-0.91822815
1633,A,694806621709032,7.7222443,0.9930115,2.9664612,-0.012313843,1.390213,-1.010498
1633,A,694806641850633,2.7763672,-2.784378,-0.03843689,0.77178955,2.177887,-0.953125
1633,A,694806661992235,-2.5891876,-7.414139,-4.461502,0.3420868,2.7092285,-0.52149963
1633,A,694806682133836,-2.0991669,-8.576599,-4.323242,-0.3678589,1.6056824,0.21794128
1633,A,694806702275438,-1.3656921,-9.551926,-3.0990448,0.2291565,-1.3295288,0.64286804
1633,A,694806722417039,-2.3103943,-9.500183,-2.3118439,0.62815857,-2.9225159,1.2432251
1633,A,694806742558641,-3.793518,-9.670349,-0.15786743,0.8918152,-1.5010681,1.5336456
1633,A,694806762700242,-8.581207,-10.892868,-0.9626312,0.3179016,0.804718,1.1046448
1633,A,694806782841844,-6.9347687,-10.3535,-2.2377472,0.026489258,0.90745544,-0.4303894
1633,A,694806802983446,-4.178711,-9.931213,-3.289795,0.8862457,-0.784729,-0.72966003
1633,A,694806823125047,-2.152832,-11.997208,-2.8870392,-0.0060577393,1.115387,-0.9791565
1633,A,694806843266649,-1.2105865,-12.80629,-1.2511749,-1.7600098,4.0000916,-0.5521393
1633,A,694806863408250,-1.0470734,-13.864166,-0.415802,-1.0222168,2.0079346,-0.52815247
1633,A,694806883549852,0.2705841,-14.03923,-0.64385986,-0.720459,1.2578735,0.34921265
1633,A,694806903691453,2.121933,-15.475143,-1.0162506,-0.008010864,-4.0691376,0.6973572
1633,A,694806923833055,3.766098,-16.354584,-1.0935516,0.56129456,-6.51062,0.6446533
1633,A,694806943974657,4.2759094,-15.628708,-2.446869,-0.8460541,-1.3851166,0.5616913
1633,A,694806964116258,3.877121,-12.010773,-1.737442,-0.7027588,0.49472046,-0.008712769
1633,A,694806984257860,2.6076202,-10.078461,-0.30574036,-0.34803772,-0.64494324,-0.68229675
1633,A,694807004399461,0.085006714,-9.5494995,1.216217,-1.0467987,-0.97817993,-1.192749
1633,A,694807024541063,-0.13644409,-9.738358,1.0063934,-0.9904938,-0.5644226,-0.94670105
1633,A,694807044682664,-1.2219696,-9.8992,2.4223938,0.49389648,2.2347565,-0.48005676
1633,A,694807064824266,-0.83587646,-8.591003,1.4429169,1.0269318,3.4632874,-0.34519958
1633,A,694807084965867,0.738739,-7.75383,0.4332428,-0.009963989,0.269516,0.6516113
1633,A,694807105107469,0.64582825,-6.6463013,-0.0874176,0.9349365,-3.2561188,0.7140808
1633,A,694807125249071,-0.22091675,-6.0509796,-0.1789856,2.082077,-0.12251282,0.40438843
1633,A,694807145390672,-1.150238,-5.7091827,-0.37083435,0.9664917,4.3111725,0.8419647
1633,A,694807165532274,-1.1616669,-5.2370605,0.328537,-0.023834229,4.439499,0.36895752
1633,A,694807185673875,-0.82821655,-6.2104034,1.1260529,-0.603714,1.6800385,-0.036224365
1633,A,694807205815477,1.279541,-6.769882,3.098938,0.27294922,-0.7866516,-0.1555481
1633,A,694807225957078,2.9925385,-7.2084656,2.8920746,-0.8981781,-2.2798157,-0.2481842
1633,A,694807246098680,0.38345337,-7.987549,1.441925,-1.6464539,-1.5453949,-0.68258667
1633,A,694807266240282,1.0565643,-8.269028,0.8225403,0.101623535,-0.53982544,-0.6939087
1633,A,694807286381883,-0.06210327,-10.068451,1.9894257,0.23846436,0.33776855,0.33872986
1633,A,694807306523485,-0.44244385,-11.546204,1.8136749,-0.8685608,0.8281708,0.7046051
1633,A,694807326665086,-1.041687,-13.56189,0.9181061,0.04008484,-1.5560608,0.25546265
1633,A,694807346806688,-1.9303589,-15.538376,0.040634155,0.29309082,-3.5414734,0.20075989
1633,A,694807366948289,-2.33432,-18.61731,-0.16690063,-0.2441864,-1.8089447,0.11326599
1633,A,694807387089891,-2.4674683,-19.386353,-1.6239777,-0.6035614,0.49131775,-0.38659668
1633,A,694807407231492,-2.5759735,-18.602219,-2.4888,-0.07966614,1.368393,-0.64604187
1633,A,694807427373094,-3.3029938,-15.145874,-1.879303,0.5623779,1.7721863,-0.95336914
1633,A,694807447514696,-2.6865845,-12.380447,-1.2447052,1.1352234,1.2434845,-0.6520233
1633,A,694807467656297,-1.5682526,-10.367645,-1.1430664,1.2178345,1.4882813,-0.38963318
1633,A,694807487797899,0.39440918,-8.90744,-1.4980927,0.46020508,1.2994843,0.3126831
1633,A,694807507939500,3.8867798,-7.9767303,-2.5969849,-0.10430908,-0.025344849,0.7739868
1633,A,694807528081102,10.078445,-8.160751,-4.2010956,-0.20118713,-0.80766296,1.3282623
1633,A,694807548222703,14.108414,-8.55368,-4.0382385,-0.9479675,-0.46907043,1.2859802
1633,A,694807568364305,12.106689,-6.3047943,-1.256424,-1.1618805,-1.7310333,-0.16014099
1633,A,694807588505907,7.167984,-1.3414917,0.9500122,0.3678589,-2.6955414,-0.24656677
1633,A,694807608647508,0.09870911,-3.1358032,-0.6847229,1.0843658,0.56573486,-0.6460571
1633,A,694807628789110,-1.5450745,-5.9626617,-2.0941772,-0.890625,0.7619324,-0.8318329
1633,A,694807648930711,0.197052,-7.4723206,-4.5685425,-2.0789337,2.6614838,-0.43772888
1633,A,694807669072313,-1.653717,-7.859848,-8.205521,0.121154785,1.1335602,-0.34931946
1633,A,694807689213914,-1.5577545,-6.5426025,-2.7914734,-1.203949,1.3809509,0.63520813
1633,A,694807709355516,-1.2090912,-5.73172,-3.2973785,-0.26664734,-0.26579285,0.7019806
1633,A,694807729497117,-0.6761322,-5.855362,-5.3933563,1.3347778,-3.8146515,0.56333923
1633,A,694807749638719,-1.256134,-7.3409424,-5.2990417,-0.054367065,-4.268112,0.14680481
1633,A,694807769780321,-0.5352783,-9.180756,-5.435211,-0.54776,-0.50102234,0.113601685
1633,A,694807789921922,0.30207825,-11.784637,-4.144394,-0.29588318,0.87257385,-0.51446533
1633,A,694807810063524,-1.1963806,-15.435608,-2.5113373,-0.81243896,1.1932678,-1.1491699
1633,A,694807830205125,-3.3607025,-18.213715,-1.186264,-0.38511658,1.7467957,-0.99468994
1633,A,694807850346727,-2.2637787,-17.341858,-0.96876526,0.8429718,2.0470734,-0.7601776
1633,A,694807870488328,-0.18110657,-15.40538,-1.8258972,0.516098,2.0962372,-0.29841614
1633,A,694807890629930,2.0659332,-14.236359,-2.3724518,0.2731781,-0.80267334,0.43040466
1633,A,694807910771532,3.2164917,-13.025696,-3.1383514,0.8194885,-3.8444366,0.98573303
1633,A,694807930913133,2.496521,-12.097488,-1.9088287,1.2671509,-2.9082031,1.1093292
1633,A,694807951054735,2.5604095,-11.213181,-1.0418091,1.0489197,0.69799805,1.2058716
1633,A,694807971196336,2.567505,-10.53801,-0.1048584,-0.74768066,6.4207916,-0.08544922
1633,A,694807991337938,2.0019836,-10.188263,1.3701172,0.48789978,3.0783691,-0.18481445
1633,A,694808011479539,2.2421722,-9.85379,1.9217987,2.0404205,-0.6624298,-0.34970093
1633,A,694808031621141,2.9920044,-9.289856,0.9893341,0.054153442,-0.6075592,-0.7450104
1633,A,694808051762742,3.0983887,-8.215759,0.19674683,-2.2405243,1.0262451,-0.7907562
1633,A,694808071904344,2.391693,-6.8299866,0.3424225,-1.1046906,-2.0388336,-0.6487427
1633,A,694808092045946,1.487503,-5.7742157,0.8026886,-1.2761841,0.15385437,0.605423
1633,A,694808112187547,0.5115051,-5.2875366,0.95443726,0.37902832,-3.7316895,0.44828796
1633,A,694808132329149,-0.45285034,-5.1453247,0.69117737,0.22650146,-3.2481537,0.5768738
1633,A,694808152470750,-1.0571136,-5.25943,0.38752747,-0.5256958,-0.57580566,0.47685242
1633,A,694808172612352,-1.4720306,-6.092514,0.20594788,-0.69221497,-0.12792969,-0.10441589
1633,A,694808192753953,-2.0124817,-7.203064,0.42578125,-0.59198,-0.2294159,-0.33546448
1633,A,694808212895555,-1.6669159,-8.060623,1.7248688,-0.3191223,-1.030365,-0.8955231
1633,A,694808233037157,-0.6351929,-9.395782,2.4318848,-0.13887024,1.1952972,-0.9580078
1633,A,694808253178758,-0.8378906,-11.205414,1.344101,0.8130951,2.7962952,-0.57073975
1633,A,694808273320360,-1.3940887,-12.089554,0.02583313,1.5481415,2.8350372,-0.3623047
1633,A,694808293461961,-1.4990692,-12.291946,-0.34214783,0.77589417,1.9360504,0.4485321
