Subject-Id,Activity Label,Time stamp,Accel_x,Accel_y,Accel_z,Gyro_x,Gyro_y,Gyro_z
1636,A,504627630476589,-4.4714355,-11.006256,-0.3535614,0.18463135,-2.1725006,-0.25886536
1636,A,504627680830592,-5.207367,-12.732834,-1.6291351,0.81689453,-1.000885,0.07498169
1636,A,504627731184596,-5.8441772,-11.13501,-2.7333832,1.3835297,-0.85961914,0.5074463
1636,A,504627781538600,-7.3454742,-7.4039,-1.9699097,0.60354614,-1.4309692,0.5752106
1636,A,504627831892604,-8.717712,-5.7662964,0.025680542,-1.1289825,-1.4291992,0.5632782
1636,A,504627882246608,-7.236664,-5.9396973,2.6037903,-2.4318237,-1.594574,0.45118713
1636,A,504627932600612,-4.653946,-6.0005646,1.9219513,-2.383194,-1.2513123,-0.003616333
1636,A,504627982954616,-3.8564606,-6.3068237,-0.10736084,-0.9468231,-0.06437683,-0.71614075
1636,A,504628033308620,-3.6557617,-7.3203278,0.15776062,0.49395752,0.51675415,-0.7835388
1636,A,504628083662624,-2.9567566,-8.1289215,1.146347,0.72003174,0.86512756,-0.3690033
1636,A,504628134016628,-3.0748749,-10.271484,2.6192474,-0.14952087,1.3138428,0.22392273
1636,A,504628184370632,-2.8975983,-12.559189,1.394577,-0.22584534,0.784729,1.161087
1636,A,504628234724635,-3.539917,-13.433929,1.7006836,0.35560608,1.0618286,0.757782
1636,A,504628285078639,-4.1164093,-10.6809845,0.38182068,0.20085144,1.5169067,0.15583801
1636,A,504628335432643,-4.804901,-8.230194,-2.6104584,-0.3056183,1.2813416,0.13391113
1636,A,504628385786647,-5.62471,-7.6015015,-2.0209045,-0.117126465,1.0450897,0.17272949
1636,A,504628436140651,-5.0303497,-6.936371,-0.53681946,0.10255432,0.6520233,0.08358765
1636,A,504628486494655,-3.9971619,-6.3709564,-1.0676117,-0.1053772,-0.060821533,-0.09951782
1636,A,504628536848659,-4.222946,-6.489502,-0.78300476,0.18893433,-0.092315674,-0.473114
1636,A,504628587202663,-4.244705,-7.1358643,1.750061,0.62861633,-0.5513916,-0.32876587
1636,A,504628637556667,-3.922058,-8.853989,0.6006012,0.5823059,-2.1466675,0.027862549
1636,A,504628687910671,-4.4542694,-11.408005,-0.8318939,0.5815735,-1.7498627,-0.28123474
1636,A,504628738264675,-4.787689,-13.091614,-0.77282715,0.24476624,-0.8187103,0.11579895
1636,A,504628788618678,-5.387314,-11.023285,-2.2973633,1.2991638,-0.8170624,0.46012878
1636,A,504628838972682,-6.2383423,-6.2460938,-2.3096008,0.5117035,-1.2706757,0.5676727
1636,A,504628889326686,-9.929749,-5.392807,-1.2999725,-1.3986511,-1.3055267,0.6387024
1636,A,504628939680690,-8.044922,-5.5253296,0.41513062,-2.060196,-1.2248383,0.30744934
1636,A,504628990034694,-5.09169,-6.47995,2.480423,-1.8724213,-0.73350525,-0.2312622
1636,A,504629040388698,-3.7957,-5.7386475,-0.42304993,-0.785553,0.79704285,-0.98921204
1636,A,504629090742702,-3.2393494,-6.689865,0.12515259,0.35227966,0.2157898,-0.40576172
1636,A,504629141096706,-2.9769745,-8.451462,1.6925659,0.06225586,1.0251312,-0.23236084
1636,A,504629191450710,-2.5564423,-10.684647,1.5313721,-0.27867126,0.28761292,0.64338684
1636,A,504629241804714,-3.022873,-13.734085,0.9724121,0.22280884,-0.01473999,0.35279846
1636,A,504629292189410,-3.437729,-11.770981,1.223053,0.14576721,1.347702,0.019378662
1636,A,504629342543414,-3.9694061,-8.452698,-2.1764069,-0.56707764,0.71069336,0.034973145
1636,A,504629392897418,-6.9922943,-8.655762,-1.8101807,-0.90922546,0.106033325,0.22094727
1636,A,504629443251422,-5.9774017,-7.1997833,-0.6050415,-0.8488312,-0.07157898,0.27416992
1636,A,504629493605426,-4.743103,-6.7834167,-1.1557922,-0.15202332,-0.086364746,-0.021697998
1636,A,504629543959430,-4.2981873,-6.2083435,-0.36431885,0.6716461,0.3571167,0.11755371
1636,A,504629594313434,-4.4114075,-6.506485,0.2000122,0.78900146,0.34562683,0.022003174
1636,A,504629644667438,-3.4794006,-7.750351,0.34954834,0.63038635,-1.1052246,-0.12171936
1636,A,504629695021442,-3.9938354,-10.760254,0.39816284,0.5957947,-3.0761414,0.22102356
1636,A,504629745375446,-4.44812,-12.964325,-0.60964966,0.4619751,-2.144806,-0.15562439
1636,A,504629795729450,-4.602585,-13.036453,-2.5899048,-0.065200806,-0.7728424,0.49864197
1636,A,504629846083453,-4.981125,-8.632309,-1.4523315,-1.5803833,-1.1118774,0.72914124
1636,A,504629896437457,-6.806061,-4.79657,-1.4495087,0.067474365,-1.9109955,0.6514282
1636,A,504629946791461,-11.207321,-5.4796295,0.31010437,-1.5699158,-1.0587006,0.32772827
1636,A,504629997145465,-6.814331,-4.5108185,0.15660095,-2.0933838,0.62376404,-0.08961487
1636,A,504630047499469,-3.1428833,-5.685547,4.3224335,-0.47084045,0.27783203,-0.9861908
1636,A,504630097853473,-3.7340546,-6.719696,-0.2949829,0.5500183,-0.6539459,-1.5540771
1636,A,504630148207477,-3.257492,-8.441391,-0.5259247,0.56492615,0.5687866,-0.42836
1636,A,504630198561481,-2.7420654,-9.904587,1.557312,-0.2364502,1.1116333,-0.35832214
1636,A,504630248915485,-0.33268738,-11.929306,0.64175415,0.31356812,-0.4255829,0.5299072
1636,A,504630299269489,-3.4697723,-16.050247,3.1712494,0.9588165,0.23162842,2.073059
1636,A,504630349623493,-2.6902618,-11.50647,1.7238159,0.69078064,1.7790527,-0.3321228
1636,A,504630399977496,-3.5924683,-7.1467743,-1.9472351,0.103393555,1.3198395,-0.16343689
1636,A,504630450331500,-6.900467,-8.837219,-0.98890686,-0.40974426,0.62646484,0.04083252
1636,A,504630500685504,-5.695526,-7.4723053,0.49072266,-0.5667114,0.7418518,0.11279297
1636,A,504630551039508,-4.540909,-7.2497864,-0.6618042,-0.11024475,1.1282806,0.03692627
1636,A,504630601393512,-4.4046936,-6.3680573,-0.6130829,0.228302,1.273407,0.012817383
1636,A,504630651747516,-4.5417786,-6.7218475,-0.17756653,0.47250366,1.1743469,-0.09550476
1636,A,504630702101520,-4.056015,-8.184158,0.47457886,0.39839172,-1.0189056,-0.26509094
1636,A,504630752455524,-4.7798615,-11.157043,0.028076172,0.12426758,-3.265808,-0.32044983
1636,A,504630802809528,-5.1656494,-13.217194,-0.3867035,0.031433105,-2.493332,-0.075149536
1636,A,504630853163532,-5.101639,-11.602402,-2.3233948,-0.29608154,-0.57714844,0.22711182
1636,A,504630903517535,-4.8583374,-7.187683,-1.6846924,-0.71502686,-1.0285797,0.38380432
1636,A,504630953871539,-7.4299164,-6.5332184,-0.99217224,-0.44387817,-1.1322937,0.3611908
1636,A,504631004225543,-8.239746,-6.0914154,0.7738037,-0.80825806,0.3199768,0.0675354
1636,A,504631054579547,-5.275238,-5.0484314,0.6861572,-0.29492188,0.38806152,-0.5735016
1636,A,504631104933551,-3.8431091,-6.1593018,0.28382874,0.30296326,-0.58135986,-1.4115143
1636,A,504631155287555,-3.1154022,-7.7626038,0.4055481,0.38607788,0.50131226,-0.45028687
1636,A,504631205641559,-2.6294098,-9.215836,-0.17462158,-0.11616516,0.8913574,-0.22497559
1636,A,504631255995563,-1.3440704,-11.106262,-0.8544769,0.047668457,0.4109192,0.26019287
1636,A,504631306349567,0.107666016,-12.707886,1.2124329,0.8411102,1.187027,1.0925293
1636,A,504631356703571,-2.2575073,-12.939194,0.8850403,1.1333466,2.704956,0.99256897
1636,A,504631407057575,-2.9202576,-9.191544,-0.78782654,0.69291687,3.0733795,-0.0055236816
1636,A,504631457411578,-4.796463,-8.687744,-0.93292236,-0.28167725,2.3630219,-0.03741455
1636,A,504631507765582,-6.051193,-9.107864,-1.0611725,-1.0177612,1.3085632,0.08546448
1636,A,504631558119586,-4.099533,-7.0453796,-1.5308533,-0.37124634,0.45030212,0.08085632
1636,A,504631608473590,-4.285324,-6.192093,-2.616745,0.28056335,0.4225464,-0.07809448
1636,A,504631658827594,-4.3609314,-6.598236,-2.4936066,0.03263855,-0.31687927,-0.20776367
1636,A,504631709181598,-3.921524,-7.972061,3.2099457,0.48783875,-1.6290588,-0.09257507
1636,A,504631759535602,-3.6377869,-10.773422,7.539627,0.8223877,-2.6691284,-0.041152954
1636,A,504631809889606,-4.2779083,-12.506882,-2.1513062,0.44818115,-1.7564545,0.030563354
1636,A,504631860243610,-5.55011,-11.718338,-1.790741,0.015136719,-0.28164673,0.396286
1636,A,504631910597614,-6.592346,-8.300674,-2.0691223,0.7463684,-0.7149048,0.6045227
1636,A,504631960951618,-8.721359,-6.6302032,-2.096054,0.2662201,-1.2432861,0.95381165
1636,A,504632011305621,-8.515381,-5.5308228,-1.1234283,-2.317566,-1.6176605,0.7357483
1636,A,504632061659625,-4.6627045,-5.3947754,3.0920258,-2.4883118,-1.7554932,-0.03933716
1636,A,504632112013629,-2.9943237,-5.8686523,3.2442474,-0.76109314,-0.6037903,-0.39736938
1636,A,504632162367633,-2.8998413,-5.3359833,-1.0966492,0.4532013,0.22923279,-0.28677368
1636,A,504632212721637,-2.406128,-8.509857,1.0111389,0.33166504,0.73794556,0.073028564
1636,A,504632263075641,-2.7097778,-12.162659,2.293213,-0.028793335,0.38635254,0.7454071
1636,A,504632313429645,-3.2134552,-13.571854,1.810257,1.0317078,0.47433472,0.6247711
1636,A,504632363783649,-4.5233917,-12.523941,1.6771088,1.546875,3.0600586,0.10380554
1636,A,504632414137653,-6.285095,-8.550156,0.2210083,1.4334869,4.6961823,-0.054244995
1636,A,504632464491657,-6.3696136,-6.7747498,1.0309143,0.041168213,2.498703,-0.17488098
1636,A,504632514845660,-5.845932,-7.494278,1.5788727,-1.0258942,-0.6054535,0.1081543
1636,A,504632565199664,-4.078964,-7.4924927,-1.2709198,-0.20803833,-0.29995728,0.11767578
1636,A,504632615553668,-2.1352692,-6.246765,-4.1069794,-0.025131226,-0.09371948,-0.17092896
1636,A,504632665907672,-3.5872345,-6.645859,-3.109604,-0.2339325,-0.9300842,-0.39126587
1636,A,504632716261676,-5.8883667,-7.261734,2.5558624,0.43260193,-1.5398712,-0.43281555
1636,A,504632766615680,-5.718048,-10.4171295,2.1163635,0.6221771,-1.2561188,-0.6066437
1636,A,504632816969684,-5.3719788,-13.410538,-0.56689453,0.9273224,0.022720337,-0.39213562
1636,A,504632867323688,-5.6831512,-11.8046875,-1.822876,1.5104218,0.05407715,-0.09474182
1636,A,504632917677692,-7.68219,-7.592804,-1.1956635,1.3931122,-0.13935852,-0.31495667
1636,A,504632968031696,-11.386215,-5.9512024,1.0058441,0.71247864,-0.057495117,-0.13986206
1636,A,504633018385700,-8.356903,-6.2602386,0.53707886,-0.3126068,0.43188477,0.29847717
1636,A,504633068739703,-4.5573425,-6.771576,2.0279236,-0.64308167,0.16616821,-0.12594604
1636,A,504633119093707,-3.0594482,-6.9839783,0.3360443,0.18217468,-0.043029785,-0.3876648
1636,A,504633169447711,-3.4293518,-4.5017548,0.30555725,-0.042495728,0.28105164,0.012969971
1636,A,504633219801715,-1.4651184,-5.332596,3.0202484,-0.7923126,-0.081604004,0.09385681
1636,A,504633270155719,-3.3608093,-10.653,4.5294495,0.020690918,0.52197266,-0.32859802
1636,A,504633320509723,-5.6095886,-10.629135,2.3326416,0.78208923,0.15097046,-0.3314972
1636,A,504633370863727,-8.225632,-10.120483,1.7268982,0.25627136,-0.9942932,-0.30360413
1636,A,504633421217731,-4.2333374,-7.7601166,1.4686279,-0.33244324,-0.5851288,-0.50787354
1636,A,504633471571735,-2.8285675,-8.6445465,3.056839,-0.27989197,-0.15193176,-0.7944031
1636,A,504633521925739,-4.13414,-7.802246,-0.31184387,-0.9118042,0.025604248,-0.97257996
1636,A,504633572279743,-3.2477264,-6.6889954,0.72750854,-1.5707855,1.0998077,-1.1149597
1636,A,504633622633746,-2.8175201,-7.2122955,1.008255,-1.1772156,2.7154083,-0.9379425
1636,A,504633672987750,-3.045288,-8.313324,-0.15681458,-1.3229675,2.320694,0.05444336
1636,A,504633723341754,-3.19664,-9.377304,-0.56018066,-0.9341278,1.3656464,0.18959045
1636,A,504633773695758,-3.9536285,-10.682449,-0.8637085,-0.32211304,0.13908386,0.06556702
1636,A,504633824049762,-3.3966522,-12.719589,0.5770416,-0.06765747,-1.2696228,0.57432556
1636,A,504633874403766,-5.4534607,-14.030228,0.0206604,0.34339905,-0.4328308,0.41577148
1636,A,504633924757770,-9.346924,-7.6133423,5.3855743,0.8914795,-0.27593994,0.3404541
1636,A,504633975111774,-3.6895905,-9.901871,-1.2293854,0.5572357,-0.34448242,0.14819336
1636,A,504634025465778,-2.3770752,-8.662155,-1.9689178,0.5286102,-0.5027771,-0.0809021
1636,A,504634075819782,-1.5009003,-7.3693695,0.28399658,0.29096985,-0.6530304,0.021392822
1636,A,504634126173785,-1.6798401,-6.1483,-1.3328094,0.85054016,-0.10650635,0.05126953
1636,A,504634176527789,-1.955307,-7.0114594,0.84558105,-0.5383301,-0.2761383,0.4536438
1636,A,504634226881793,-2.6009521,-8.261948,3.0878296,-0.13354492,0.021224976,0.03189087
1636,A,504634277235797,-1.638977,-11.053177,0.23423767,-0.44384766,0.93440247,0.5219116
1636,A,504634327589801,-5.1947327,-14.09346,2.7682953,-0.13821411,0.9894104,-0.01889038
1636,A,504634377943805,-6.261612,-12.781662,-2.3064575,-0.980896,0.25289917,0.06736755
1636,A,504634428297809,-2.5175934,-6.803116,-2.9483795,-0.7254791,0.6142578,0.07269287
1636,A,504634478651813,-3.908905,-9.067642,0.71958923,-0.58392334,0.4961548,0.21269226
1636,A,504634529005817,-3.998169,-8.630615,-2.746704,0.07962036,0.31474304,0.03074646
1636,A,504634579359821,-2.563095,-6.224228,-0.26602173,0.8637085,-0.30245972,0.077697754
1636,A,504634629713825,-2.5759583,-7.3301086,-1.043747,-0.16416931,-0.42836,-0.16375732
1636,A,504634680067828,-2.6233673,-7.8310394,-1.086441,0.13214111,-0.30187988,-0.0332489
1636,A,504634730421832,-2.5868988,-9.462799,0.6471405,-0.5867615,-0.17085266,-0.25358582
1636,A,504634780775836,-2.7877808,-12.398483,0.018661499,-0.123184204,-0.8053436,0.29985046
1636,A,504634831129840,-3.9685822,-14.329361,-5.212845,0.5081024,-0.68258667,0.5428772
1636,A,504634881483844,-9.478653,-9.180008,0.7236023,0.42707825,-0.3569641,0.11917114
1636,A,504634931837848,-7.5465393,-7.739044,-2.959137,-0.12837219,-0.30996704,-0.008102417
1636,A,504634982191852,-3.0239258,-10.937912,0.5951843,0.33810425,-0.10423279,-0.101989746
1636,A,504635032545856,-2.7623444,-5.431488,0.22477722,0.21183777,-0.15625,0.08262634
1636,A,504635082899860,-2.032196,-5.6902313,-0.36351013,0.11529541,0.11804199,0.07359314
1636,A,504635133253864,0.007080078,-5.5378723,0.49900818,-0.7022705,-0.20036316,0.33042908
1636,A,504635183607868,-3.4922485,-7.6941986,0.8768158,-0.41526794,0.07473755,-0.016998291
1636,A,504635233961871,-3.648941,-11.022446,-0.5230408,0.26626587,0.7131195,-0.05168152
1636,A,504635284315875,-5.221451,-14.063858,2.970047,-0.24479675,0.27923584,-0.16860962
1636,A,504635334669879,-9.912964,-12.612869,-3.4178467,-1.0114594,-0.2649994,-0.39694214
1636,A,504635385023883,-1.9801483,-5.407852,-3.1974487,-0.7670593,-0.23927307,0.012710571
1636,A,504635435377887,-3.7381897,-7.3789215,-2.7541046,-0.1806488,0.16667175,0.23121643
1636,A,504635485731891,-3.0720673,-6.550461,0.56781006,0.18356323,0.1458435,0.18583679
1636,A,504635536085895,-2.974945,-6.2964783,0.28153992,0.4236145,-4.7302246E-4,0.11894226
1636,A,504635586439899,-3.3373108,-7.3507233,-1.701828,-0.04031372,-0.60139465,0.07778931
1636,A,504635636793903,-2.7954712,-9.25737,-1.5489349,-0.008636475,-0.12261963,-0.20108032
1636,A,504635687147907,-2.9323883,-10.359207,-0.93611145,0.1574707,0.41812134,-0.28167725
1636,A,504635737501910,-4.622162,-11.231415,0.013916016,-0.17288208,-0.22677612,0.047943115
1636,A,504635787855914,-4.9813232,-11.838959,-2.2335205,0.2607727,-0.099853516,0.26678467
1636,A,504635838209918,-6.7561493,-10.180542,-3.0295105,0.44392395,0.23405457,0.08929443
1636,A,504635888563922,-7.572876,-9.139252,-2.014389,0.20681763,0.07946777,-0.010787964
1636,A,504635938917926,-5.2115936,-8.41568,-2.1567993,0.17066956,0.063827515,-0.0635376
1636,A,504635989271930,-3.4960785,-7.2228546,-0.2884369,0.21183777,0.019104004,0.016418457
1636,A,504636039625934,-2.4888306,-6.1128235,-0.16221619,0.2815094,0.06843567,0.022384644
1636,A,504636089979938,-2.728775,-6.1403046,0.14826965,-0.21347046,-0.108932495,0.067855835
1636,A,504636140333942,-3.5517578,-6.6226807,0.8158722,-0.6031647,-0.40071106,0.13305664
1636,A,504636190687946,-3.8218842,-9.107956,0.26913452,-0.045028687,0.17445374,0.1328888
1636,A,504636241041950,-4.644577,-12.416931,0.56469727,0.022338867,0.4105835,0.17466736
1636,A,504636291395953,-6.779831,-12.483749,0.107559204,0.11212158,0.2579651,-0.15101624
1636,A,504636341749957,-5.372223,-7.1909027,-1.3191833,-0.41963196,0.2194519,-0.1609497
1636,A,504636392103961,-4.3964233,-7.2866364,-0.6362457,-0.39637756,0.07022095,-0.012176514
1636,A,504636442457965,-5.9835815,-9.546555,-2.9812164,-0.19841003,0.025527954,0.10144043
1636,A,504636492811969,-3.4353638,-6.7498474,-2.0658264,-0.024536133,-0.074035645,0.015975952
1636,A,504636543165973,-2.0168915,-7.024765,-1.0231781,-0.0017242432,-0.45204163,-0.08894348
1636,A,504636593519977,-2.5773468,-7.0321198,-1.2527924,-0.045410156,-0.6016693,-0.24882507
1636,A,504636643873981,-3.354782,-7.5249176,-0.27172852,0.15802002,-0.25987244,-0.33996582
1636,A,504636694227985,-3.411621,-9.582993,0.37036133,-0.0592041,-0.318985,-0.31082153
1636,A,504636744581989,-3.729889,-12.176132,-2.1016083,0.061050415,-0.8976593,0.09068298
1636,A,504636794935993,-6.083206,-10.95578,-3.5090637,0.54385376,-0.6216736,0.2210083
1636,A,504636845289996,-8.21225,-9.811279,-2.710968,0.47340393,-0.22547913,0.08015442
1636,A,504636895644000,-6.378128,-9.364059,-2.5743713,0.44937134,-0.05441284,-0.040786743
1636,A,504636945998004,-4.0848846,-7.735779,-1.0913391,0.49389648,-0.15209961,0.0071868896
1636,A,504636996352008,-2.859024,-7.2596436,-0.12825012,0.13362122,-0.092315674,-0.04574585
1636,A,504637046706012,-2.6794434,-5.9898376,0.22845459,-0.038726807,-0.081329346,-0.016525269
1636,A,504637097060016,-3.0941162,-5.7947845,1.2010498,-0.28170776,0.061035156,-0.112350464
1636,A,504637147414020,-3.305542,-8.647873,0.9833679,-0.5729675,1.1096039,-0.3289032
1636,A,504637197768024,-3.1453094,-11.835617,2.5164032,-0.6033478,0.7195587,0.063186646
1636,A,504637248122028,-7.810669,-15.256943,0.02935791,0.15769958,0.66444397,0.09475708
1636,A,504637298476032,-5.2448273,-9.755905,-1.9815521,-0.07647705,0.75097656,-0.38182068
1636,A,504637348830035,-2.566513,-6.3087616,-3.594986,-0.85972595,-0.040878296,-0.4513092
1636,A,504637399184039,-6.0845337,-10.080017,-1.0260162,-0.4001007,0.74217224,0.2267456
1636,A,504637449538043,-5.0885925,-8.805664,-0.6003113,0.6526489,0.72810364,0.73490906
1636,A,504637499892047,-2.855606,-7.6790314,-0.18292236,0.34909058,0.024871826,0.25694275
1636,A,504637550246051,-2.6941986,-7.118683,0.07650757,-0.4456787,-0.071517944,-0.29377747
1636,A,504637600600055,-4.302948,-9.616745,-2.3118286,0.3670807,-0.04585266,0.0054779053
1636,A,504637650954059,-4.5464325,-9.275558,-0.59690857,-0.21339417,0.14390564,0.10574341
1636,A,504637701308063,-3.2228394,-11.325287,0.28800964,0.32873535,-0.42892456,0.3080597
1636,A,504637751662067,-4.27977,-12.17038,-4.434845,0.45812988,-0.036956787,0.0617218
1636,A,504637802016071,-8.800232,-9.196274,-4.092972,0.31552124,0.24932861,-0.093444824
1636,A,504637852370075,-7.025528,-10.233536,-2.4345703,0.5268097,-0.05506897,0.11854553
1636,A,504637902724078,-3.5053253,-8.984161,0.6072235,0.7404938,-0.5288696,0.28231812
1636,A,504637953078082,-1.5288544,-7.3124847,-0.36799622,0.21078491,-0.06034851,0.09613037
1636,A,504638003432086,-2.8688354,-6.2837524,0.61387634,0.1590271,-0.27783203,-0.0025177002
1636,A,504638053786090,-4.576187,-5.4332275,1.6086731,0.2316742,-0.43341064,0.44917297
1636,A,504638104140094,-4.3223724,-8.288101,0.95965576,0.5667267,0.8666382,-0.1836853
1636,A,504638154494098,-3.2286072,-12.985489,2.01828,0.102127075,1.7153473,-0.06581116
1636,A,504638204848102,-9.288559,-13.9110565,-2.9134674,-0.31025696,0.5917511,-0.6026764
1636,A,504638255202106,-4.329773,-6.581436,-2.9649048,-1.0019531,0.042999268,-0.40942383
1636,A,504638305556110,-0.21020508,-8.121033,-2.6034393,-0.61364746,0.028121948,0.019378662
1636,A,504638355910114,-6.8743134,-10.192062,-2.2677155,-0.6777649,0.24919128,0.18881226
1636,A,504638406264118,-4.600601,-6.0134583,-2.3985443,-0.41461182,0.037841797,0.11819458
1636,A,504638456618121,-3.1096191,-6.549164,-0.7212982,0.2194519,-0.17680359,-0.07421875
1636,A,504638506972125,-2.8912964,-6.984024,0.55210876,-0.12931824,0.63349915,-0.3122406
1636,A,504638557326129,-3.4029236,-7.403366,-1.0163116,0.51704407,-0.886734,-0.5763397
1636,A,504638607680133,-2.8580933,-10.20256,0.3369751,-0.0052337646,0.15258789,-0.10832214
1636,A,504638658034137,-2.5272217,-13.614731,1.17659,0.39709473,-1.2415619,0.5231476
1636,A,504638708388141,-4.7518463,-13.143539,-6.7588654,0.7516632,0.052474976,0.45587158
1636,A,504638758742145,-10.217773,-6.638504,-3.00737,0.5004883,0.29364014,0.23829651
1636,A,504638809096149,-9.198517,-11.3732605,-1.9751587,0.33232117,-0.21917725,0.41539
1636,A,504638859450153,-1.5763702,-12.254562,-1.509018,0.56178284,-0.33766174,0.09056091
1636,A,504638909804157,-1.8768768,-6.0995483,-1.1813812,-0.02027893,-0.28579712,-0.027191162
1636,A,504638960158160,-2.6459503,-4.478592,-1.2273254,-0.11300659,-0.3511963,-0.07499695
1636,A,504639010512164,-4.0489807,-5.6950226,1.2492523,-0.1295929,-0.7354584,-0.07872009
1636,A,504639060866168,-3.8527222,-6.534836,0.3791809,-0.098602295,-0.2400055,0.4855957
1636,A,504639111220172,-5.342453,-11.463303,0.4077301,0.20166016,1.1577148,-0.23484802
1636,A,504639161574176,-3.2718658,-11.689285,4.3769836,-0.51075745,0.9143677,-0.09030151
1636,A,504639211928180,-9.066116,-12.784927,-3.0115814,-0.9044342,0.573822,-0.37174988
1636,A,504639262267813,-1.784729,-5.996216,-1.6687927,-0.7072296,0.23930359,-0.38049316
1636,A,504639312621817,-0.9578705,-8.842636,-3.6034698,-0.5686035,0.1461792,0.013839722
1636,A,504639362975821,-7.9472656,-8.12439,0.41967773,-0.47636414,0.39796448,0.283432
1636,A,504639413329825,-4.017578,-5.6467743,-0.17018127,-0.07070923,0.10548401,0.07115173
1636,A,504639463683829,-2.2690125,-7.1142883,-0.30537415,0.07646179,0.0012512207,-0.099349976
1636,A,504639514037832,-3.2457123,-7.2508698,-0.62745667,0.07550049,0.083740234,-0.24084473
1636,A,504639564391836,-3.5294495,-8.181839,0.075531006,0.3668518,-0.7171173,-0.5136566
1636,A,504639614745840,-3.094925,-11.252579,0.04446411,-0.23751831,-0.4918518,0.04737854
1636,A,504639665099844,-4.433243,-12.751785,-0.91070557,0.23612976,-1.1025848,0.5193176
1636,A,504639715453848,-5.627762,-10.892899,-5.8681793,0.6238098,-0.34628296,0.30114746
1636,A,504639765807852,-9.351257,-6.438736,-4.3888397,0.6961365,-0.094833374,0.22529602
1636,A,504639816161856,-7.1976166,-8.866653,-1.7203827,0.20353699,0.0073547363,0.27423096
1636,A,504639866515860,-2.6515045,-12.030594,-0.20298767,0.3922882,-0.18943787,-0.061309814
1636,A,504639916869864,-2.399643,-6.2161713,-0.81585693,0.45707703,-0.1877594,-0.13110352
1636,A,504639967223868,-2.321869,-5.2695313,-0.031921387,0.057891846,-0.0798645,0.0043640137
1636,A,504640017577872,-3.0574036,-5.5337524,0.653183,-0.1699524,-0.7114868,0.20404053
1636,A,504640067931875,-3.794281,-7.6571198,1.5167084,0.0463562,-0.005935669,0.19267273
1636,A,504640118285879,-4.572998,-10.364136,1.6412811,0.21704102,0.93881226,-0.3221283
1636,A,504640168639883,-6.9377136,-13.14183,1.9880219,-0.4038391,0.7261505,-0.3980255
1636,A,504640218993887,-9.311951,-11.511856,-3.1530151,-0.87223816,0.27394104,-0.70158386
1636,A,504640269347891,-1.9222717,-7.083969,-2.9341278,-0.6945343,0.13713074,-0.4573822
1636,A,504640319701895,-3.3889923,-8.809387,-1.186966,-0.517807,0.20555115,0.019088745
1636,A,504640370055899,-6.0639954,-7.0835724,-0.68167114,-0.45803833,0.27908325,0.19354248
1636,A,504640420409903,-3.923172,-6.406662,-1.5053864,-0.12878418,-0.090164185,0.100234985
1636,A,504640470763907,-3.4327698,-7.912857,0.039627075,0.010528564,0.020141602,-0.07055664
1636,A,504640521117911,-3.630844,-7.327057,-0.24716187,0.123794556,0.17140198,-0.37756348
1636,A,504640571471914,-3.4559937,-9.066971,0.40029907,0.1438446,-0.25935364,-0.45199585
1636,A,504640621825918,-3.0096436,-11.324051,1.2560425,0.39926147,-0.8539429,-0.0137786865
1636,A,504640672179922,-3.2872162,-11.78595,-1.4309235,0.9658203,-0.85739136,0.4047699
1636,A,504640722533926,-6.1033783,-10.1949005,-5.644058,0.9697876,-0.053482056,0.44458008
1636,A,504640772887930,-10.672256,-9.074646,-3.3039398,0.53933716,0.3038025,0.39335632
1636,A,504640823241934,-6.37352,-10.804321,-0.1720581,0.20620728,0.24894714,0.22198486
1636,A,504640873595938,-1.7470093,-10.46257,0.122558594,0.23857117,0.13174438,0.07443237
1636,A,504640923949942,-2.4052734,-5.5082703,-0.35331726,0.11656189,0.13182068,0.10696411
1636,A,504640974303946,-2.2418518,-4.5324554,0.07223511,-0.18852234,-0.2816162,0.06713867
1636,A,504641024657950,-2.9683685,-6.187744,1.0100098,-0.193573,-0.6517792,0.31362915
1636,A,504641075011954,-4.846237,-8.856796,0.8236847,0.18780518,0.27322388,0.09120178
1636,A,504641125365957,-4.913727,-11.150467,2.3001862,-0.12049866,0.7773285,-0.27357483
1636,A,504641175719961,-8.59079,-13.119843,-0.008590698,-0.83929443,0.3960266,-0.38388062
1636,A,504641226073965,-6.814438,-9.947403,-3.1525574,-0.93566895,0.34170532,-0.4834442
1636,A,504641276427969,-1.1174469,-7.455429,-3.3919983,-0.70884705,0.09761047,-0.32058716
1636,A,504641326781973,-5.186981,-8.128677,-0.8291168,-0.65989685,0.117370605,0.117492676
1636,A,504641377135977,-6.4296265,-6.3507843,0.11747742,-0.41792297,0.05882263,0.2617798
1636,A,504641427489981,-3.192398,-6.1439667,-1.9132843,-0.037002563,-0.16201782,0.0052490234
1636,A,504641477843985,-2.873001,-7.776596,-1.090332,-0.016784668,0.11558533,-0.17314148
1636,A,504641528197989,-3.7670135,-7.892166,-0.6302948,0.35588074,0.19877625,-0.5510559
1636,A,504641578551993,-3.2745514,-8.99324,-0.38710022,0.27687073,-0.6478119,-0.5326538
1636,A,504641628905997,-3.4915924,-11.961685,0.47032166,0.4912567,-1.1514587,0.19036865
1636,A,504641679260000,-3.792389,-12.463898,-3.161087,0.85980225,-0.44522095,0.46398926
1636,A,504641729614004,-7.0205536,-8.170456,-4.854294,1.2327423,0.15834045,0.22659302
1636,A,504641779968008,-10.4739685,-7.449478,-3.0894623,0.6352234,0.3214264,0.32077026
1636,A,504641830322012,-4.2232666,-12.715668,1.0049133,0.28852844,0.21228027,0.04273987
1636,A,504641880676016,-1.9081421,-9.227814,0.24002075,0.34690857,-0.14741516,-0.07914734
1636,A,504641931030020,-2.5260162,-5.3632507,-0.4694519,0.0806427,0.15429688,0.12719727
1636,A,504641981384024,-2.9946747,-5.2935333,-0.044769287,0.04359436,-0.5475006,0.021072388
1636,A,504642031738028,-3.126007,-5.977066,1.0031433,-0.23513794,-0.71972656,0.43295288
1636,A,504642082092032,-5.0967865,-9.172195,1.2787781,0.041671753,0.120407104,0.014755249
1636,A,504642132446036,-5.2499847,-11.949448,3.5523071,0.09526062,1.1864929,-0.038330078
1636,A,504642182800039,-7.8910217,-12.426102,-2.0731049,-0.7415619,0.11817932,-0.48928833
1636,A,504642233154043,-5.55072,-8.346985,-1.3856354,-1.134613,-0.15098572,-0.7145996
1636,A,504642283508047,-1.4064331,-7.226166,-2.9050903,-0.661026,0.0071105957,-0.2675171
1636,A,504642333862051,-5.0925293,-9.279419,-1.3215332,-0.6214905,0.4371643,0.17285156
1636,A,504642384216055,-5.028122,-5.862152,-1.3322906,-0.3018036,0.14904785,0.21463013
1636,A,504642434570059,-3.0538483,-7.068634,0.8588104,0.029327393,-0.057891846,-0.00680542
1636,A,504642484924063,-2.5540009,-8.150055,0.1612854,-0.019302368,0.44587708,-0.07609558
1636,A,504642535278067,-3.625229,-8.39679,-0.5309448,0.48599243,0.3639984,-0.47042847
1636,A,504642585632071,-2.7900085,-9.4114685,0.92037964,0.42430115,-1.071701,-0.23091125
1636,A,504642635986075,-3.194687,-12.407562,1.5072632,0.26474,-0.80992126,0.36764526
1636,A,504642686340079,-3.3076935,-12.408646,-3.479248,0.78471375,-0.5259552,0.47833252
1636,A,504642736694082,-6.4565125,-8.202805,-4.330353,1.2431488,0.031784058,0.15467834
1636,A,504642787048086,-12.178619,-7.2723236,-2.6352997,0.4045105,0.19717407,0.38201904
1636,A,504642837402090,-3.93956,-12.040649,1.8745117,0.036972046,0.014877319,0.17007446
1636,A,504642887756094,-2.352539,-7.6605988,-0.6151123,0.26512146,-0.37791443,-0.15538025
1636,A,504642938110098,-1.8716431,-5.008621,-0.56033325,-0.17926025,0.011367798,0.0766449
1636,A,504642988464102,-3.3459473,-4.8494263,-0.050598145,0.10897827,-0.47755432,-0.076049805
1636,A,504643038818106,-3.5658264,-5.785202,1.3832397,-0.3179474,-0.65644836,0.80433655
1636,A,504643089172110,-5.588135,-9.979141,3.510315,0.33058167,0.21450806,-0.1772461
1636,A,504643139526114,-4.985199,-12.225098,3.853424,-0.46925354,1.5780945,-0.2696991
1636,A,504643189880118,-7.2445526,-12.040894,-2.4454346,-0.43499756,0.047805786,-0.39691162
1636,A,504643240234122,-5.4670258,-8.110535,-0.06793213,-1.0913391,0.64151,-0.6272278
1636,A,504643290588125,1.3597412,-7.4481964,-2.5697174,-0.6201172,0.13212585,-0.09555054
1636,A,504643340942129,-7.498932,-9.317368,-0.15071106,-0.6091461,0.44995117,0.31124878
1636,A,504643391296133,-5.000122,-5.023163,-0.41493225,-0.4620514,0.12754822,0.412735
1636,A,504643441650137,-2.304596,-7.4567413,0.056152344,-0.124313354,-0.10064697,0.033554077
1636,A,504643492004141,-3.14151,-7.5348206,-0.29776,0.086746216,0.10206604,-0.18363953
1636,A,504643542358145,-3.7283325,-7.9027863,-0.8052521,0.40438843,0.26287842,-0.6369324
1636,A,504643592712149,-3.2003784,-9.397202,1.0849457,0.776886,-1.0518951,-0.5490875
1636,A,504643643066153,-3.7633972,-12.9891815,0.52085876,-0.16479492,-0.20230103,0.26583862
1636,A,504643693420157,-3.126236,-10.8185425,-2.9412384,1.15094,-0.40422058,0.3777008
1636,A,504643743774161,-5.680176,-7.6539764,-4.7767487,1.2932587,-0.07685852,0.12712097
1636,A,504643794128164,-10.905685,-7.1030884,-3.3727417,0.6685791,0.27433777,0.25331116
1636,A,504643844482168,-3.5989685,-10.937134,-0.71546936,0.6388092,0.23916626,-0.013900757
1636,A,504643894836172,-2.8322296,-8.939896,-1.3271179,0.36169434,-0.04206848,-0.07366943
1636,A,504643945190176,-2.800064,-5.143524,0.14195251,0.33657837,0.3564148,0.043060303
1636,A,504643995544180,-3.1378174,-6.8335266,0.7727814,0.4264984,0.0084991455,-0.015701294
1636,A,504644045898184,-3.1341705,-6.2638702,0.72380066,-0.19857788,0.141922,0.3083191
1636,A,504644096252188,-4.7163544,-9.403778,2.5065308,-0.041656494,0.33457947,0.15162659
1636,A,504644146606192,-4.387497,-13.068207,2.84375,-0.45796204,1.0298462,-0.15826416
1636,A,504644196960196,-7.0640564,-12.520111,-0.32754517,-0.947052,0.08895874,-0.6145477
1636,A,504644247314200,-4.6889496,-6.9436646,-0.6776581,-1.0127411,0.07846069,-0.49775696
1636,A,504644297668204,-2.3148956,-7.2466736,-3.567459,-0.3972931,0.46702576,-0.17216492
1636,A,504644348022207,-3.9228668,-9.771957,1.2202454,-0.52008057,0.39863586,0.14129639
1636,A,504644398376211,-3.8411407,-6.5543823,0.10618591,-0.51493835,0.15835571,0.23277283
1636,A,504644448730215,-2.92099,-7.5690765,0.058425903,-0.32382202,-0.09135437,-0.006286621
1636,A,504644499084219,-3.919098,-7.820099,-0.07720947,0.08389282,-0.10133362,-0.288208
1636,A,504644549438223,-3.390915,-8.219467,0.032958984,0.37986755,-0.43466187,-0.4326477
1636,A,504644599792227,-3.251297,-9.570511,1.229538,0.21002197,-0.97828674,-0.004776001
1636,A,504644650146231,-3.2394867,-12.514603,0.7301178,0.2079773,-0.35629272,0.29145813
1636,A,504644700500235,-3.3918304,-11.428665,-2.599823,0.978775,-0.5626831,0.42097473
1636,A,504644750854239,-7.819565,-9.545334,-3.733139,0.7613983,-0.18255615,0.3947296
1636,A,504644801208243,-10.046951,-8.079987,-2.0078278,0.2763214,0.062026978,0.31640625
1636,A,504644851562247,-4.707321,-9.546341,-1.3088989,0.030853271,-0.2434082,0.11228943
1636,A,504644901916250,-2.7790375,-8.804733,-0.45333862,0.21177673,-0.21914673,0.023757935
1636,A,504644952270254,-2.4871826,-5.008072,0.093185425,0.34803772,-0.1599884,-0.027267456
1636,A,504645002624258,-2.84552,-5.0431824,0.21138,-0.24813843,-0.6930237,0.20796204
1636,A,504645052978262,-3.6192017,-7.0257263,2.2967987,-0.5033417,-0.99201965,0.60180664
1636,A,504645103332266,-4.599762,-10.49823,2.6807404,-0.17141724,0.1487732,0.19950867
1636,A,504645153686270,-5.2598114,-11.465652,2.7097778,-0.48362732,0.7779236,-0.20101929
1636,A,504645204040274,-9.158173,-11.230118,1.9511414,-1.2037048,0.029525757,-0.45013428
1636,A,504645254394278,-6.9714813,-9.554642,-3.6048126,-1.3453827,0.356781,-0.3867035
1636,A,504645304748282,-1.3432465,-9.310547,-3.1429443,-0.77490234,0.22544861,-0.05130005
1636,A,504645355102286,-4.5724487,-9.318817,-0.0059814453,-0.61209106,0.120773315,0.36169434
1636,A,504645405456289,-3.9571533,-6.11145,0.61250305,-0.31951904,0.13421631,0.33821106
1636,A,504645455810293,-2.8828888,-6.2328796,-0.055908203,-0.0013580322,-0.011413574,0.064590454
1636,A,504645506164297,-3.486023,-7.1618347,-0.29562378,0.12667847,0.2526703,-0.2252655
1636,A,504645556518301,-3.0226898,-8.208923,-0.005340576,0.76535034,0.03617859,-0.5995636
1636,A,504645606872305,-3.2492218,-10.831268,0.5345459,0.24095154,-0.11701965,-0.24433899
1636,A,504645657226309,-3.6898956,-12.698944,0.15509033,0.3735199,-0.61154175,0.3222351
1636,A,504645707580313,-3.7679749,-11.3003235,-2.9697113,1.2248535,-0.43203735,0.1971283
1636,A,504645757934317,-8.796539,-8.305923,-4.6649933,1.0780029,0.14685059,0.17233276
1636,A,504645808288321,-8.735504,-8.168411,-2.3381042,0.5255432,0.38809204,0.3062439
1636,A,504645858642325,-3.0896149,-10.630005,0.12536621,0.33415222,-0.0129852295,0.08081055
1636,A,504645908996329,-2.0792236,-7.778778,-0.06738281,0.2480774,-0.039031982,0.08944702
1636,A,504645959350332,-2.507019,-5.4288635,-0.015625,0.08505249,-0.1581726,-0.11303711
1636,A,504646009704336,-2.7144775,-5.130188,0.4589386,-0.394989,-0.34646606,0.28346252
1636,A,504646060058340,-4.0637207,-6.940048,1.2486115,-0.05809021,-0.53608704,0.37431335
1636,A,504646110412344,-4.343292,-11.253525,3.1869354,-0.19711304,0.9288635,-0.10441589
1636,A,504646160766348,-4.818924,-12.670822,5.460861,-0.617218,0.4920807,-0.19537354
1636,A,504646211120352,-10.885468,-13.42749,1.7976074,-1.1742249,0.34051514,-0.53790283
1636,A,504646261474356,-4.7267456,-7.6644745,-2.3383636,-0.76820374,0.27244568,-0.5582733
1636,A,504646311828360,-2.7220001,-8.011612,-4.1499786,-0.50953674,0.2615509,-0.13198853
1636,A,504646362182364,-5.9805603,-6.6028595,-0.36535645,-0.56703186,0.35498047,0.21990967
1636,A,504646412536368,-3.8699493,-5.9046326,-0.08128357,-0.23570251,0.10809326,0.033447266
1636,A,504646462890372,-3.4060974,-7.944153,-0.91963196,-0.0082092285,-0.18890381,-0.13044739
1636,A,504646513244375,-3.0439606,-7.7794647,-0.22013855,-0.09666443,0.48188782,-0.18673706
1636,A,504646563598379,-3.0740051,-8.517746,0.098983765,0.6717682,-0.052749634,-0.54985046
1636,A,504646613952383,-3.5836182,-11.338806,0.26594543,0.21987915,-0.2206726,-0.42190552
1636,A,504646664306387,-2.7247467,-12.274261,1.3679352,0.9034424,-1.1938477,0.23660278
1636,A,504646714660391,-2.5009766,-11.118271,-3.9998627,1.3166656,-0.8365021,0.41566467
1636,A,504646765014395,-9.784256,-9.704758,-3.6777344,0.78619385,0.12684631,0.28089905
1636,A,504646815368399,-9.625839,-8.36972,-2.9336243,0.4343567,0.206604,0.4116974
1636,A,504646865722403,-2.3200684,-12.834549,-0.3021698,0.26358032,-0.17533875,0.09855652
1636,A,504646916076407,-2.7088013,-6.642563,-0.013595581,0.40753174,0.17077637,0.02835083
1636,A,504646966430411,-2.2286377,-4.9443054,-0.17843628,0.11657715,-0.011276245,-0.14898682
1636,A,504647016784414,-2.971878,-5.0911713,0.14590454,-0.4608307,-0.26893616,0.4287262
1636,A,504647067138418,-2.954956,-7.163086,2.1131287,-0.0071105957,-0.8559265,0.48883057
1636,A,504647117492422,-5.5700684,-12.320129,1.2629242,-0.23699951,1.3372803,-0.04508972
1636,A,504647167846426,-4.3397827,-10.675888,5.6704254,-0.6210327,0.40063477,-0.2854309
1636,A,504647218200430,-11.8967285,-13.589325,0.34957886,-1.2448425,0.34835815,-0.41638184
1636,A,504647268554434,-0.8932953,-7.3291016,-2.279007,-1.0993805,0.773407,-0.30145264
1636,A,504647318908438,-2.3408508,-10.603683,-4.7251587,-0.6705475,-0.19943237,0.05026245
1636,A,504647369262442,-8.030411,-7.7760773,1.3321381,-0.85621643,0.25471497,0.574173
1636,A,504647419616446,-3.7821045,-5.93042,-0.27140808,-0.24856567,0.024337769,0.28308105
1636,A,504647469970450,-2.6995087,-5.8591614,-1.8593597,0.041931152,-0.20262146,-0.06088257
1636,A,504647520324454,-2.869278,-8.277359,0.21455383,0.001083374,0.5690613,-0.113098145
1636,A,504647570678457,-3.1846771,-8.611908,-1.6700745,0.99964905,-0.13108826,-0.7514343
1636,A,504647621032461,-3.7001953,-11.500778,0.30360413,-0.35777283,0.055511475,-0.3895111
1636,A,504647671386465,-2.5285645,-13.723312,0.27516174,0.6276703,-1.0147247,0.39970398
1636,A,504647721740469,-3.6725922,-11.58049,-5.302109,1.4397736,-0.33166504,0.12710571
1636,A,504647772094473,-10.057114,-5.9797516,-4.1347656,1.1623993,0.07118225,0.20518494
1636,A,504647822448477,-9.570435,-9.212814,-2.1263733,0.52549744,0.38560486,0.31256104
1636,A,504647872802481,-1.5294952,-13.607407,-0.12792969,0.57121277,0.11647034,-0.033798218
1636,A,504647923156485,-3.3491058,-5.286606,-1.7000427,0.54422,-0.09365845,-0.013381958
1636,A,504647973510489,-1.8985596,-3.602829,0.18225098,-0.07173157,-0.03147888,0.020935059
1636,A,504648023864493,-2.7996368,-5.7830048,-0.041915894,-0.58976746,-0.54663086,0.45385742
1636,A,504648074218497,-4.005661,-7.9053955,2.0880585,0.10354614,-0.62641907,0.20579529
1636,A,504648124572500,-5.3837433,-12.27887,1.8742218,-0.43685913,1.2881165,-0.12513733
1636,A,504648174926504,-6.167221,-13.11322,6.5664215,-0.6657715,0.581131,-0.30503845
1636,A,504648225280508,-11.316681,-12.340698,-0.5575409,-1.0524902,0.50593567,-0.4295349
1636,A,504648275634512,-0.894516,-6.155884,-2.2966156,-0.5917053,0.46044922,-0.38549805
1636,A,504648325988516,-3.1677094,-9.02977,-2.299652,-0.63194275,0.43470764,0.22106934
1636,A,504648376342520,-5.977783,-6.697708,1.0961609,-0.6691742,0.4546051,0.3975067
1636,A,504648426696524,-3.586853,-5.580017,-0.66329956,-0.20350647,0.12712097,0.013687134
1636,A,504648477050528,-3.5369873,-8.339798,-0.9927521,0.15974426,0.119400024,-0.1963501
1636,A,504648527404532,-3.5361786,-7.8265686,-0.54530334,0.45332336,0.30126953,-0.4637909
1636,A,504648577758536,-3.2829437,-9.319489,0.56333923,0.6717987,-0.7942505,-0.27082825
1636,A,504648628112539,-3.2218628,-12.182816,-0.0340271,-0.0069885254,-0.19908142,0.20672607
1636,A,504648678466543,-3.0082245,-12.237122,-2.4785156,0.8747406,-1.0188446,0.40467834
1636,A,504648728820547,-7.370697,-10.454056,-4.5342865,1.1117096,-0.2815857,0.14041138
1636,A,504648779174551,-11.83873,-8.295959,-3.249817,0.6274872,0.06544495,0.23248291
1636,A,504648829528555,-5.9301453,-8.968048,-1.9123993,0.36723328,0.23376465,0.045455933
1636,A,504648879882559,-2.3569489,-8.758163,-0.42614746,0.42997742,0.08773804,-0.15863037
1636,A,504648930236563,-2.2115173,-4.8330383,-0.5967102,0.31877136,-0.010482788,-0.054870605
1636,A,504648980590567,-2.4607086,-4.606552,0.28849792,-0.024917603,-0.50149536,0.24093628
1636,A,504649030944571,-3.3562012,-6.363678,1.818924,-0.3127594,-0.5339203,0.5972748
1636,A,504649081298575,-4.7442017,-10.254471,3.2550812,0.002105713,0.61416626,0.09902954
1636,A,504649131652579,-5.6359253,-12.520218,2.5094452,-0.7737274,0.8274231,-0.09150696
1636,A,504649182006582,-7.3351593,-11.722305,1.2998962,-1.4372253,-0.51127625,-0.47018433
1636,A,504649232360586,-4.548935,-7.850418,-2.1603851,-1.4007416,-0.020614624,-0.48695374
1636,A,504649282711140,-1.7569733,-7.729782,-2.5227356,-0.7772217,0.17442322,-0.032928467
1636,A,504649333065144,-5.1990814,-7.827362,-0.3938446,-0.7434845,0.055023193,0.32714844
1636,A,504649383419148,-3.8759308,-5.9102783,0.33815002,-0.2571106,-0.07217407,0.16087341
1636,A,504649433773152,-2.3985596,-7.5556946,-0.1793518,-0.079559326,0.2587738,-0.15493774
1636,A,504649484127156,-3.3383942,-7.2834473,-0.9289093,0.13322449,0.3252411,-0.35491943
1636,A,504649534481160,-2.9477234,-8.1539,0.111709595,0.618103,-0.5064087,-0.55859375
1636,A,504649584835164,-2.4946594,-11.685623,1.5844727,0.23828125,-0.9370117,-0.11206055
1636,A,504649635189168,-3.2814484,-13.933151,-1.5405273,0.24142456,-0.7294922,0.3713379
1636,A,504649685543172,-5.3262787,-10.629013,-4.731491,1.0093689,-0.3948822,0.20755005
1636,A,504649735897175,-9.774689,-6.8827667,-3.6062622,0.91900635,-0.19299316,0.2451477
1636,A,504649786251179,-8.396484,-9.028381,-1.6679077,0.37594604,0.03164673,0.31240845
1636,A,504649836605183,-3.4380493,-10.053619,-0.8822632,0.33590698,-0.023986816,0.027648926
1636,A,504649886959187,-2.5636444,-5.9009857,-0.90182495,0.35720825,0.009292603,0.010559082
1636,A,504649937313191,-2.155304,-4.495514,-0.12174988,0.14596558,-0.3498993,0.06378174
1636,A,504649987667195,-2.5340424,-5.5496063,0.6730194,-0.017807007,-0.74160767,0.3865509
1636,A,504650038021199,-4.564148,-8.456909,1.4290161,0.08656311,-0.06278992,0.18754578
1636,A,504650088375203,-4.8080597,-11.78653,2.6732025,-0.2052002,1.1087646,-0.15441895
1636,A,504650138729207,-7.7660522,-13.078827,0.39768982,-0.6694031,0.6875458,-0.37182617
1636,A,504650189083211,-6.719467,-9.57074,-1.3903961,-1.1016235,0.20695496,-0.61260986
1636,A,504650239437214,-2.1220856,-7.8559723,-3.515503,-0.8572998,0.015640259,-0.33714294
1636,A,504650289791218,-4.883621,-9.514236,-2.6779327,-0.68496704,0.06814575,0.07826233
1636,A,504650340145222,-6.033554,-6.8727417,0.07888794,-0.64863586,0.14279175,0.2181549
1636,A,504650390499226,-3.58786,-6.148163,-0.3486023,-0.117507935,-0.06764221,-0.051986694
1636,A,504650440853230,-3.2860718,-6.933365,-0.8973236,0.18022156,0.28944397,-0.22270203
1636,A,504650491207234,-3.638916,-7.5193634,-0.39546204,0.6534729,0.5453491,-0.6125488
1636,A,504650541561238,-2.4958496,-9.436081,0.58509827,0.6956482,-0.33370972,-0.50845337
1636,A,504650591915242,-2.440628,-12.112488,1.414978,0.27268982,-1.1490479,0.19119263
1636,A,504650642269246,-2.169464,-12.183853,-2.7193909,1.0336304,-0.5241699,0.41680908
1636,A,504650692623250,-6.6621857,-9.7439575,-4.6721954,1.4204865,0.34074402,0.1806488
1636,A,504650742977254,-11.454208,-7.9602814,-2.9883728,0.7971039,0.22468567,0.17738342
1636,A,504650793331257,-4.423111,-11.248779,-0.5422516,0.4793396,0.15887451,0.11361694
1636,A,504650843685261,-2.8290558,-8.551773,0.27198792,0.6270294,-0.107910156,-0.03831482
1636,A,504650894039265,-2.5370636,-5.489609,-0.56999207,0.13851929,0.22161865,0.07321167
1636,A,504650944393269,-1.7923584,-4.659088,-0.6277313,-0.2950592,-0.40141296,0.22872925
1636,A,504650994747273,-2.3518066,-5.0215607,1.4539337,-0.29571533,-0.84931946,0.49691772
1636,A,504651045101277,-5.9681244,-10.014023,3.8103485,-0.5245819,0.16105652,0.032989502
1636,A,504651095455281,-4.5117645,-12.125931,4.3449554,-0.73095703,1.0487671,-0.18478394
1636,A,504651145809285,-9.180618,-13.536331,0.49891663,-1.0356903,0.42448425,-0.2358551
1636,A,504651196163289,-4.9645233,-7.641342,-0.84783936,-1.3171997,0.27799988,-0.40022278
1636,A,504651246517293,-1.6963654,-7.725418,-4.1275177,-0.68196106,0.25691223,-0.12562561
1636,A,504651296871297,-5.253235,-7.906906,-2.4443512,-0.64263916,0.34587097,0.30114746
1636,A,504651347225300,-5.073349,-6.223999,-0.5415344,-0.401062,0.12734985,0.33906555
1636,A,504651397579304,-2.6906586,-7.2289124,0.1529541,-0.08055115,-0.23529053,-0.028961182
1636,A,504651447933308,-3.0559082,-7.4379272,-0.68110657,-0.088394165,0.6510773,-0.17437744
1636,A,504651498287312,-3.6574707,-8.102509,-0.4506073,0.8923645,-0.46421814,-0.42097473
1636,A,504651548641316,-2.918396,-9.875717,0.6382446,0.45747375,-0.69714355,-0.74305725
1636,A,504651598995320,-3.0739594,-13.1896515,0.67567444,-0.18534851,-0.6088867,0.31030273
1636,A,504651649349324,-3.6772919,-13.100281,-5.9753113,1.2805023,-0.7078552,0.09864807
1636,A,504651699703328,-8.956802,-8.061493,-3.2851563,1.2267761,0.123565674,0.20550537
1636,A,504651750057332,-10.925583,-6.4005127,-3.0623016,0.6717224,-0.15913391,0.47857666
1636,A,504651800411336,-3.269394,-14.73053,1.5144501,0.18867493,-0.19128418,0.008575439
1636,A,504651850765339,-2.9150238,-5.8123627,-0.9041748,0.73747253,-1.1280975,-0.07345581
1636,A,504651901119343,-3.4303894,-4.4324493,-0.47616577,0.16415405,-0.30122375,-0.11512756
1636,A,504651951473347,-1.9761505,-5.085449,-0.2273407,-0.10801697,-1.2312164,-0.0872345
1636,A,504652001827351,-3.1020966,-6.6259766,1.509079,0.5812683,-0.570343,-0.21594238
1636,A,504652052181355,-8.148636,-11.881012,4.083786,-1.0545502,2.2089386,-1.0298004
1636,A,504652102535359,-2.1015472,-9.9687805,4.711731,-0.2957306,0.27301025,-0.14012146
1636,A,504652152889363,-12.7964325,-10.9327545,-3.1657257,-1.6062775,0.37576294,-0.43327332
1636,A,504652203243367,0.084121704,-5.6833954,-0.53862,-1.0076599,-0.0124053955,-0.33145142
1636,A,504652253597371,-5.027069,-14.7283325,-3.0756378,-0.8204193,-0.05517578,0.17024231
1636,A,504652303951375,-5.8089905,-7.465439,0.9809265,-0.8693695,0.071624756,0.46829224
1636,A,504652354305379,-3.756836,-6.588379,0.2779541,-0.16955566,0.014389038,0.15582275
1636,A,504652404659382,-3.1410828,-5.8520813,-0.41018677,0.20129395,-0.2374115,-0.13009644
1636,A,504652455013386,-2.1928558,-6.3845673,-0.5393524,0.4750824,-0.016311646,-0.30815125
1636,A,504652505367390,-2.0680695,-10.165421,2.1778564,0.8019562,-0.2068634,0.28463745
1636,A,504652555721394,-3.2828217,-13.718201,0.7572937,-0.19285583,0.48580933,-0.17797852
1636,A,504652606075398,-2.3635101,-11.564575,-0.15542603,1.335846,-0.565979,0.37771606
1636,A,504652656429402,-4.61911,-10.952484,-3.4146118,1.3794861,-0.82559204,0.33840942
1636,A,504652706783406,-9.165604,-9.36644,-3.0507507,0.90708923,0.2715454,0.29170227
1636,A,504652757137410,-7.597107,-12.542908,-0.7689972,0.57507324,0.27430725,0.14201355
1636,A,504652807491414,-1.9049072,-10.304733,-1.2207031E-4,0.4539032,-0.07858276,-0.11689758
1636,A,504652857845418,-2.7016907,-3.662323,0.06253052,0.27526855,0.08364868,0.0060577393
1636,A,504652908199422,-2.409195,-4.3548126,-0.3567505,0.061691284,-0.286438,-0.008773804
1636,A,504652958553425,-2.7781677,-5.4428253,1.241806,-0.26582336,-0.34901428,0.694397
1636,A,504653008907429,-4.4846344,-9.466385,3.2640533,0.17131042,0.25265503,0.06349182
1636,A,504653059261433,-4.818619,-13.514877,4.328903,-1.1232147,1.690979,-0.3945923
1636,A,504653109615437,-5.436508,-11.115997,4.701782,-0.55259705,-0.02923584,-0.20617676
1636,A,504653159969441,-11.75,-12.659653,-1.6306152,-1.6842499,-0.12236023,-0.54200745
1636,A,504653210323445,-0.24459839,-5.8485107,-3.4133148,-1.0326233,0.16847229,-0.04548645
1636,A,504653260677449,-3.786148,-8.066284,-1.3936768,-0.8088379,0.21437073,0.33354187
1636,A,504653311031453,-6.1224365,-5.757431,-1.572937,-0.31732178,-0.14300537,0.19137573
1636,A,504653361385457,-3.3439178,-6.9717255,0.89312744,-0.019195557,0.0034484863,-0.11155701
1636,A,504653411739461,-2.4023132,-7.23851,-1.2250061,0.17001343,0.32951355,-0.32263184
1636,A,504653462093464,-3.123825,-8.52359,-0.25164795,0.50086975,0.02420044,-0.53678894
1636,A,504653512447468,-2.5475311,-11.017242,1.7697754,0.3785553,-0.6744232,0.026687622
1636,A,504653562801472,-2.725998,-13.1467285,0.33695984,0.16682434,-0.29309082,0.3449402
1636,A,504653613155476,-3.162857,-11.092926,-3.471878,1.1231995,-0.59332275,0.29779053
1636,A,504653663509480,-8.04715,-8.404404,-4.2239075,1.1624603,-0.18919373,0.17086792
1636,A,504653713863484,-9.639664,-8.202301,-1.3200836,0.59765625,0.023269653,0.24909973
1636,A,504653764217488,-3.1676636,-10.25206,-0.5911865,0.40065002,0.018035889,0.014190674
1636,A,504653814571492,-1.3861389,-8.057205,0.519928,0.3037262,0.04664612,-0.035003662
1636,A,504653864925496,-2.8116455,-4.1776276,0.14904785,0.16856384,-0.0036468506,0.07292175
1636,A,504653915279500,-2.5175018,-4.579544,0.7709656,-0.015731812,-0.43907166,0.37313843
1636,A,504653965633504,-3.1134796,-7.8659973,1.1689453,-0.1277771,0.33132935,0.32946777
1636,A,504654015987507,-4.331436,-11.5108185,3.3613281,-0.35083008,1.8096924,-0.15766907
1636,A,504654066341511,-5.9295654,-12.768387,0.7707825,-0.77737427,1.4649658,-0.16914368
1636,A,504654116695515,-5.646393,-10.532608,-1.6992493,-0.8732605,0.76283264,-0.4244995
1636,A,504654167049519,-0.8394928,-5.747574,-2.336731,-0.7317047,0.65808105,-0.17678833
1636,A,504654217403523,-3.1560822,-8.188095,-1.9052277,-0.74742126,0.35343933,0.33496094
1636,A,504654267757527,-6.659485,-8.547882,1.6574249,-0.49971008,0.2627716,0.40130615
1636,A,504654318111531,-3.8423004,-5.0371094,-0.56051636,-0.08753967,-0.09580994,0.038513184
1636,A,504654368465535,-3.1943054,-6.940155,-1.4144897,-0.0818634,0.65400696,-0.17608643
1636,A,504654418819539,-4.0245667,-8.969757,-0.56378174,0.73553467,0.004257202,-0.4043579
1636,A,504654469173543,-3.3863983,-10.016129,-0.5388031,0.61531067,-0.49375916,-0.5758362
1636,A,504654519527547,-2.1350555,-11.89151,0.17832947,-0.00982666,-0.5945587,0.04647827
1636,A,504654569881550,-3.039444,-12.073669,-3.9854279,0.72442627,-0.57951355,0.34150696
1636,A,504654620235554,-8.907471,-9.252655,-5.3561554,1.1439514,-0.07493591,0.15692139
1636,A,504654670589558,-10.521088,-8.342194,-3.1265106,0.8608246,0.13282776,0.1928711
1636,A,504654720943562,-4.824417,-11.509476,-1.2142334,0.75857544,0.37524414,-0.066970825
1636,A,504654771297566,-2.2244568,-9.039993,-0.033203125,0.7470703,0.17286682,-0.23207092
1636,A,504654821651570,-1.9841766,-5.0104675,6.866455E-4,0.46569824,-0.0029144287,-0.070510864
1636,A,504654872005574,-1.8555298,-4.3955994,0.2027893,-0.2242279,-0.48905945,0.44898987
1636,A,504654922359578,-2.574936,-5.748047,1.2230682,-0.022415161,-0.5795593,0.2810974
1636,A,504654972713582,-5.2384796,-11.190567,1.7071991,-0.5928345,1.074234,-0.11289978
1636,A,504655023067586,-6.2815704,-12.809158,4.570053,-0.48466492,0.92985535,-0.15763855
1636,A,504655073421589,-9.639648,-13.119171,2.9249115,-0.93707275,0.49658203,-0.36950684
1636,A,504655123775593,-3.7775726,-8.1154785,-1.8633575,-0.9863739,0.68058777,-0.36697388
1636,A,504655174129597,-2.7597961,-8.708466,-3.8173065,-0.55578613,0.31385803,0.11465454
1636,A,504655224483601,-5.6994934,-7.319046,-1.3993073,-0.5627594,0.34823608,0.5234375
1636,A,504655274837605,-4.5128174,-4.7863007,0.14337158,-0.3588562,0.18241882,0.23902893
1636,A,504655325191609,-2.2755127,-6.050125,-1.8826752,0.1938324,0.0382843,-0.028564453
1636,A,504655375545613,-3.2288513,-8.623245,-0.5533142,0.61087036,1.0975342,-0.5552826
1636,A,504655425899617,-2.8290863,-8.736145,1.6750488,1.2150726,-0.048599243,-0.37678528
1636,A,504655476253621,-2.743744,-12.587158,0.9644623,0.38237,-0.11097717,-0.033721924
1636,A,504655526607625,-2.0351868,-13.276459,-1.0523224,0.74716187,0.0036773682,0.2786255
1636,A,504655576961629,-4.1605377,-9.600525,-3.9190826,1.2838135,-0.05496216,0.07084656
1636,A,504655627315632,-9.730377,-6.8121796,-5.1681824,1.0110016,0.31437683,0.28074646
1636,A,504655677669636,-7.055771,-10.953613,-2.963791,0.8359375,0.7876892,0.20864868
1636,A,504655728023640,-3.1028137,-10.682083,0.33642578,0.61502075,0.25689697,-0.0289917
1636,A,504655778377644,-1.9588776,-5.700714,0.6518402,0.32559204,0.44406128,0.032577515
1636,A,504655828731648,-0.8839874,-4.598007,0.65644836,0.15124512,-0.21664429,-0.2906952
1636,A,504655879085652,-3.070572,-4.6748657,0.6407013,-0.37852478,-0.2443695,0.7849121
1636,A,504655929439656,-4.928772,-8.353302,1.5095215,0.35209656,0.22123718,0.038009644
1636,A,504655979793660,-4.649933,-12.642151,3.8931885,-0.6305542,2.182724,-0.23147583
1636,A,504656030147664,-6.072983,-12.495407,0.33544922,-0.68395996,0.11065674,-0.24978638
1636,A,504656080501668,-6.7543945,-9.890503,1.470047,-1.0236816,0.50076294,-0.5539398
1636,A,504656130855672,-0.25219727,-5.872299,-3.3171234,-0.830246,-0.073898315,-0.28330994
1636,A,504656181209675,-7.3693695,-12.060669,-0.272995,-0.9291992,0.6218872,0.38633728
1636,A,504656231563679,-5.8237457,-6.027939,0.08807373,-0.5628052,0.09576416,0.35583496
1636,A,504656281917683,-3.0204315,-4.390274,-0.057159424,-0.07533264,-0.20323181,-0.045959473
1636,A,504656332271687,-2.7926025,-8.489395,-0.1736145,0.14544678,0.7380676,-0.2842865
1636,A,504656382625691,-4.135132,-8.387253,-1.3899689,0.99287415,0.24864197,-0.8008728
1636,A,504656432979695,-2.4062958,-10.327209,0.77809143,0.5489502,-0.95181274,-0.529129
1636,A,504656483333699,-2.6995697,-14.211273,1.4749451,0.16802979,-0.6937256,0.5375519
1636,A,504656533687703,-3.2431183,-12.825012,-5.1176605,1.0364075,-0.025222778,0.36705017
1636,A,504656584041707,-8.120056,-7.1472473,-4.116699,1.2122498,-0.27949524,0.212677
1636,A,504656634395711,-11.649551,-8.32457,-2.0793,0.40504456,0.16526794,0.3602295
1636,A,504656684749714,-3.5473633,-12.456085,-0.11993408,0.4146881,0.47296143,-0.029785156
1636,A,504656735103718,-2.3588715,-7.8388367,-0.5153961,0.6592102,-0.1849823,-0.12986755
1636,A,504656785457722,-2.3964233,-4.2841644,0.34336853,0.23098755,0.23928833,0.04673767
1636,A,504656835811726,-2.4106598,-4.3018036,-0.5549011,-0.22718811,-0.8944092,-0.030792236
1636,A,504656886165730,-2.9175262,-6.230774,2.056137,-0.3946991,-0.52723694,0.44970703
1636,A,504656936519734,-6.3941803,-11.660477,2.8740082,-0.38679504,0.3516388,-0.043045044
1636,A,504656986873738,-4.5827484,-11.610748,3.3980255,-0.08491516,1.1689758,-0.123565674
1636,A,504657037227742,-9.15181,-10.276642,-0.88201904,-1.1230927,0.139328,-0.52326965
1636,A,504657087581746,-4.084976,-5.108536,-1.1920166,-0.8825073,0.2469635,-0.60827637
1636,A,504657137935750,-3.0503082,-7.722473,-3.8266907,-0.6105652,0.13395691,-3.0517578E-5
1636,A,504657188289754,-4.27507,-9.607086,0.67289734,-0.95443726,0.5961304,0.35565186
1636,A,504657238643757,-3.8533478,-5.9518127,-0.058288574,-0.45066833,-0.14749146,0.062057495
1636,A,504657288997761,-2.9351807,-7.172394,-0.037506104,-0.108291626,-0.15310669,-0.26620483
1636,A,504657339351765,-3.9176025,-7.5354614,-0.57725525,0.31455994,0.65509033,-0.5147095
1636,A,504657389705769,-4.2783966,-8.803818,-0.5552368,1.1154938,-0.3257904,-0.4277954
1636,A,504657440059773,-2.3558197,-10.995621,0.66033936,0.119155884,-0.8220215,-0.13764954
1636,A,504657490413777,-1.6343231,-13.997894,-0.502182,0.9894409,-0.48335266,0.20532227
1636,A,504657540767781,-5.518036,-10.693909,-4.526367,1.2533722,-0.68292236,0.2062378
1636,A,504657591121785,-10.708832,-8.187088,-4.2451477,0.7407837,0.06674194,0.27757263
1636,A,504657641475789,-8.370392,-10.782272,-2.522705,0.5266571,0.31626892,0.21760559
1636,A,504657691829793,-2.193161,-11.891876,1.0190277,0.7032623,0.34783936,0.022018433
1636,A,504657742183797,-1.9846802,-4.6525116,-0.250412,0.90174866,-0.043426514,-0.13046265
1636,A,504657792537800,-1.6954346,-4.528549,0.21125793,4.5776367E-5,-0.10194397,-0.26211548
1636,A,504657842891804,-2.8641815,-4.7658844,0.5538788,-0.21263123,-0.45196533,0.20324707
1636,A,504657893245808,-4.4635315,-8.800415,2.1206665,-0.038146973,0.02217102,0.91381836
1636,A,504657943599812,-5.73822,-13.011871,2.9897003,-0.41127014,0.5392761,-0.27067566
1636,A,504657993953816,-4.7494354,-10.131317,3.7703857,-1.0705566,0.8421478,-0.3193817
1636,A,504658044307820,-9.70668,-9.705231,-2.7298431,-1.1774445,-0.035507202,-0.49368286
1636,A,504658094661824,-3.383438,-6.197113,0.21464539,-1.0688324,-0.1544342,-0.27087402
1636,A,504658145015828,-1.7514954,-8.445053,-1.2846222,-0.7088318,0.083480835,0.21437073
1636,A,504658195369832,-5.274719,-11.316513,2.3167725,-0.5502014,0.27372742,0.3312683
1636,A,504658245723836,-3.870758,-5.326462,-1.3426361,-0.24388123,0.02482605,0.20898438
1636,A,504658296077839,-3.0526733,-6.5286713,0.6013336,-0.111694336,-0.030319214,-0.04147339
1636,A,504658346431843,-3.193924,-8.297409,0.49005127,0.43385315,0.0011291504,0.0046691895
1636,A,504658396785847,-3.1084137,-9.612045,-0.11314392,0.7255707,0.64131165,0.3707428
1636,A,504658447139851,-2.0364227,-11.663101,1.2667084,1.0178223,1.1560364,0.18643188
1636,A,504658497493855,-2.0225067,-13.611435,-0.80882263,1.4205322,0.06903076,0.397995
1636,A,504658547847859,-6.457855,-11.341095,-3.1863708,1.0913391,-0.3027649,0.29234314
1636,A,504658598201863,-8.784744,-8.903427,-3.2728271,0.5982666,0.061782837,0.1027832
1636,A,504658648555867,-4.8612366,-9.882767,0.2654724,0.40390015,0.080703735,-0.09700012
1636,A,504658698909871,-2.9856262,-8.27919,0.8930664,0.37680054,0.041763306,-0.26583862
1636,A,504658749263875,-2.9768982,-4.157486,-0.44924927,0.24980164,0.030136108,-0.17572021
1636,A,504658799617879,-2.947586,-4.719879,0.036193848,-0.260437,-0.35588074,0.36872864
1636,A,504658849971882,-3.6913147,-6.1095734,1.783783,-0.08885193,-0.3501892,0.43643188
1636,A,504658900325886,-5.3524475,-10.642731,1.6698456,-0.19136047,1.066391,-0.21903992
1636,A,504658950679890,-5.6011963,-12.206024,4.0994415,-0.36167908,1.3728638,-0.48912048
1636,A,504659001033894,-8.260361,-11.518021,3.5570984,-0.5719757,0.6940918,-0.5478058
1636,A,504659051387898,-4.7532043,-9.375641,-1.3183136,-0.7852936,0.6658783,-0.3425293
1636,A,504659101741902,-0.74220276,-8.595032,-2.8083801,-0.5031128,0.6733246,0.109802246
1636,A,504659152095906,-5.198181,-8.919113,-0.68885803,-0.42285156,0.65470886,0.45262146
1636,A,504659202449910,-4.1739655,-6.588333,0.86001587,-0.16294861,0.38545227,0.36276245
1636,A,504659252803914,-3.0840454,-6.3043365,-1.1390839,0.2511902,0.23120117,0.06866455
1636,A,504659303165692,-3.4876099,-8.488754,-0.8209839,0.64071655,0.37602234,-0.3269348
1636,A,504659353519696,-3.1020966,-9.682541,0.67593384,0.8306732,-0.0101623535,-0.33839417
1636,A,504659403873699,-2.3241882,-10.883667,0.8208618,0.067276,0.08363342,0.25532532
1636,A,504659454227703,-3.0860443,-12.365784,-2.3442993,-0.24423218,0.45689392,0.4092102
1636,A,504659504581707,-5.1328735,-10.617279,-5.002701,0.9953003,0.54522705,0.12319946
1636,A,504659554935711,-10.20668,-6.594345,-3.949417,0.8988495,0.16957092,0.17495728
1636,A,504659605289715,-8.362625,-7.7322235,-3.103119,0.5055237,0.08598328,0.14949036
1636,A,504659655643719,-3.075119,-11.067444,-0.61486816,0.73965454,-0.3163452,-0.09146118
1636,A,504659705997723,-2.3995361,-7.7621,0.9490204,0.40838623,-0.095687866,-0.08305359
1636,A,504659756351727,-2.795456,-4.7536926,-0.65567017,0.33294678,-0.011123657,-0.18748474
1636,A,504659806705731,-3.2862701,-4.474228,1.0975952,-0.605896,-0.43515015,0.6837921
1636,A,504659857059735,-5.0285034,-7.768585,2.862793,0.26792908,-0.47875977,0.053863525
1636,A,504659907413738,-4.5103455,-12.922806,1.8712311,-0.74256897,1.8698425,-0.3714447
1636,A,504659957767742,-5.3815002,-12.866257,1.5271301,-0.004486084,1.2542725,-0.5592499
1636,A,504660008121746,-9.629669,-9.906479,2.3669586,-0.72195435,0.38233948,-0.71029663
1636,A,504660058475750,-1.7058258,-6.3694763,-1.6504517,-0.58239746,0.06300354,-0.4972992
1636,A,504660108829754,-3.375229,-11.009857,-1.6482086,-0.6387024,0.5905304,-0.00932312
1636,A,504660159183758,-4.214966,-7.320984,-1.991745,-0.47731018,0.25984192,0.19496155
1636,A,504660209537762,-3.6149292,-5.201706,-0.105911255,-0.30264282,-0.2914734,0.021148682
1636,A,504660259891766,-3.6064148,-6.782257,-0.14640808,0.23002625,-0.3594818,-0.03968811
1636,A,504660310245770,-3.5663605,-8.130493,-1.5197754,0.08959961,-0.30981445,-0.3373108
1636,A,504660360599774,-3.768158,-10.255051,1.4901276,0.60769653,-0.67544556,0.21069336
1636,A,504660410953778,-3.1154633,-13.640579,1.4064789,-0.36039734,0.6820526,0.63760376
1636,A,504660461307781,-3.4622955,-11.108688,-2.387741,0.32655334,-0.17236328,0.36618042
1636,A,504660511661785,-5.4764404,-11.233612,-3.9604797,1.35672,0.17538452,0.09863281
1636,A,504660562015789,-11.386505,-2.2659607,-3.596405,0.608963,-0.19909668,0.2755432
1636,A,504660612369793,-5.4455414,-9.793686,-3.985733,0.5918579,0.11898804,0.22335815
1636,A,504660662723797,-3.1999664,-10.984711,0.91567993,0.60679626,-0.15866089,-0.03668213
1636,A,504660713077801,-4.1369476,-5.500473,-0.84747314,0.21244812,-0.2800598,-0.147995
1636,A,504660763431805,-2.3546295,-5.211731,-0.7985382,0.3508606,0.10580444,-0.4243927
1636,A,504660813785809,-2.7112274,-4.106308,1.1568298,-0.4683075,-0.6256256,0.59402466
1636,A,504660864139813,-4.266266,-7.751816,2.0847015,0.5061035,-0.4099884,0.06248474
1636,A,504660914493817,-4.574951,-12.402176,1.2795715,-0.12159729,1.637146,0.17829895
1636,A,504660964847821,-5.925888,-13.200714,2.3995667,-0.3456421,0.19242859,-0.2901764
1636,A,504661015201824,-12.715378,-10.299805,0.7371979,-1.0652008,0.869812,-0.58699036
1636,A,504661065555828,-1.2226257,-7.1153717,-2.4172668,-0.5295563,0.05619812,-0.44122314
1636,A,504661115909832,-5.8506165,-9.471512,-2.5690002,-0.6659851,-0.16326904,-0.10522461
1636,A,504661166263836,-6.1744385,-7.0136414,2.7273712,-0.2577362,0.09729004,0.048110962
1636,A,504661216617840,-3.4429016,-4.757431,0.091049194,0.023468018,0.236557,0.04748535
1636,A,504661266971844,-3.1812134,-5.315979,-2.4898987,-0.026031494,0.092315674,-0.03704834
1636,A,504661317325848,-2.817978,-8.31604,1.1875,0.04977417,-0.3497162,0.0158844
1636,A,504661367679852,-2.1528168,-8.585312,-0.033432007,0.11907959,0.034317017,-0.60028076
1636,A,504661418033856,-3.2296906,-9.617859,1.1616669,0.46092224,-0.56959534,-0.3046112
1636,A,504661468387860,-5.8098145,-12.235397,-0.3008728,-0.47253418,0.14370728,0.27981567
1636,A,504661518741863,-4.4982452,-10.523972,-2.0214539,0.9312134,0.20845032,0.15519714
1636,A,504661569095867,-3.6496887,-9.043182,-4.8449707,1.4217987,0.12484741,0.28453064
1636,A,504661619449871,-11.0329895,-6.7092285,-5.405365,0.8360138,0.37017822,0.31684875
1636,A,504661669803875,-4.0722046,-11.383163,1.5593567,0.44117737,0.3940735,-0.09080505
1636,A,504661720157879,-1.2219543,-12.250381,-0.33520508,0.2388916,-0.18652344,-0.33468628
1636,A,504661770511883,-2.175705,-5.5268097,-0.07601929,0.42118835,0.12924194,-0.102249146
1636,A,504661820865887,-2.52359,-5.3572845,0.9745178,0.31555176,0.15464783,0.10411072
1636,A,504661871219891,-3.2072906,-5.557541,0.7318115,-0.15898132,-0.16117859,0.27259827
1636,A,504661921573895,-4.3820953,-7.3738403,1.0333862,0.28186035,-0.41908264,0.7895508
1636,A,504661971927899,-5.1317596,-12.6688385,1.6933136,-8.087158E-4,0.8067322,-0.24101257
1636,A,504662022281903,-4.8374023,-11.670883,4.402054,-0.39587402,1.6796417,-0.2997589
1636,A,504662072635906,-8.375916,-10.269211,-2.1716614,-0.9067383,0.059158325,-0.58421326
1636,A,504662122989910,-2.2682953,-5.4983215,-0.3481903,-0.93074036,0.10472107,-0.55358887
1636,A,504662173343914,-0.5859375,-9.254883,-1.8891602,-0.63861084,0.11959839,0.024246216
1636,A,504662223697918,-6.8708344,-11.03421,1.8799591,-0.64401245,0.5146179,0.39094543
1636,A,504662274051922,-5.0961304,-5.325531,0.49726868,-0.2489624,0.15834045,0.20455933
1636,A,504662324405926,-2.9927826,-7.368149,0.122558594,0.023788452,0.12322998,-0.018234253
1636,A,504662374759930,-2.2801971,-8.460983,-0.5873718,0.038909912,0.7589569,-0.28456116
1636,A,504662425113934,-3.2950897,-8.555908,0.32086182,0.37480164,0.006225586,-0.6529083
1636,A,504662475467938,-2.7800598,-10.38707,1.2795563,0.39538574,-1.8714905,-0.22853088
1636,A,504662525821942,-2.1828918,-12.469391,-0.38885498,0.33329773,-0.19841003,0.42886353
1636,A,504662576175946,-4.4728546,-11.160538,-4.709076,1.1230316,0.17320251,0.4200592
1636,A,504662626529949,-10.385132,-8.241257,-2.9565582,0.9946289,-0.046142578,0.2745514
1636,A,504662676883953,-10.509811,-7.6180725,-0.12535095,0.28153992,0.05392456,0.17669678
1636,A,504662727237957,-1.4006805,-11.510651,-1.3043213,0.34254456,-0.0043182373,-0.2529297
1636,A,504662777591961,-2.120102,-7.2133026,-0.63874817,0.16375732,-0.26139832,-0.22395325
1636,A,504662827945965,-2.515915,-4.8685455,0.10105896,0.12239075,-0.08229065,0.036254883
1636,A,504662878299969,-3.0752106,-5.8174286,0.7918701,0.1912384,-0.37696838,0.26016235
1636,A,504662928653973,-4.2480927,-7.2842712,1.2682037,0.030075073,-0.18789673,0.55145264
1636,A,504662979007977,-4.833359,-10.754272,2.743866,-0.22729492,0.8847656,-3.9672852E-4
1636,A,504663029361981,-5.23822,-12.263626,3.0362854,-0.7200012,0.8708954,-0.13327026
1636,A,504663079715985,-7.0384064,-12.113831,1.3737488,-0.7787781,-0.0973053,-0.40652466
1636,A,504663130069988,-4.9584045,-9.00058,-1.644455,-1.0338593,-0.11456299,-0.5263672
1636,A,504663180423992,-1.9562225,-7.968445,-2.605896,-0.71533203,-0.11216736,-0.07142639
1636,A,504663230777996,-6.0989532,-8.869507,-0.49221802,-0.5423126,0.25828552,0.30647278
1636,A,504663281132000,-4.895035,-5.8714294,-0.35984802,-0.2890625,0.17733765,0.286438
1636,A,504663331486004,-2.453125,-7.54953,0.13710022,0.031463623,-0.080841064,0.02848816
1636,A,504663381840008,-2.70813,-7.8004,0.26559448,0.15467834,0.11820984,-0.1697998
1636,A,504663432194012,-2.951126,-8.302261,0.54119873,0.49543762,0.32443237,-0.49856567
1636,A,504663482548016,-3.2402496,-10.148743,0.799881,0.39848328,-0.03048706,-0.41015625
1636,A,504663532902020,-3.372589,-11.8607025,1.2483215,0.39967346,-0.23843384,0.0819397
1636,A,504663583256024,-2.8036194,-11.209,-1.463562,1.2262268,-0.05215454,0.30389404
1636,A,504663633610028,-6.697754,-9.763031,-4.3563385,1.3219452,0.2996521,0.26913452
1636,A,504663683964031,-10.298218,-8.61142,-2.3706207,0.7367096,0.50645447,0.27349854
1636,A,504663734318035,-4.23085,-10.452728,-0.08808899,0.2557373,0.26565552,0.05496216
1636,A,504663784672039,-0.7294159,-9.592712,0.9252167,0.095184326,-0.12739563,-0.08175659
1636,A,504663835026043,-2.3826904,-6.118454,0.10160828,0.21264648,-0.070755005,-0.051376343
1636,A,504663885380047,-3.2798004,-4.916153,-0.19473267,-0.0022583008,-0.24464417,-0.0066833496
1636,A,504663935734051,-3.65831,-5.5871735,0.7344055,0.035888672,-0.5694885,0.46069336
1636,A,504663986088055,-4.984314,-9.415497,2.3683014,-0.08439636,0.29722595,0.13014221
1636,A,504664036442059,-3.689209,-10.815903,3.7819672,0.07397461,1.3401337,-0.22601318
1636,A,504664086796063,-7.364029,-12.838821,0.40167236,-0.91134644,0.5763855,-0.3594513
1636,A,504664137150067,-5.960129,-8.287994,-1.322876,-1.4397888,-0.24963379,-0.7381439
1636,A,504664187504071,-1.9751587,-5.8576508,-2.7568207,-0.94143677,-0.19163513,-0.2893219
1636,A,504664237858074,-5.587509,-9.549377,-1.6814423,-0.77326965,0.18156433,0.31565857
1636,A,504664288212078,-5.032913,-6.8278503,0.023529053,-0.5029602,0.014877319,0.39570618
1636,A,504664338566082,-2.9207458,-8.0961,0.45082092,-0.17958069,-0.049453735,0.04574585
1636,A,504664388920086,-2.93219,-8.164841,-0.894104,-0.20046997,0.35194397,-0.25405884
1636,A,504664439274090,-3.3345032,-7.148636,0.36462402,0.073791504,0.7358246,-0.8238373
1636,A,504664489628094,-2.3730316,-8.686417,1.0844727,0.48547363,-1.7468414,-0.71102905
1636,A,504664539982098,-2.5833282,-11.606247,0.6486969,0.21878052,-1.3569794,0.19093323
1636,A,504664590336102,-3.0231018,-12.24498,-2.8851929,0.6698761,-0.13589478,0.44754028
1636,A,504664640690106,-7.399231,-10.2070465,-4.802414,1.2098541,-0.034683228,0.30210876
1636,A,504664691044110,-11.949524,-6.944092,-2.425888,0.7530365,0.12709045,0.39698792
1636,A,504664741398113,-4.938431,-10.994888,-0.7441864,0.22024536,0.24565125,0.17602539
1636,A,504664791752117,-1.5865173,-10.149414,0.04827881,-0.058563232,-0.28663635,-0.10479736
1636,A,504664842106121,-2.5445404,-6.09169,-0.23745728,0.057876587,-0.116882324,-0.021453857
1636,A,504664892460125,-3.7051086,-4.914627,-0.14575195,0.44155884,-0.35920715,-0.115600586
1636,A,504664942814129,-2.7107086,-5.4652405,0.36047363,0.11541748,-0.7943268,0.5151367
1636,A,504664993168133,-3.8635254,-7.7819824,2.12648,0.24757385,0.05873108,0.15057373
1636,A,504665043522137,-4.9360504,-10.882324,2.5592957,-0.5260925,1.6366882,0.073272705
1636,A,504665093876141,-6.7555847,-14.181961,1.5866241,-0.83555603,0.057281494,-0.20359802
1636,A,504665144230145,-6.722183,-11.231628,0.4564209,-1.2561646,0.049606323,-0.51631165
1636,A,504665194584149,-1.292633,-7.3863373,-3.137085,-1.0167389,-0.29769897,-0.31018066
1636,A,504665244938153,-5.4631042,-11.167755,-0.025680542,-0.8054962,0.018829346,0.12573242
1636,A,504665295292156,-5.979126,-6.257904,0.8077698,-0.5100403,-0.08705139,0.33081055
1636,A,504665345646160,-3.356247,-6.5357513,0.22125244,-0.08433533,-0.0664978,0.045806885
1636,A,504665396000164,-3.323883,-7.626526,-0.8240814,-0.01876831,-0.16300964,-0.16819763
1636,A,504665446354168,-3.1447754,-8.08374,0.36676025,0.026306152,0.4701538,-0.69369507
1636,A,504665496708172,-2.3290253,-8.392166,0.9220886,0.8323364,-1.0096588,-0.6500397
1636,A,504665547062176,-3.388916,-11.710419,0.78692627,-0.07472229,-0.5431061,0.06297302
1636,A,504665597416180,-2.6825562,-11.673492,-1.3287506,0.33200073,-0.45762634,0.48243713
1636,A,504665647770184,-5.459137,-11.035629,-4.056122,1.4264984,-0.41804504,0.2157135
1636,A,504665698124188,-12.6996,-6.9627075,-4.0740967,0.96868896,-0.0743103,0.3792572
1636,A,504665748478192,-6.6691284,-9.461136,-1.4747925,0.26882935,0.007507324,0.24301147
1636,A,504665798832196,-1.4273682,-13.3819275,-1.5857849,0.16036987,-0.14341736,-0.15330505
1636,A,504665849186199,-2.8600922,-5.2873077,0.5548706,0.28884888,-0.0013427734,-0.18881226
1636,A,504665899540203,-2.5270996,-5.3885956,-0.20547485,0.3484497,0.1824646,-0.07757568
1636,A,504665949894207,-2.8892517,-4.7007294,1.2514496,-0.06225586,-0.6738739,0.43452454
1636,A,504666000248211,-2.669815,-7.3809814,2.1213531,0.1747284,-0.19302368,0.19947815
1636,A,504666050602215,-4.183304,-11.327286,1.0225983,-0.8922577,1.3480682,-0.007369995
1636,A,504666100956219,-6.4574585,-11.816971,6.2907104,0.50001526,0.6038208,-0.34152222
1636,A,504666151310223,-11.318832,-13.270645,-0.8345642,-1.3378143,0.17521667,-0.5980835
1636,A,504666201664227,-0.4781952,-5.0251923,-2.983078,-0.882843,0.0010070801,-0.4697876
1636,A,504666252018231,-4.0242004,-8.899628,-2.9496765,-0.7084656,0.02619934,0.1027832
1636,A,504666302372235,-7.3419647,-7.0141296,-1.6726532,-0.59994507,0.30575562,0.3965454
1636,A,504666352726238,-3.4309845,-6.5799103,0.105895996,-0.22550964,-0.011856079,0.08526611
1636,A,504666403080242,-3.453949,-8.509903,-0.060150146,0.014953613,-0.013763428,-0.15525818
1636,A,504666453434246,-2.7033997,-7.9050903,0.88357544,-0.062088013,0.64186096,-0.21961975
1636,A,504666503788250,-2.5559387,-8.48967,0.29161072,0.43717957,0.08506775,-0.6532135
1636,A,504666554142254,-2.7301178,-11.528839,0.43174744,0.7451477,-1.6198425,-0.24136353
1636,A,504666604496258,-2.3825073,-12.347092,0.3335724,0.22322083,-0.5428009,0.31584167
1636,A,504666654850262,-4.1228027,-11.019165,-3.1935272,0.8170166,0.06588745,0.49716187
1636,A,504666705204266,-7.967987,-7.350479,-3.792511,1.2480011,-0.07034302,0.31834412
1636,A,504666755558270,-8.86348,-7.5296936,-1.9646912,0.5731964,0.06550598,0.35650635
1636,A,504666805912274,-3.7696686,-11.365143,-2.1956787,0.24446106,0.12322998,0.03338623
1636,A,504666856266278,-1.6342773,-10.110474,2.1639862,0.1056366,-0.12409973,-0.1133728
1636,A,504666906620281,-3.0943756,-5.5755615,0.6732025,0.4424286,0.17842102,-0.060409546
1636,A,504666956974285,-2.443985,-5.3219147,0.73524475,0.12445068,-0.27851868,-0.10128784
1636,A,504667007328289,-1.5222015,-5.810959,0.883728,0.1161499,-0.13679504,0.4698944
1636,A,504667057682293,-4.812271,-9.566559,2.375183,-0.14598083,0.7062378,-0.017364502
1636,A,504667108036297,-3.2549438,-11.888748,4.1492004,-0.83265686,1.5409851,-0.123046875
1636,A,504667158390301,-6.439026,-13.182312,0.8830414,-0.6435547,0.23635864,-0.16549683
1636,A,504667208744305,-5.790085,-8.654404,-0.006591797,-1.0102234,0.16500854,-0.5526581
1636,A,504667259098309,-1.7706299,-6.468231,-3.0234375,-0.8957367,0.031341553,-0.14974976
1636,A,504667309452313,-5.2785187,-11.191269,0.29994202,-0.61524963,0.17497253,0.13423157
1636,A,504667359806317,-5.617218,-6.5303345,-0.16964722,-0.47920227,0.12020874,0.2063446
1636,A,504667410160321,-2.8603363,-7.4471893,-0.08596802,-0.15635681,-0.17189026,-0.050094604
1636,A,504667460514324,-3.3693237,-7.807785,-0.18708801,-0.051254272,-0.052139282,-0.2384491
1636,A,504667510868328,-2.9118042,-8.1684265,0.7692566,0.27082825,0.20585632,-0.50668335
1636,A,504667561222332,-2.9760742,-9.665344,0.25196838,0.5825043,-0.7183838,-0.5145569
1636,A,504667611576336,-3.0871735,-11.79248,0.26924133,0.17652893,-1.2098236,0.046691895
1636,A,504667661930340,-3.060257,-12.238647,-0.70466614,0.698761,-0.69747925,0.4407959
1636,A,504667712284344,-6.1720734,-10.436401,-3.199356,1.2919159,-0.26002502,0.4182129
1636,A,504667762638348,-9.158936,-7.138153,-1.833313,0.89715576,0.06813049,0.36372375
1636,A,504667812992352,-5.7841644,-10.948578,0.03163147,0.5151367,0.022262573,0.2129364
1636,A,504667863346356,-1.8115234,-10.80722,0.6781006,0.30659485,-0.054733276,-0.058166504
1636,A,504667913700360,-2.2936096,-6.25325,0.6335907,0.25445557,0.023223877,-0.1023407
1636,A,504667964054363,-2.9665833,-5.65889,-0.0060424805,0.1428833,0.02142334,-0.020339966
1636,A,504668014408367,-2.9043427,-5.8864746,0.96017456,-0.048950195,-0.42926025,0.31059265
1636,A,504668064762371,-2.831009,-8.090225,2.6412964,-0.26535034,-0.0017089844,0.36027527
1636,A,504668115116375,-4.1842346,-10.905365,4.1423492,-0.34710693,1.2431488,-0.09716797
1636,A,504668165470379,-5.276306,-11.964294,2.5299072,-0.7061157,1.0823975,-0.24197388
1636,A,504668215824383,-5.843109,-10.369446,-0.19979858,-1.0657959,0.36364746,-0.4877472
1636,A,504668266178387,-3.0647736,-6.52417,-1.9640961,-0.9734955,0.31185913,-0.38150024
1636,A,504668316532391,-2.832199,-9.00264,-0.9246979,-0.6101532,0.5185547,0.10650635
1636,A,504668366886395,-5.1647186,-9.791214,1.790863,-0.34649658,0.5569,0.32962036
1636,A,504668417240399,-3.3790283,-7.6407013,1.3146973,-0.15689087,0.32273865,0.14674377
1636,A,504668467594403,-2.09729,-7.886322,0.16926575,0.066329956,0.067871094,-0.11161804
1636,A,504668517948406,-2.8303986,-7.8885803,0.23840332,0.2721405,0.033737183,-0.42131042
1636,A,504668568302410,-2.6888885,-7.978546,1.3269196,0.43162537,-0.085739136,-0.6309204
1636,A,504668618656414,-3.1016998,-10.528885,1.0648651,0.26553345,-0.5132599,-0.27153015
1636,A,504668669010418,-3.4043884,-13.083252,0.7819214,0.080596924,-0.8852997,0.47172546
1636,A,504668719364422,-3.5960083,-11.79039,-2.6100159,0.6902313,-0.43644714,0.22901917
1636,A,504668769718426,-7.712097,-8.459732,-4.3673706,0.6922302,0.11508179,0.1706543
1636,A,504668820072430,-10.707016,-7.892273,-1.4979248,0.3899994,-0.14668274,0.41070557
1636,A,504668870426434,-3.3975372,-10.770218,1.9836426E-4,0.09446716,-0.4016571,0.18045044
1636,A,504668920780438,-1.0938263,-8.095596,0.010864258,0.06970215,-0.3742981,0.102752686
1636,A,504668971134442,-3.4657288,-5.8474274,0.09106445,0.16122437,-0.10006714,0.013809204
1636,A,504669021488446,-2.945984,-5.321533,1.1345825,0.027297974,-0.20852661,0.033340454
1636,A,504669071842449,-2.9389038,-6.1186066,1.2774811,0.28334045,-0.4022522,0.319458
1636,A,504669122196453,-3.662201,-10.084442,2.5372314,0.029541016,1.0328522,-0.18728638
1636,A,504669172550457,-3.343155,-11.971222,4.3259735,-9.3078613E-4,1.2366943,-0.25361633
1636,A,504669222904461,-8.716507,-13.135254,1.1420135,-0.43650818,0.74380493,-0.4897766
1636,A,504669273258465,-3.886383,-6.7666016,-0.8961029,-1.0245972,0.08258057,-0.57406616
1636,A,504669323602348,-1.2700653,-7.4986725,-4.133621,-1.0140839,-0.0460968,-0.13568115
1636,A,504669373956352,-5.98201,-9.302689,-1.1806488,-0.7189331,0.21575928,0.3355713
1636,A,504669424310356,-5.7316437,-6.297165,-0.18022156,-0.39736938,0.1839447,0.28871155
1636,A,504669474664360,-3.584488,-6.627411,-0.9037781,-0.116241455,-0.119384766,0.066726685
1636,A,504669525018364,-2.3651428,-7.8942566,0.10081482,-0.021835327,0.12010193,-0.1084137
1636,A,504669575372367,-3.1811218,-8.064087,0.4765625,0.26490784,0.50180054,-0.72195435
1636,A,504669625726371,-2.3592072,-9.540634,0.95895386,0.4610901,-0.5484314,-0.38871765
1636,A,504669676080375,-2.636734,-12.360596,1.3205414,0.18164063,-0.46246338,0.23068237
1636,A,504669726434379,-3.091629,-12.754532,-1.0584869,0.7102661,-0.2644348,0.46324158
1636,A,504669776788383,-5.78566,-8.950409,-4.3622284,1.0939484,-0.22200012,0.19447327
1636,A,504669827142387,-8.487518,-6.205658,-2.4391785,0.7542267,0.059173584,0.2640686
1636,A,504669877496391,-4.8233795,-10.917877,-1.8498077,0.34814453,0.19729614,0.21150208
1636,A,504669927850395,-2.4954834,-8.677963,1.1769409,0.1477356,-0.1772461,-0.004638672
1636,A,504669978204399,-2.6861267,-5.986847,0.48823547,0.1459198,0.17242432,0.17163086
1636,A,504670028558403,-3.4724426,-6.214264,0.024887085,0.46839905,-0.3190155,-0.07984924
1636,A,504670078912407,-2.28685,-6.0387115,1.3167572,-0.17016602,-0.44111633,0.7580261
1636,A,504670129266410,-3.5713806,-8.904602,2.8967133,0.0068969727,0.04876709,-0.012466431
1636,A,504670179620414,-4.1352844,-11.196503,4.136383,-0.9177246,1.8002777,0.05303955
1636,A,504670229974418,-6.261261,-13.162628,0.119644165,-0.84768677,0.046676636,-0.10292053
1636,A,504670280328422,-5.901291,-9.022034,1.1179962,-1.1743622,0.020004272,-0.58265686
1636,A,504670330682426,-0.6515045,-6.180374,-3.8188171,-0.87620544,-0.0907135,-0.22428894
1636,A,504670381036430,-4.802765,-12.927689,1.0349579,-0.64398193,0.26139832,0.09057617
1636,A,504670431390434,-6.3051147,-5.644562,0.23205566,-0.47854614,0.32580566,0.5071564
1636,A,504670481744438,-2.934906,-6.161682,0.30859375,-0.083496094,0.2006073,0.17962646
1636,A,504670532098442,-2.3283844,-8.249725,0.075653076,-0.061660767,-0.18055725,-0.024734497
1636,A,504670582452446,-2.3951874,-8.319122,0.16819763,0.030822754,0.35549927,-0.18275452
1636,A,504670632806450,-2.6622772,-8.8216095,0.4961548,0.6992645,0.046829224,-0.6117401
1636,A,504670683160453,-4.1047363,-11.509155,0.7140045,0.072021484,-1.2629852,-0.4359131
1636,A,504670733514457,-3.3638153,-12.998413,0.44979858,0.10600281,-0.8873596,0.48989868
1636,A,504670783868461,-3.6524048,-11.740067,-3.6973724,1.1329193,-0.27752686,0.22064209
1636,A,504670834222465,-10.471268,-7.3683167,-4.542465,1.2952576,-0.12945557,0.08984375
1636,A,504670884576469,-9.743469,-7.1896973,0.8714142,0.410614,0.13949585,0.34872437
1636,A,504670934930473,-2.4351807,-13.729248,-0.72158813,0.10058594,-0.027267456,-0.094192505
1636,A,504670985284477,-2.450531,-6.817795,0.13787842,0.14930725,-0.40208435,-0.09890747
1636,A,504671035638481,-2.5299377,-6.027191,0.39312744,0.37109375,0.053482056,0.0054626465
1636,A,504671085992485,-3.1961365,-4.8579407,0.085128784,-0.05354309,-0.3381195,-0.04055786
1636,A,504671136346489,-3.031128,-6.487686,1.1039886,0.26036072,-0.4180298,0.51930237
1636,A,504671186700492,-4.7822723,-11.012085,2.2526245,0.15582275,1.1966248,-0.21780396
1636,A,504671237054496,-2.6123352,-11.126068,4.126068,0.025726318,1.4110565,-0.2013092
1636,A,504671287408500,-8.206589,-12.551025,-1.5662231,-1.0938568,0.3780365,-0.56347656
1636,A,504671337762504,-2.0666656,-5.995163,-0.95570374,-1.1873779,0.17089844,-0.5292969
1636,A,504671388116508,-1.5878601,-7.850815,-2.89357,-0.82437134,0.18725586,0.14974976
1636,A,504671438470512,-6.8000336,-11.417923,0.79504395,-0.6585541,0.38442993,0.36097717
1636,A,504671488824516,-4.652466,-4.961487,0.3570099,-0.17848206,-0.10620117,0.065475464
1636,A,504671539178520,-3.0846558,-7.500992,0.2770691,-0.12088013,0.15699768,-0.23066711
1636,A,504671589532524,-2.8190155,-7.7326202,-0.7241516,-0.06123352,0.5930786,-0.5071564
1636,A,504671639886528,-3.5067291,-7.900406,0.44683838,0.7107849,-0.55622864,-0.60816956
1636,A,504671690240532,-1.4954071,-10.444565,0.9300995,0.2275238,-1.1270599,-0.09283447
1636,A,504671740594535,-3.5184479,-13.43779,-0.73005676,0.69532776,-0.6979828,0.48727417
1636,A,504671790948539,-6.3276215,-12.144775,-5.1290436,1.4782867,-0.24549866,0.38908386
1636,A,504671841302543,-9.758942,-6.2217865,-2.5306702,1.0737305,0.0022277832,0.27249146
1636,A,504671891656547,-7.099655,-9.19342,-0.04484558,0.46783447,0.13560486,0.1847229
1636,A,504671942010551,-1.2613983,-12.025879,-0.64408875,0.08805847,-0.03642273,-0.077316284
1636,A,504671992364555,-2.2233887,-7.0427094,0.878891,0.21902466,-0.17266846,-0.11186218
1636,A,504672042718559,-3.3784943,-5.437622,0.48851013,0.15760803,-0.03907776,-0.078308105
1636,A,504672093072563,-2.4026947,-4.6965485,0.4765625,-0.37313843,-0.6475525,0.2364502
1636,A,504672143426567,-2.71138,-7.9693756,1.520813,-0.20028687,-0.22221375,0.5688629
1636,A,504672193780571,-4.534973,-11.089478,2.726593,-0.34332275,1.282486,-0.19197083
1636,A,504672244134575,-4.06958,-10.703659,2.567688,-0.7779236,1.4315796,-0.2451477
1636,A,504672294488578,-6.242691,-10.663635,-0.9313965,-1.3060608,0.21728516,-0.16296387
1636,A,504672344842582,-2.4403687,-6.359604,-2.2375336,-0.8927765,0.2538147,-0.49305725
1636,A,504672395196586,-2.3465729,-8.217178,-1.6513824,-0.8452606,0.17675781,0.12463379
1636,A,504672445550590,-6.102661,-10.222549,1.7485657,-0.54582214,0.2416687,0.376297
1636,A,504672495904594,-4.277527,-5.316681,0.09790039,-0.14094543,-0.053009033,0.10523987
1636,A,504672546258598,-2.8394775,-7.9400787,-0.9169922,-0.0947113,0.20832825,-0.13609314
1636,A,504672596612602,-3.2580261,-8.252716,0.30888367,0.20819092,0.38664246,-0.52130127
1636,A,504672646966606,-3.0653076,-8.792892,0.5705719,0.604187,-0.7193451,-0.79151917
1636,A,504672697320610,-2.4089508,-11.297882,0.86605835,0.3649292,-1.4006805,-0.1930542
1636,A,504672747674614,-3.4173126,-13.00441,-1.685318,0.49061584,-0.62576294,0.41856384
1636,A,504672798028617,-6.4323883,-9.958649,-4.237732,1.1675568,-0.02720642,0.3597412
1636,A,504672848382621,-9.337753,-6.753723,-2.5557709,1.1180878,0.112716675,0.34524536
1636,A,504672898736625,-6.4738007,-11.038254,-2.105301,0.5045624,0.060134888,0.2762146
1636,A,504672949090629,-2.4840088,-11.156235,-1.0544281,0.47496033,-0.18151855,-0.053100586
1636,A,504672999444633,-2.0212555,-6.476883,0.7189026,0.47120667,-0.036819458,-0.14030457
1636,A,504673049798637,-2.8168182,-5.227463,0.18708801,0.23251343,-0.050201416,-0.055541992
1636,A,504673100152641,-3.3838196,-5.0890656,0.9325104,-0.030029297,-0.5254822,0.27064514
1636,A,504673150506645,-3.598404,-8.182343,2.3562317,-0.35569763,0.16151428,0.33622742
1636,A,504673200860649,-3.6992645,-11.223099,4.412094,-0.33396912,0.6197357,-0.024017334
1636,A,504673251214653,-7.416092,-12.932587,1.2358551,-0.9115906,0.3425598,-0.41897583
1636,A,504673301568657,-6.8861694,-9.646942,-1.7191772,-1.0778351,0.06576538,-0.63908386
1636,A,504673351922660,-2.9270935,-6.106949,-3.3218994,-0.760849,0.045410156,-0.23570251
1636,A,504673402276664,-3.9462128,-8.912506,-0.73939514,-0.628952,0.31599426,0.23875427
1636,A,504673452630668,-4.181717,-7.8335114,0.77711487,-0.32939148,0.24391174,0.26467896
1636,A,504673502984672,-3.4788666,-6.888092,-0.42858887,-0.07795715,-0.06619263,0.01121521
1636,A,504673553338676,-2.9550629,-8.222382,0.766098,-0.123703,0.21986389,-0.1594696
1636,A,504673603692680,-2.844635,-8.4796295,0.7432556,0.23532104,0.19026184,-0.5837097
1636,A,504673654046684,-2.6676178,-9.512085,0.74557495,0.48762512,-0.6370239,-0.44999695
1636,A,504673704400688,-2.4564056,-11.540924,1.0578766,0.5932007,-0.48051453,0.2523346
1636,A,504673754754692,-2.8244019,-11.772903,-2.2707672,1.1968231,-0.09465027,0.3871765
1636,A,504673805108696,-6.7312164,-10.209259,-4.131775,1.395813,0.24398804,0.18206787
1636,A,504673855462700,-9.942444,-7.2572784,-2.2296143,0.79319763,0.18606567,0.20451355
1636,A,504673905816703,-4.3565674,-8.723297,-1.390564,0.16720581,0.21536255,0.040039063
1636,A,504673956170707,-1.9046783,-10.106644,0.5704193,0.071502686,0.07447815,-0.21308899
1636,A,504674006524711,-2.2755737,-6.401581,0.3660736,0.19096375,0.21257019,0.049942017
1636,A,504674056878715,-3.3028564,-4.8014526,0.19126892,0.15710449,-0.17274475,0.03050232
1636,A,504674107232719,-2.1961823,-5.5345154,0.8082428,-0.43667603,-0.9563446,0.775589
1636,A,504674157586723,-3.2663574,-9.97702,3.7760925,-0.14814758,-0.33255005,0.26054382
1636,A,504674207940727,-5.2256775,-11.573502,4.4608917,-1.003952,1.5584564,0.044036865
1636,A,504674258294731,-6.427841,-11.448837,0.20254517,-1.014328,0.013046265,-0.20756531
1636,A,504674308648735,-7.3883514,-10.309525,-0.8293152,-1.5622711,-0.48643494,-0.7057495
1636,A,504674359002739,-2.012329,-6.528778,-3.6612854,-0.86357117,-0.36061096,-0.26470947
1636,A,504674409356742,-5.5682983,-11.186203,2.942154,-0.6112671,0.1869812,0.27079773
1636,A,504674459710746,-5.482727,-5.9456635,0.006500244,-0.338089,0.43515015,0.3250885
1636,A,504674510064750,-2.822754,-6.795761,0.6938629,-0.13850403,0.2271576,0.09690857
1636,A,504674560418754,-2.016159,-8.178711,0.54833984,-0.20909119,0.42459106,-0.18289185
1636,A,504674610772758,-1.9654999,-8.056839,0.38243103,0.21517944,0.23617554,-0.66052246
1636,A,504674661126762,-2.1467896,-8.9158325,1.1431274,0.5857849,-1.5948792,-0.29914856
1636,A,504674711480766,-3.4393463,-12.708572,0.43695068,0.15356445,-1.0191803,0.2723236
1636,A,504674761834770,-3.1954803,-12.986832,-4.0543365,0.705307,-0.5149689,0.46800232
1636,A,504674812188774,-7.889221,-8.921295,-4.834564,1.3749695,-0.38430786,0.029541016
1636,A,504674862542778,-9.860107,-5.288376,-2.7528076,0.8005829,-0.075164795,0.2598877
1636,A,504674912896782,-4.8338776,-10.507233,-2.1072235,0.2766266,0.30326843,0.086761475
1636,A,504674963250785,-1.6869354,-9.69487,0.05973816,0.06071472,0.012207031,-0.1363678
1636,A,504675013604789,-2.6014252,-5.6809998,0.43188477,0.48162842,0.39297485,0.12919617
1636,A,504675063958793,-2.279419,-5.023346,-0.003921509,0.46717834,-0.18728638,-0.17271423
1636,A,504675114312797,-1.6879272,-5.1421356,1.4789581,0.11126709,-0.9964142,0.9529877
1636,A,504675164666801,-4.0026093,-8.924652,3.784546,0.12246704,0.3409729,0.05001831
1636,A,504675215020805,-4.735794,-13.071976,3.7429047,-1.0819702,2.6021729,-0.20098877
1636,A,504675265374809,-7.5639954,-13.266418,0.3877716,-0.88897705,-0.008529663,-0.29660034
1636,A,504675315728813,-5.5801697,-8.929062,-0.32609558,-1.5854492,0.04135132,-0.5447235
1636,A,504675366082817,0.31306458,-6.923065,-2.8937988,-0.8851166,-0.25804138,-0.09715271
1636,A,504675416436821,-8.358627,-12.425308,1.1238556,-0.67359924,0.3151703,0.37582397
1636,A,504675466790825,-5.108429,-4.8728943,0.533905,-0.36061096,0.2778778,0.4512024
1636,A,504675517144828,-2.4515991,-5.923538,-0.16612244,-0.15353394,0.11369324,0.1131134
1636,A,504675567498832,-2.1606903,-7.522583,-0.375,-0.036392212,0.108306885,-0.088409424
1636,A,504675617852836,-2.8192291,-8.005524,-0.08547974,0.45085144,0.57922363,-0.76852417
1636,A,504675668206840,-2.0918884,-9.188522,1.6191406,0.88819885,-1.6697083,-0.2771759
1636,A,504675718560844,-3.550171,-12.834122,0.4917755,-0.008911133,0.5280609,-0.0033721924
1636,A,504675768914848,-3.4179688,-11.629562,-2.419571,1.543457,-0.36186218,0.1564331
1636,A,504675819268852,-6.2829437,-8.6523285,-4.9521637,1.5940399,-0.09976196,0.24494934
1636,A,504675869622856,-11.544647,-7.3388824,-3.2882233,0.5755005,0.49053955,0.21035767
1636,A,504675919976860,-4.599365,-11.702209,-1.5481262,0.6534729,0.45004272,0.024917603
1636,A,504675970330864,-2.6027222,-11.010635,0.00970459,0.1817627,-0.11894226,-0.23558044
1636,A,504676020684867,-2.4049225,-4.214035,0.43829346,0.2680664,0.38328552,0.010345459
1636,A,504676071038871,-2.5341187,-4.701111,-0.030944824,0.26560974,-0.34584045,-0.20083618
1636,A,504676121392875,-2.238205,-5.2678223,0.56547546,0.06640625,-0.44815063,0.70166016
1636,A,504676171746879,-5.307251,-7.951477,2.0526123,0.19503784,0.58761597,0.055160522
1636,A,504676222100883,-3.6031952,-13.541565,4.689377,-0.8738861,1.9504089,-0.05064392
1636,A,504676272454887,-6.7056427,-13.0278015,2.3090057,-1.2702789,0.09663391,-0.40974426
1636,A,504676322808891,-8.293884,-10.809128,0.115356445,-1.4676361,0.007843018,-0.614975
1636,A,504676373162895,-1.8000336,-6.540085,-3.0221405,-1.0919037,0.10461426,0.0135650635
1636,A,504676423516899,-6.211075,-12.32431,3.7403564,-0.8029785,0.18188477,0.23391724
1636,A,504676473870903,-4.7032013,-4.744507,-0.18855286,-0.42100525,-0.14709473,0.09182739
1636,A,504676524224907,-2.97641,-7.477173,0.9863739,-0.2490387,0.053878784,-0.236969
1636,A,504676574578910,-3.5062866,-6.8593597,-0.24967957,-0.024993896,0.4028778,-0.5842743
1636,A,504676624932914,-2.9485016,-8.087738,0.39707947,0.50445557,-0.2558899,-0.8872833
1636,A,504676675286918,-1.1876068,-10.081039,1.5073395,0.6936798,-1.5804901,-0.17797852
1636,A,504676725640922,-2.9858856,-12.656738,-0.38537598,0.5470886,-0.7233734,0.24711609
1636,A,504676775994926,-4.2583923,-10.383331,-4.57283,0.9949646,-0.5007782,0.3008423
1636,A,504676826348930,-9.001816,-8.598175,-3.4296875,1.0389099,-0.2091217,0.28515625
1636,A,504676876702934,-9.002274,-8.980194,-1.9463501,0.46470642,0.34013367,0.24531555
1636,A,504676927056938,-3.9368439,-11.007996,-1.5708313,0.30776978,0.32963562,0.08895874
1636,A,504676977410942,-2.3572388,-8.141373,2.1539612,0.31311035,0.19865417,0.072143555
1636,A,504677027764946,-2.2952423,-4.3157654,0.5095978,0.34361267,0.104278564,0.15829468
1636,A,504677078118950,-1.7578278,-5.0210724,-0.16139221,0.16111755,-0.8100586,0.40534973
1636,A,504677128472953,-2.6127472,-6.1243134,2.2677765,-0.12155151,-0.6251068,0.6395416
1636,A,504677178826957,-4.5631866,-10.265106,4.2035675,-0.2751007,0.71681213,0.052459717
1636,A,504677229180961,-6.1819,-12.906067,2.117691,-1.0182953,0.76916504,-0.06729126
1636,A,504677279534965,-6.7831573,-10.456818,-0.81074524,-1.4363708,-0.24850464,-0.5384979
1636,A,504677329888969,-3.5178375,-7.521866,-1.233841,-1.638794,-0.34049988,-0.40956116
1636,A,504677380242973,-3.5861053,-9.907349,0.44493103,-1.14328,-0.42486572,0.084854126
1636,A,504677430596977,-6.1621857,-10.082489,3.519394,-0.83843994,-0.16374207,0.35714722
1636,A,504677480950981,-4.2551117,-5.7493286,-0.29647827,-0.2791443,0.0034942627,0.16567993
1636,A,504677531304985,-3.3562775,-6.9170074,0.16256714,-0.17340088,0.6231079,-0.2445221
1636,A,504677581658989,-2.490921,-7.095993,0.09753418,0.2511139,0.48545837,-0.58784485
1636,A,504677632012992,-1.7822571,-8.166779,1.217041,0.6979828,-0.9898834,-0.5651245
1636,A,504677682366996,-1.8805542,-11.101868,1.5553131,0.2306366,-1.2671814,0.058761597
1636,A,504677732721000,-3.145462,-13.916519,-2.2656708,0.9098816,-0.7436218,0.36183167
1636,A,504677783075004,-6.9421387,-10.904129,-4.8620453,1.9450226,-0.17601013,0.14030457
1636,A,504677833429008,-9.843735,-7.951889,-1.8412781,1.2723236,0.11941528,0.15063477
1636,A,504677883783012,-6.1420135,-11.5061035,-1.916748,0.4673767,0.3481598,0.03555298
1636,A,504677934137016,-2.2200928,-10.684921,0.26600647,0.384552,0.13264465,-0.15168762
1636,A,504677984491020,-1.6013489,-5.920166,0.78785706,0.38671875,0.009719849,0.006454468
1636,A,504678034845024,-2.430359,-3.8222656,-0.42399597,0.22721863,-0.24060059,0.091415405
1636,A,504678085199028,-2.2799988,-4.395447,0.8950348,0.24935913,-0.808609,0.4373169
1636,A,504678135553032,-3.910019,-8.965851,1.9874725,0.038146973,0.75642395,0.27842712
1636,A,504678185907035,-3.6508484,-10.539444,4.01326,0.13578796,1.0641937,-0.2298584
1636,A,504678236261039,-7.376541,-12.416885,0.27772522,-1.0888214,0.26826477,-0.53289795
1636,A,504678286615043,-4.75,-9.235626,-2.7845306,-1.5895691,0.12182617,-0.60713196
1636,A,504678336969047,-0.86387634,-5.7669525,-3.829193,-1.065445,0.0793457,-0.08766174
1636,A,504678387323051,-7.0090027,-9.649567,-1.5189209,-0.9042206,0.2185669,0.32821655
1636,A,504678437677055,-5.8806305,-7.5026093,-0.35768127,-0.42546082,0.11090088,0.21394348
1636,A,504678488031059,-3.7298126,-6.7879333,-0.2601776,-0.053253174,-0.20628357,-0.07220459
1636,A,504678538385063,-3.077118,-7.116745,1.1761322,-0.05366516,0.42985535,-0.36515808
1636,A,504678588739067,-2.3079987,-7.697571,1.0668488,0.44692993,0.3564148,-0.7949219
1636,A,504678639093071,-2.6822968,-9.851288,1.3539276,0.6045227,-1.3103485,-0.47114563
1636,A,504678689447075,-1.9346313,-12.236847,1.9167786,0.6724701,-1.028122,0.12246704
1636,A,504678739801078,-2.0091858,-10.779953,-2.652588,1.8347168,-0.07699585,0.26139832
1636,A,504678790155082,-8.681488,-9.831787,-4.445633,1.5330658,0.41815186,0.34220886
1636,A,504678840509086,-9.8532715,-8.940186,-3.6833038,0.841629,0.65437317,0.30867004
1636,A,504678890863090,-2.1707306,-10.79303,-0.6583557,0.35025024,0.5014801,-0.005218506
1636,A,504678941217094,-1.2333679,-10.011505,0.8894806,0.14674377,0.19018555,-0.08868408
1636,A,504678991571098,-2.2773895,-5.7401276,-0.44132996,0.45040894,0.08883667,-0.0184021
1636,A,504679041925102,-2.1769867,-3.8697968,0.34083557,-0.11140442,-0.68647766,0.44239807
1636,A,504679092279106,-2.3204956,-4.762726,1.0219269,0.4103546,-0.8761902,0.36479187
1636,A,504679142633110,-5.39209,-10.960281,3.3933868,-0.64767456,0.85687256,0.1387024
1636,A,504679192987114,-4.216507,-10.392654,4.815735,0.30685425,1.0697021,-0.2545929
1636,A,504679243341117,-10.813843,-15.330551,0.83047485,-1.1834106,0.53230286,-0.56729126
1636,A,504679293695121,-2.7416687,-7.0722504,-1.9629211,-1.7415619,0.018951416,-0.5582123
1636,A,504679344062064,-2.7546234,-7.2341766,-6.0366364,-1.1512451,0.039596558,-0.11029053
1636,A,504679394416068,-7.5605316,-10.401245,-1.7081451,-0.8488159,0.114593506,0.16044617
1636,A,504679444770072,-4.3786316,-6.599518,-1.5192566,-0.5279846,0.3441925,0.28408813
1636,A,504679495124076,-3.9633026,-8.427994,1.093811,-0.11639404,0.09918213,0.05810547
1636,A,504679545478080,-2.5098572,-6.8684998,1.2350464,-0.117752075,0.32987976,-0.23472595
1636,A,504679595832084,-1.6706238,-7.5382996,1.171875,0.10256958,0.60839844,-0.7921448
1636,A,504679646186088,-1.7959747,-8.552078,1.3154602,0.8296051,-0.83369446,-0.061187744
1636,A,504679696540092,-2.6019592,-12.380096,1.6860504,0.45881653,-0.99780273,0.22773743
1636,A,504679746894096,-2.5206604,-12.511307,-3.1447296,0.6681671,-0.19416809,0.3581543
1636,A,504679797248099,-6.791992,-9.691071,-4.127243,1.6624146,-0.13171387,0.30578613
1636,A,504679847602103,-9.579376,-8.307999,-3.2476196,0.93670654,0.40415955,0.30429077
1636,A,504679897956107,-5.5767365,-9.400299,-3.525879,0.43571472,0.5142822,0.079315186
1636,A,504679948310111,-1.5396118,-12.238693,2.4095764,0.07936096,-0.3597107,-0.15541077
1636,A,504679998664115,-1.6452942,-5.10878,0.96928406,0.27694702,0.038116455,0.0521698
1636,A,504680049018119,-2.989029,-5.040207,-0.7518616,0.09942627,-0.47442627,-0.23271179
1636,A,504680099372123,-1.7674866,-4.359268,0.40699768,0.048324585,-0.9612732,0.908371
1636,A,504680149726127,-4.8659515,-8.372437,2.4599457,0.18458557,0.60035706,-0.023910522
1636,A,504680200080131,-3.1910095,-11.494339,5.6362305,-1.2093506,1.8757629,-0.15226746
1636,A,504680250434135,-7.694031,-13.098846,2.9090118,-1.1978302,0.08389282,-0.023254395
1636,A,504680300788139,-5.322357,-9.406494,0.25941467,-1.7523041,0.11891174,-0.6635895
1636,A,504680351142142,-1.1334686,-6.4307556,-4.1960297,-0.8165436,-0.38424683,-0.14692688
1636,A,504680401496146,-6.911682,-15.315201,5.431534,-0.6201019,0.5567322,0.22743225
1636,A,504680451850150,-4.5275116,-3.1044617,1.0830841,-0.39663696,-0.090789795,0.20796204
1636,A,504680502204154,-2.7430573,-7.3843536,0.16255188,-0.188797,0.12974548,-0.11190796
1636,A,504680552558158,-2.4252472,-6.6796875,-1.1176605,-0.17701721,0.24212646,-0.3108673
1636,A,504680602912162,-3.230423,-8.043198,1.1554871,0.24963379,0.19906616,-0.9289398
1636,A,504680653266166,-1.1243439,-8.450119,1.7109528,0.56752014,-1.8572083,-0.20478821
1636,A,504680703620170,-2.8315277,-13.063187,0.919754,0.11366272,-1.0568237,0.2237091
1636,A,504680753974174,-3.9171295,-11.257034,-3.9364624,0.7201843,-1.1096649,0.37161255
1636,A,504680804328178,-6.943268,-8.586365,-3.877121,1.3898468,-0.42121887,0.13795471
1636,A,504680854682181,-11.142319,-6.9500885,-2.4774933,0.69462585,0.024337769,0.35227966
1636,A,504680905036185,-4.7852783,-11.314484,-2.5285645,0.39974976,0.36637878,0.11465454
1636,A,504680955390189,-1.3726349,-9.54245,1.7068329,0.4914093,-0.0262146,-0.20249939
1636,A,504681005744193,-2.210144,-5.19104,0.9510498,0.3750763,0.24783325,-0.003250122
1636,A,504681056098197,-1.493393,-5.3824615,0.44418335,0.3419037,-0.30882263,0.1666565
1636,A,504681106452201,-1.8889313,-4.909729,0.87197876,0.07911682,-0.5836792,0.78959656
1636,A,504681156806205,-3.5576935,-9.062576,4.0145264,0.12371826,0.918869,0.06578064
1636,A,504681207160209,-5.3088226,-12.846024,3.4746552,-0.46095276,0.85095215,-0.07157898
1636,A,504681257514213,-7.936493,-12.898346,-1.8036041,-1.5336456,-0.06878662,-0.44529724
1636,A,504681307868217,-3.1988983,-7.0029907,-1.3084106,-1.4077606,-0.14378357,-0.3627777
1636,A,504681358222221,-3.591278,-8.255234,-2.4958801,-1.052185,-0.04396057,0.2096405
1636,A,504681408576224,-7.4314117,-12.5499115,4.2422485,-0.75465393,-0.13537598,0.33496094
1636,A,504681458930228,-3.7532349,-5.7711487,-1.3813934,-0.32055664,0.1737976,0.1864624
1636,A,504681509284232,-3.167389,-7.413788,1.339447,-0.1486206,0.33743286,-0.097091675
1636,A,504681559638236,-3.2982635,-6.759781,0.8739166,0.15570068,0.4972992,-0.5937042
1636,A,504681609992240,-1.7960358,-8.04657,1.564743,0.7672882,-0.26208496,-0.805954
1636,A,504681660346244,-1.7645569,-9.878128,2.233261,0.3023529,-0.74664307,-0.106155396
1636,A,504681710700248,-3.7000275,-13.187012,-0.77853394,0.87672424,-0.41680908,0.39950562
1636,A,504681761054252,-5.645981,-11.588257,-4.884903,1.5063782,-0.17190552,0.30628967
1636,A,504681811408256,-10.409622,-8.277695,-2.4353027,1.1876068,0.28405762,0.33442688
1636,A,504681861762260,-7.789917,-9.524384,-2.3615112,0.44812012,0.59220886,0.26245117
1636,A,504681912116264,-1.4880981,-11.363037,0.4125824,0.34474182,0.31089783,-0.11747742
1636,A,504681962470267,-2.3191376,-5.7666016,1.3821259,0.29496765,0.046905518,-0.03816223
1636,A,504682012824271,-2.1526794,-4.326355,-0.27911377,0.11135864,-0.034103394,0.21469116
1636,A,504682063178275,-2.4625397,-4.396103,0.0025177002,0.1869812,-0.77204895,0.36264038
1636,A,504682113532279,-4.277481,-7.998657,2.0317688,0.10513306,-0.22181702,0.16764832
1636,A,504682163886283,-5.695511,-11.480392,3.4109344,-0.20433044,0.9277191,-0.14685059
1636,A,504682214240287,-7.6766205,-13.125168,1.260788,-0.7345581,0.7962189,-0.17030334
1636,A,504682264594291,-7.709778,-11.061981,-3.4885101,-1.291153,-0.055252075,-0.60910034
1636,A,504682314948295,-1.7974701,-5.309067,-2.634781,-1.1496735,-0.14038086,-0.3812561
1636,A,504682365302299,-4.2436523,-9.133438,-0.58447266,-0.874588,0.1451416,0.17114258
1636,A,504682415656303,-5.8534393,-9.769974,3.1140594,-0.61557007,0.23924255,0.27624512
1636,A,504682466010306,-3.286728,-6.4273376,0.621109,-0.27848816,0.04762268,0.10928345
1636,A,504682516364310,-2.3316193,-7.4829865,1.4802094,-0.12896729,0.20927429,-0.20135498
1636,A,504682566718314,-2.957718,-7.0128174,0.93888855,0.41983032,0.20249939,-0.6111603
1636,A,504682617072318,-2.438858,-8.246445,0.7992401,0.66163635,-0.8223572,-0.6118927
1636,A,504682667426322,-2.0792084,-11.340256,1.5387878,0.19277954,-1.0898743,0.08355713
1636,A,504682717780326,-2.7717133,-12.9986725,-1.8040771,0.69195557,-0.2668457,0.3774109
1636,A,504682768134330,-6.0241394,-10.974335,-4.716736,1.36763,-0.069869995,0.21707153
1636,A,504682818488334,-10.363983,-7.577957,-2.47081,0.9610901,0.03916931,0.2472992
1636,A,504682868842338,-6.708542,-8.777466,-0.6068573,0.4343567,0.26437378,0.07685852
1636,A,504682919196342,-1.072403,-10.243759,0.27145386,0.24325562,0.05227661,-0.17861938
1636,A,504682969550346,-1.6607819,-6.3573456,0.44256592,0.2469635,0.04170227,-0.13189697
1636,A,504683019904349,-2.5856934,-4.3057556,0.32769775,-0.014709473,-0.33041382,0.08204651
1636,A,504683070258353,-2.6068878,-5.1612854,0.9312744,0.23326111,-0.7856293,0.39956665
1636,A,504683120612357,-4.314041,-9.662796,1.9387207,0.13069153,0.7121277,0.07757568
1636,A,504683170966361,-3.777298,-11.642548,3.8171692,-0.0119018555,0.9454651,-0.08230591
1636,A,504683221320365,-9.515396,-12.695358,-0.89634705,-0.90641785,0.3210144,-0.33714294
1636,A,504683271674369,-5.6445007,-8.212326,-3.55542,-1.2734985,0.11735535,-0.41342163
1636,A,504683322028373,0.0048065186,-6.107559,-4.048065,-1.0706024,0.0027770996,0.014129639
1636,A,504683372382377,-5.3678284,-7.5066376,-1.5376892,-0.7956848,0.15084839,0.43841553
1636,A,504683422736381,-5.299835,-6.241272,-0.24060059,-0.25064087,0.12913513,0.2637787
1636,A,504683473090385,-3.0069427,-6.167053,-0.7462616,-0.017150879,-0.057907104,-0.0730896
1636,A,504683523444389,-2.7175293,-7.2807465,0.26533508,0.0063171387,0.47280884,-0.44754028
1636,A,504683573798392,-2.702362,-7.318115,0.5047302,0.47253418,-0.112854004,-0.8101196
1636,A,504683624152396,-2.5693512,-10.630875,0.079452515,0.36912537,-0.36550903,-0.47424316
1636,A,504683674506400,-2.255844,-12.903992,1.3937988,0.2322998,-0.6640625,0.26475525
1636,A,504683724860404,-2.8621826,-10.928909,-3.317749,0.8835449,0.13781738,0.25668335
1636,A,504683775214408,-9.917435,-11.802933,-4.1896057,0.8741913,0.5196991,0.50553894
1636,A,504683825568412,-14.366669,-9.282501,-3.1445007,0.38804626,0.1399231,0.34739685
1636,A,504683875922416,-3.3785553,-9.937546,-0.40768433,0.27975464,-0.2861786,-0.081954956
1636,A,504683926276420,-0.8116913,-8.498062,0.5682678,0.15719604,-0.28199768,-0.14860535
1636,A,504683976630424,-2.3364258,-5.257019,-0.8935547,0.19572449,-0.2815857,-0.03337097
1636,A,504684026984428,-3.1146393,-3.283554,0.622818,-0.1023407,-0.5303192,0.10017395
1636,A,504684077338431,-3.6031647,-4.95842,0.52305603,0.28326416,-0.8332977,0.41386414
1636,A,504684127692435,-6.378998,-12.331665,1.0657349,0.13070679,1.2358093,-0.13319397
1636,A,504684178046439,-3.3685455,-11.2920685,5.079361,-0.0029296875,0.43615723,-0.111450195
1636,A,504684228400443,-10.773254,-12.565933,-1.2405548,-1.1091003,0.14430237,-0.45332336
1636,A,504684278754447,-3.3667297,-6.6132965,-2.9000854,-1.0062408,-0.25120544,-0.3789215
1636,A,504684329108451,-0.2761078,-6.595276,-5.1295166,-1.0068512,0.1643982,0.13885498
1636,A,504684379462455,-6.7374115,-7.556473,0.8846741,-0.73820496,0.3043213,0.50276184
1636,A,504684429816459,-4.461624,-5.511139,0.3307953,-0.17912292,0.10656738,0.110443115
1636,A,504684480170463,-2.304184,-7.273285,-1.43219,-0.0038146973,0.0756073,-0.17414856
1636,A,504684530524467,-2.6657104,-8.327789,0.81256104,-0.08047485,0.6996918,-0.6183319
1636,A,504684580878471,-2.677887,-7.67717,1.0467682,0.93803406,-0.6622925,-0.7082367
1636,A,504684631232474,-2.2127838,-11.236176,0.43772888,0.13749695,-0.77072144,-0.080093384
1636,A,504684681586478,-2.7954254,-12.772079,0.26641846,0.3000641,-0.86994934,0.5054016
1636,A,504684731940482,-4.804001,-10.875458,-3.8817902,1.0657806,0.00730896,0.2026825
1636,A,504684782294486,-13.143326,-9.767838,-4.9869843,0.9346161,-0.20576477,0.46653748
1636,A,504684832648490,-8.941727,-8.39418,-1.5275574,0.22994995,0.11830139,0.2983551
1636,A,504684883002494,-1.1889191,-11.653503,-0.7462616,0.07107544,-0.13270569,-0.19255066
1636,A,504684933356498,-2.0374756,-6.7827606,0.62132263,0.13050842,-0.29458618,-0.12538147
1636,A,504684983710502,-2.5852509,-5.078247,0.34355164,0.20925903,-0.29862976,-0.170578
1636,A,504685034064506,-2.2958832,-4.0563965,1.1467438,-0.22163391,-0.59814453,0.30056763
1636,A,504685084418510,-3.358902,-6.624756,2.0309906,0.47924805,-0.7404938,0.5644531
1636,A,504685134772514,-7.2586365,-14.020233,2.1090393,-0.42668152,2.1463318,-0.35510254
1636,A,504685185126517,-1.9147491,-8.681412,6.387619,-0.026031494,-0.23646545,0.09906006
1636,A,504685235480521,-14.110626,-14.749817,-2.1693573,-1.3832855,0.036880493,-0.46748352
1636,A,504685285834525,0.8180847,-3.6724396,-3.1388702,-1.1704712,-0.39274597,-0.36343384
1636,A,504685336188529,-0.58525085,-8.339645,-6.2505646,-0.8402405,0.01637268,0.1293335
1636,A,504685386542533,-8.550354,-7.1920013,1.0298767,-0.67492676,0.34332275,0.5340729
1636,A,504685436896537,-4.0940094,-5.419571,-0.54956055,-0.093826294,0.05055237,0.09951782
1636,A,504685487250541,-1.9502716,-7.368683,-0.59935,-0.00592041,-0.03605652,-0.06964111
1636,A,504685537604545,-2.347641,-8.1666565,0.47454834,0.14337158,0.56617737,-0.39413452
1636,A,504685587958549,-2.5004883,-8.658554,1.0362701,0.92836,-0.1546936,-0.5990448
1636,A,504685638312553,-2.9517975,-12.396698,0.41236877,-0.2605133,-0.7496948,-0.18109131
1636,A,504685688666556,-3.0000916,-12.443298,0.46740723,0.6639862,-0.64201355,0.5033417
1636,A,504685739020560,-4.424225,-10.740524,-4.7211304,1.7218018,-0.07798767,0.20851135
1636,A,504685789374564,-12.570099,-9.256119,-4.1267242,1.2658691,0.4220276,0.16313171
1636,A,504685839728568,-9.481537,-8.477493,0.8715515,0.44178772,0.42253113,0.19270325
1636,A,504685890082572,0.27505493,-12.312714,-0.34754944,0.20353699,-0.015945435,-0.19342041
1636,A,504685940436576,-2.3112793,-6.442276,0.0018615723,0.1658783,-0.067733765,-0.07295227
1636,A,504685990790580,-3.4259796,-5.185425,0.25776672,0.16888428,-0.13058472,-0.16291809
1636,A,504686041144584,-2.4997253,-4.5581665,0.76194763,-0.2922058,-0.4406891,0.1981659
1636,A,504686091498588,-3.4168396,-7.5489807,1.8454285,0.31324768,0.029022217,0.4330597
1636,A,504686141852592,-4.976761,-12.471451,3.9980621,-0.2301178,1.1265106,-0.13150024
1636,A,504686192206596,-4.2167206,-11.029755,3.3585205,-0.022521973,0.4457245,-0.20639038
1636,A,504686242560599,-10.912079,-12.496475,-2.591446,-1.5506744,-0.114746094,-0.5375366
1636,A,504686292914603,-1.3303528,-4.0047607,-2.7978973,-0.7468872,0.24230957,-0.2995453
1636,A,504686343268607,-2.9048004,-7.444275,-3.3101044,-0.70643616,0.18598938,0.2475586
1636,A,504686393622611,-6.573044,-8.087616,-0.44918823,-0.6195526,0.25338745,0.31929016
1636,A,504686443976615,-3.3426514,-6.0184937,0.014328003,-0.23426819,-0.16036987,-0.06768799
1636,A,504686494330619,-2.9957123,-7.131775,-1.774704,-0.03630066,-0.08908081,-0.3617096
1636,A,504686544684623,-2.3299866,-7.771103,0.6636505,0.31582642,0.034744263,-0.61639404
1636,A,504686595038627,-2.9405212,-9.888397,0.3757782,0.6172638,-0.9914093,-0.32485962
1636,A,504686645392631,-3.4518738,-12.464798,0.2772827,0.056274414,-0.25880432,0.008453369
1636,A,504686695746635,-3.0533142,-11.611359,-1.279953,1.2730408,-0.35681152,0.19506836
1636,A,504686746100639,-6.8044434,-10.560577,-4.466797,1.5097656,0.16899109,0.28625488
1636,A,504686796454642,-11.138672,-9.723816,-3.492218,0.846405,0.5902405,0.27261353
1636,A,504686846808646,-4.7708893,-11.913483,-1.2656403,0.2850952,0.5151062,0.07785034
1636,A,504686897162650,-2.0488586,-11.33876,1.1205292,0.064941406,0.15628052,-0.14891052
1636,A,504686947516654,-2.184311,-4.9013214,0.4922943,0.13143921,0.028640747,-0.1157074
1636,A,504686997870658,-1.895874,-4.3151093,-0.27548218,-0.031311035,-0.20611572,0.058883667
1636,A,504687048224662,-2.569397,-4.712494,1.54245,-0.33764648,-0.69129944,0.56777954
1636,A,504687098578666,-4.6311646,-9.344925,2.8634949,-0.21887207,-0.06523132,0.37709045
1636,A,504687148932670,-4.844757,-12.243378,3.6448517,-0.5726929,0.52401733,-0.14759827
1636,A,504687199286674,-7.613037,-11.522842,3.1528625,-0.94963074,-0.17114258,-0.3006134
1636,A,504687249640678,-8.670074,-9.746262,-2.1865692,-1.5457764,-0.1619873,-0.37532043
1636,A,504687299994681,-1.9900818,-6.067093,-3.446106,-1.2123871,-0.19390869,-0.10762024
1636,A,504687350348685,-5.238617,-7.967499,-2.2442627,-0.90237427,0.09295654,0.363266
1636,A,504687400702689,-5.2534943,-6.424576,-0.18559265,-0.4628601,0.19242859,0.3642578
1636,A,504687451056693,-2.9314575,-6.350769,0.4220276,-0.07699585,0.061660767,-2.1362305E-4
1636,A,504687501410697,-2.4961853,-8.164963,1.1067657,0.010299683,0.4656067,-0.39945984
1636,A,504687551764701,-1.8131866,-8.446793,0.80281067,0.48249817,-0.035842896,-0.5899658
1636,A,504687602118705,-2.344162,-9.853607,0.6321869,0.44226074,-0.80815125,-0.28131104
1636,A,504687652472709,-2.6038208,-12.258331,-0.23199463,0.15261841,-0.81611633,0.21989441
1636,A,504687702826713,-4.1348724,-12.221405,-2.4663086,0.7848816,-0.016479492,0.2899475
1636,A,504687753180717,-10.101135,-10.321533,-3.6974182,1.1490479,0.17684937,0.31607056
1636,A,504687803534721,-10.685638,-8.825836,-2.5718536,0.58929443,0.15078735,0.36801147
1636,A,504687853888724,-4.36467,-10.346191,-0.9376068,0.20462036,0.19395447,0.03378296
1636,A,504687904242728,-1.5481567,-8.6353,-0.20443726,0.28393555,-0.084487915,-0.1630249
1636,A,504687954596732,-1.8706665,-5.071533,-0.057876587,0.25845337,-0.052001953,-0.051223755
1636,A,504688004950736,-2.8798218,-4.117218,0.059448242,-0.09811401,-0.45341492,0.25053406
1636,A,504688055304740,-2.9298553,-5.6072235,0.88327026,0.0978241,-0.9039154,0.5010376
1636,A,504688105658744,-4.8335876,-10.698334,1.2220154,-0.03024292,0.93595886,0.013626099
1636,A,504688156012748,-4.030426,-11.060425,4.473709,0.1631012,0.9680176,-0.12451172
1636,A,504688206366752,-11.245468,-12.876358,0.21894836,-0.91233826,0.112075806,-0.37083435
1636,A,504688256720756,-5.8693542,-8.516373,-2.9834747,-1.3251953,-0.06896973,-0.47769165
1636,A,504688307074760,-0.30241394,-5.408676,-4.9854584,-0.9253998,-0.07640076,-0.020690918
1636,A,504688357428764,-6.1957245,-7.6731415,-2.2635193,-0.77175903,0.28634644,0.47143555
1636,A,504688407782767,-5.5283813,-6.320572,-0.20318604,-0.2794342,0.21551514,0.3262787
1636,A,504688458136771,-2.9480896,-5.995682,-1.6822205,0.041152954,0.016311646,0.056930542
1636,A,504688508490775,-2.3760376,-7.5217133,0.04600525,-0.0158844,0.7898712,-0.33309937
1636,A,504688558844779,-2.5405731,-8.046463,0.22213745,0.8686218,-0.19078064,-0.6195526
1636,A,504688609198783,-2.5009155,-10.1671295,1.1980438,0.119140625,-0.14331055,-0.3328247
1636,A,504688659552787,-2.7526245,-12.553787,0.37739563,0.45988464,-0.5409546,0.30226135
1636,A,504688709906791,-4.4832306,-12.556122,-4.1870117,1.4456329,-0.47058105,0.27268982
1636,A,504688760260795,-10.821991,-9.321243,-4.9016724,1.4644928,0.23242188,0.173172
1636,A,504688810614799,-8.783066,-8.866333,-2.65271,0.7097931,0.4192505,0.16642761
1636,A,504688860968803,-2.5472107,-12.427444,-0.9827118,0.3126526,0.16775513,-0.20397949
1636,A,504688911322806,-1.3301086,-7.045517,0.23904419,0.044662476,-0.19509888,-0.113967896
1636,A,504688961676810,-2.1819763,-5.2401733,-0.39767456,0.37799072,-0.16685486,-0.06919861
1636,A,504689012030814,-2.842682,-3.9613647,0.48277283,-0.59007263,-0.95747375,0.7706909
1636,A,504689062384818,-3.3479156,-6.0568085,1.1219177,0.31860352,-0.49752808,0.053009033
1636,A,504689112738822,-6.0755005,-11.897171,2.3271637,-0.98576355,1.7988434,-0.22280884
1636,A,504689163092826,-5.557083,-12.896988,6.3722534,-0.548996,0.27401733,-0.21139526
1636,A,504689213446830,-8.837418,-11.410599,3.1664734,-1.3216705,0.24264526,-0.47418213
1636,A,504689263800834,-0.8611145,-4.7009277,-2.336319,-1.0536041,0.53845215,-0.23275757
1636,A,504689314136255,-4.037613,-10.871841,-2.9360962,-0.8050537,0.36279297,0.15516663
1636,A,504689364490259,-6.1982727,-6.0719757,-0.74850464,-0.631546,0.33769226,0.53593445
1636,A,504689414844263,-3.1901855,-7.5102844,0.1756897,-0.27041626,0.15394592,0.1789856
1636,A,504689465198266,-2.9181976,-6.320877,-2.3552856,-0.12284851,-0.11000061,-0.13313293
1636,A,504689515552270,-3.0939941,-7.7035217,0.6886139,0.042144775,0.6561432,-0.65748596
1636,A,504689565906274,-2.7944794,-8.228683,0.90270996,0.66947937,-0.8102112,-0.6074066
1636,A,504689616260278,-3.5035248,-11.350739,0.12263489,0.14788818,-0.7576294,-0.27752686
1636,A,504689666614282,-2.6952667,-12.445465,-0.7610626,0.1899414,-0.83117676,0.5569
1636,A,504689716968286,-5.0216064,-10.906006,-3.5778503,1.3153839,0.25837708,0.14451599
1636,A,504689767322290,-13.660812,-9.825272,-2.7007751,1.1969299,-0.1639862,0.42294312
1636,A,504689817676294,-8.978668,-9.539154,-2.789917,0.36026,0.20133972,0.34153748
1636,A,504689868030298,-2.1536865,-11.379883,-0.16610718,0.044067383,-0.12693787,-0.1598053
1636,A,504689918384302,-1.5566559,-6.3571167,0.3945465,0.29589844,-0.34429932,-0.10896301
1636,A,504689968738306,-1.8453064,-4.9486084,-0.60035706,0.25819397,-0.2224884,-0.10734558
1636,A,504690019092309,-3.01062,-3.4346008,0.44882202,-0.34069824,-0.7232361,0.35411072
1636,A,504690069446313,-3.4912415,-6.9905396,1.6588898,0.25656128,-1.0566254,0.48477173
1636,A,504690119800317,-6.2491455,-14.031387,2.0239868,-0.22085571,1.92659,-0.296463
1636,A,504690170154321,-2.7677612,-9.985535,6.5407867,0.41485596,0.6301422,-0.043273926
1636,A,504690220508325,-14.938675,-13.8619995,-2.265396,-1.4902649,0.4096527,-0.5775604
1636,A,504690270862329,0.32322693,-4.265869,-2.9439697,-1.2061615,0.15394592,-0.44129944
1636,A,504690321216333,-2.2846375,-7.272339,-5.6739197,-0.77178955,0.0045166016,0.1554718
1636,A,504690371570337,-9.044113,-9.230225,-0.84599304,-0.63031006,0.22853088,0.44937134
1636,A,504690421924341,-3.346634,-4.659073,-0.09547424,-0.17539978,0.026779175,0.03125
1636,A,504690472278345,-2.732254,-7.2907104,-1.3187408,0.047836304,-0.146698,-0.22050476
1636,A,504690522632348,-2.5026245,-7.55484,0.401886,0.2027893,0.7991638,-0.64224243
1636,A,504690572986352,-3.0055542,-8.161423,1.1280823,0.9829712,-0.36271667,-0.7498627
1636,A,504690623340356,-3.0789032,-12.026993,0.7114868,-0.22158813,-0.7299042,-0.22151184
1636,A,504690673694360,-2.890854,-12.661179,0.55856323,0.8561554,-0.6451874,0.26771545
1636,A,504690724048364,-4.30011,-10.6826935,-5.0079803,1.8618927,-0.27879333,0.24758911
1636,A,504690774402368,-13.619308,-9.568466,-4.180298,1.131073,0.79956055,0.25834656
1636,A,504690824756372,-8.002762,-10.383682,-1.6348267,0.4514618,0.5858917,0.17903137
1636,A,504690875110376,0.614975,-13.011505,0.9919281,0.3327179,0.14094543,-0.18785095
1636,A,504690925464380,-1.77565,-5.3183136,0.45224,-0.11920166,-0.0033569336,-0.021759033
1636,A,504690975818384,-1.4181061,-3.8535004,-0.90922546,-0.026473999,-0.2208252,0.049606323
1636,A,504691026172388,-2.7196503,-4.1134644,0.9831085,-0.3479004,-0.80830383,0.3196106
1636,A,504691076526391,-4.7092285,-7.871414,1.6360931,-0.039154053,-0.55078125,0.5369568
1636,A,504691126880395,-5.3937836,-12.28772,3.5110931,-0.08728027,1.0930328,-0.054107666
1636,A,504691177234399,-4.675827,-11.003006,5.1063843,0.020950317,0.06436157,-0.2026825
1636,A,504691227588403,-11.13295,-13.138351,-1.3106537,-1.7910309,-0.39274597,-0.37335205
1636,A,504691277942407,-0.80336,-4.6014404,-2.2934723,-1.2249603,-0.16419983,-0.24397278
1636,A,504691328296411,-3.2975159,-6.3120575,-4.100296,-1.1012268,0.030334473,0.3017578
1636,A,504691378650415,-8.412079,-8.395828,-1.6656189,-0.7675171,-0.06607056,0.45333862
1636,A,504691429004419,-2.5104065,-5.9435883,-0.37623596,-0.30267334,-0.06149292,0.07337952
1636,A,504691479358423,-2.2461853,-6.9554596,-1.0514069,-0.2622223,0.23840332,-0.16137695
1636,A,504691529712427,-2.900589,-8.063965,0.58132935,0.18882751,0.20404053,-0.559494
1636,A,504691580066431,-2.9811707,-9.008865,0.90760803,0.5829315,-0.82592773,-0.5969238
1636,A,504691630420434,-2.4769592,-12.133347,1.0686493,0.021148682,-0.5977783,-0.018295288
1636,A,504691680774438,-3.6674957,-13.279861,-1.4484406,0.9300232,-0.7108307,0.3480835
1636,A,504691731128442,-7.3526154,-11.315567,-4.717743,1.3357544,-0.1560669,0.20048523
1636,A,504691781482446,-10.890518,-8.494171,-3.3022156,1.025238,0.26637268,0.22685242
1636,A,504691831836450,-5.474243,-9.743301,-1.023468,0.45350647,0.49684143,0.0738678
1636,A,504691882190454,-1.4214325,-10.887695,0.5047455,0.2117157,0.10614014,-0.21549988
1636,A,504691932544458,-2.112381,-5.5107574,0.2905426,0.2727661,-0.035476685,-0.083984375
1636,A,504691982898462,-2.3582,-4.3211365,-0.2786255,-0.0030059814,-0.5160675,0.28457642
1636,A,504692033252466,-2.357254,-4.809784,0.3006134,0.0045776367,-1.2086792,0.57211304
1636,A,504692083606470,-3.9713135,-9.362732,2.3274536,0.104904175,0.31123352,0.2624359
1636,A,504692133960473,-5.250946,-11.775101,4.2600403,-0.24684143,1.2753906,-0.022750854
1636,A,504692184314477,-9.490448,-12.238388,2.8383179,-0.922348,0.13005066,-0.36540222
1636,A,504692234668481,-9.69606,-10.954681,-2.4702911,-1.6547546,0.21096802,-0.6197815
1636,A,504692285022485,-0.9747009,-6.399521,-4.4345245,-1.0543213,0.08647156,-0.24028015
1636,A,504692335376489,-5.693466,-7.6367645,-3.650116,-0.8594055,0.059692383,0.3219757
1636,A,504692385730493,-6.0720673,-6.162857,-0.5856323,-0.44787598,0.10491943,0.33888245
1636,A,504692436084497,-2.8168182,-6.145935,-0.74765015,-0.021820068,-0.044448853,0.0115356445
1636,A,504692486438501,-2.7247314,-7.3924866,-0.47547913,0.1210022,0.48016357,-0.29571533
1636,A,504692536792505,-2.7404785,-7.9646606,0.89897156,0.7090454,0.46307373,-0.76348877
1636,A,504692587146509,-2.3750305,-9.863251,0.8100281,0.4576416,-0.6203308,-0.73342896
1636,A,504692637500513,-2.4735565,-12.360748,1.1200714,0.12149048,-0.88801575,0.05770874
1636,A,504692687854516,-2.5558472,-11.956802,-1.9225922,1.1302185,-0.63308716,0.3972473
1636,A,504692738208520,-7.51503,-9.703583,-5.0458984,1.5533142,0.09391785,0.25146484
1636,A,504692788562524,-11.744644,-8.322357,-2.9172363,0.8696594,0.54119873,0.2607422
1636,A,504692838916528,-5.213455,-11.226959,-0.16804504,0.34335327,0.42190552,0.008163452
1636,A,504692889270532,-1.072586,-9.698196,1.15448,0.17356873,0.2929535,-0.24673462
1636,A,504692939624536,-1.846817,-5.2914276,0.48869324,0.14929199,0.059005737,-0.02748108
1636,A,504692989978540,-2.0583496,-4.1358643,0.09207153,0.008117676,-0.33528137,0.15805054
1636,A,504693040332544,-2.4031982,-4.613022,0.64608765,0.04359436,-0.9295807,0.7451477
1636,A,504693090686548,-3.886612,-9.563873,1.4981842,0.32122803,0.052978516,0.39175415
1636,A,504693141040552,-4.446747,-11.457245,3.9062958,-0.1343689,1.2632904,0.034469604
1636,A,504693191394556,-7.228775,-11.549545,1.1089783,-1.464508,0.5603485,-0.22233582
1636,A,504693241748559,-6.2258453,-9.428421,-0.9502411,-1.6195679,-0.00390625,-0.529953
1636,A,504693292102563,-2.3394623,-7.160553,-3.0369873,-1.1961823,-0.41645813,-0.19735718
1636,A,504693342456567,-5.7261505,-10.616486,0.9445038,-0.9035034,-0.11456299,0.28242493
1636,A,504693392810571,-5.5744476,-7.0103607,1.0268555,-0.3947754,0.16807556,0.28433228
1636,A,504693443164575,-3.513977,-4.667938,-1.5069733,-0.05647278,0.06604004,0.039749146
1636,A,504693493518579,-2.407547,-7.110077,0.05317688,-0.093811035,0.73243713,-0.31736755
1636,A,504693543872583,-2.2080688,-8.540909,0.14143372,0.6508026,0.59324646,-0.92422485
1636,A,504693594226587,-2.2688446,-9.275986,1.1311798,0.27430725,-1.0481567,-0.7133789
1636,A,504693644580591,-2.5410767,-12.506561,1.1174469,0.31407166,-1.2494812,0.14730835
1636,A,504693694934595,-2.84758,-12.837112,-3.9269257,1.0797272,-0.15753174,0.31724548
1636,A,504693745288598,-9.476837,-9.295837,-5.742035,1.3115082,0.0544281,0.2706604
1636,A,504693795642602,-11.619766,-7.010086,-1.7673645,0.7165985,0.4210968,0.39649963
1636,A,504693845996606,-2.9460754,-12.281631,-0.49586487,0.36773682,0.25494385,0.06869507
1636,A,504693896350610,-1.8554077,-9.258087,0.42481995,0.27383423,-0.085128784,-0.11576843
1636,A,504693946704614,-1.991333,-4.9586945,0.39035034,0.22001648,0.0184021,0.010971069
1636,A,504693997058618,-2.4564667,-4.159836,-0.13291931,0.018707275,-0.5101471,0.39657593
1636,A,504694047412622,-3.0725708,-5.847168,0.67404175,0.2792511,-1.0678558,0.48207092
1636,A,504694097766626,-4.809616,-10.737839,3.3587952,-0.14419556,1.4220734,-0.018203735
1636,A,504694148120630,-4.398468,-11.913071,4.324066,0.15875244,1.0545654,0.1681366
1636,A,504694198474634,-14.782135,-14.966812,-2.9882965,-1.375473,0.42414856,-0.43255615
1636,A,504694248828638,-2.7276459,-7.730667,-4.4886475,-1.1674042,0.25891113,-0.48953247
1636,A,504694299182641,-2.2381592,-6.6876984,-5.8975983,-0.8857727,0.048309326,0.06983948
1636,A,504694349536645,-8.004181,-9.433914,1.1795502,-0.68356323,0.2992401,0.48449707
1636,A,504694399890649,-4.5675507,-5.647049,0.27452087,-0.2004242,0.26644897,0.21018982
1636,A,504694450244653,-2.6545868,-6.3583527,-2.0608673,0.12608337,-0.18379211,-0.074020386
1636,A,504694500598657,-2.4758759,-7.671814,0.5598602,0.25372314,1.128128,-0.57528687
1636,A,504694550952661,-2.5101624,-8.048019,0.8013458,1.145874,-0.2613678,-0.72506714
1636,A,504694601306665,-3.7309265,-11.262497,0.91477966,-0.21577454,0.31022644,-0.27900696
1636,A,504694651660669,-2.4615784,-12.817459,0.9470978,1.0013428,-0.5192261,0.25650024
1636,A,504694702014673,-2.971161,-10.710648,-5.352112,1.6695709,-0.2381134,0.19224548
1636,A,504694752368677,-13.36998,-11.22345,-4.837738,1.0470886,0.8159485,0.16467285
1636,A,504694802722681,-8.259491,-8.600403,-1.8958588,0.41921997,0.7774353,0.1400299
1636,A,504694853076684,-0.9376068,-13.83754,0.12408447,0.36346436,0.3379364,-0.3349762
1636,A,504694903430688,-2.0609436,-5.248001,0.7569275,0.21040344,-0.058135986,-0.09210205
1636,A,504694953784692,-1.3733063,-4.7100983,0.0074157715,0.16604614,-0.50372314,0.033111572
1636,A,504695004138696,-2.4704895,-3.9048767,0.05834961,-0.6334839,-0.9441376,0.8774872
1636,A,504695054492700,-4.7908936,-6.7269745,1.4359131,0.46440125,-0.9623718,0.21685791
1636,A,504695104846704,-7.2738037,-13.736023,3.2222595,-1.1378632,1.6477814,-0.039855957
1636,A,504695155200708,-5.62236,-11.975098,6.7021484,0.4682312,-0.2003479,-0.29891968
1636,A,504695205554712,-12.5073395,-14.294113,-0.022537231,-2.1688538,-0.230896,-0.5825043
1636,A,504695255908716,1.6248627,-4.0898895,-3.1416168,-0.960495,0.07688904,-0.27018738
1636,A,504695306262720,-2.6890411,-8.450836,-3.8325348,-0.93951416,-0.04043579,0.25123596
1636,A,504695356616723,-6.4111023,-6.429779,-2.8383942,-0.72016907,0.08842468,0.42973328
1636,A,504695406970727,-2.3497925,-5.9000244,0.28710938,-0.23782349,-0.12779236,-7.4768066E-4
1636,A,504695457324731,-3.8409576,-7.2872314,-2.7049713,-0.14385986,-0.046035767,-0.24475098
1636,A,504695507678735,-2.091568,-7.800644,0.6313019,0.035690308,0.8179779,-0.86639404
1636,A,504695558032739,-2.311905,-8.731888,1.8801727,0.60494995,-0.8827667,-0.24128723
1636,A,504695608386743,-2.5422058,-11.645081,0.8558502,-0.47843933,-0.1296997,0.036636353
1636,A,504695658740747,-2.8194275,-12.354401,-0.92149353,1.2107086,-0.6042938,0.28559875
1636,A,504695709094751,-6.0685425,-12.096924,-5.278061,1.5037994,-0.23977661,0.51708984
1636,A,504695759448755,-14.238495,-10.491257,-4.649185,0.7389221,0.5304718,0.54473877
