Subject-Id,Activity Label,Time stamp,Accel_x,Accel_y,Accel_z,Gyro_x,Gyro_y,Gyro_z
1617,A,268914157237437,-4.713562,-13.366516,3.0640106,0.79478455,0.34147644,0.2416687
1617,A,268914207591441,2.421341,-12.045776,2.3601227,-0.5934601,0.43974304,0.7967987
1617,A,268914257945445,1.3339081,-10.729477,-2.4320068,-0.5901184,-0.87913513,1.2294617
1617,A,268914308299448,-2.1637726,-8.760376,-4.5738525,-0.8217468,-1.3193512,0.8325348
1617,A,268914358653452,-5.782913,-6.6072693,-0.124694824,-1.0261536,-0.5887146,0.06594849
1617,A,268914409007456,-0.6027832,-5.540512,-1.0568085,-1.1959991,0.8571472,-0.4003296
1617,A,268914459361460,1.183609,-5.2390137,-0.92082214,-0.2361145,-0.038009644,0.67181396
1617,A,268914509715464,-1.1079102,-6.4183655,1.9895477,-0.5722809,-0.2094574,0.5296936
1617,A,268914560069468,-8.916138,-8.258926,9.680252,-0.31556702,-1.4015503,0.14297485
1617,A,268914610423472,-12.577545,-11.108719,5.4274445,-0.24073792,-1.644455,-0.2841034
1617,A,268914660777476,-5.6380005,-9.867004,1.7725525,-0.656662,-3.2143555,-0.65133667
1617,A,268914711131480,-2.26062,-13.735931,2.2323914,-2.059143,-0.40112305,-0.39476013
1617,A,268914761485484,2.4673615,-11.159821,-4.3564453,-1.8371887,1.5571289,-0.8410034
1617,A,268914811839487,-0.4046631,-10.420456,-2.8912659,0.11935425,0.26519775,-1.1244354
1617,A,268914862193491,-1.2517853,-9.871948,-0.6545868,-0.19059753,2.3740692,-0.19696045
1617,A,268914912547495,-0.41362,-7.795624,3.9992218,-0.71746826,5.5098267,-0.7570038
1617,A,268914962901499,-7.877014,-9.179001,0.9229431,0.0074768066,1.095047,0.4820404
1617,A,268915013255503,-4.2665253,-7.923752,1.1873474,-0.047225952,-1.2426147,0.33511353
1617,A,268915063609507,-1.6719513,-7.753479,-0.23303223,-0.33399963,-2.9718323,0.3863678
1617,A,268915113963511,-0.52830505,-9.063034,-2.40773,-0.7774048,-4.8292847,-1.3068848
1617,A,268915164317515,-3.1905975,-11.338959,-0.60017395,-0.0929718,12.410736,-2.770172
1617,A,268915214671519,-6.791626,-8.1380005,-9.162247,4.1277313,-0.007522583,3.181549
1617,A,268915265025523,-5.5599823,-5.762619,-2.8614502,0.19766235,3.5702515,3.1119232
1617,A,268915315379527,-14.198761,-16.962158,17.580444,0.7417908,1.3810425,2.0830383
1617,A,268915365733530,-6.3470154,-15.3186035,-6.4226685,-1.1706543,-1.4017181,0.49847412
1617,A,268915416087534,0.66185,-18.221146,-1.517807,-1.1594391,-1.5231018,0.97554016
1617,A,268915466441538,3.718689,-9.166031,-12.888947,-1.1199646,-1.8714142,0.2843933
1617,A,268915516795542,-2.899063,-5.841385,-1.1759644,-0.79382324,-0.7361908,-0.8338165
1617,A,268915567149546,0.776001,-6.194092,-2.376831,-0.82748413,-0.65448,-0.6693268
1617,A,268915617503550,5.019806,-4.6531525,-0.6043701,-0.64711,1.9250793,0.12098694
1617,A,268915667857554,3.671402,-4.1041718,1.4976654,-0.09724426,-0.506546,0.2485199
1617,A,268915718211558,-14.639481,-11.380005,3.265564,-0.20431519,-2.645996,-0.20207214
1617,A,268915768565562,-18.419693,-14.603516,1.0655365,0.33674622,0.43821716,0.26853943
1617,A,268915818919566,-2.1342316,-4.7799377,-2.37117,0.57380676,0.34632874,0.4806671
1617,A,268915869273570,-1.6741943,-11.959244,-5.7539215,0.44429016,0.3567505,-0.92349243
1617,A,268915919627573,1.91893,-12.899521,-5.5856323,-0.28425598,-2.8974,-1.3840027
1617,A,268915969981577,1.5694275,-7.596649,-0.83410645,-1.0798492,-4.3467865,-1.7398682
1617,A,268916020335581,0.3262787,-9.248901,-2.9837494,-2.1760101,-1.7556763,-1.2920837
1617,A,268916070689585,-0.612442,-8.797714,-6.3358765,-2.285843,3.8491516,-1.3718872
1617,A,268916121043589,-1.62854,-7.902893,-1.5254364,1.0340881,2.8468628,-1.3249359
1617,A,268916171397593,-6.367447,-8.150391,2.370163,0.52949524,-1.5962372,-0.70732117
1617,A,268916221751597,-5.8950043,-10.593399,-0.5990143,-0.016403198,0.9104309,-0.23881531
1617,A,268916272105601,-6.241638,-11.262024,-3.3369446,3.1090088,1.8427734,1.2216797
1617,A,268916322459605,-7.053879,-9.921295,-3.5333405,1.7745056,-1.3626099,2.7767944
1617,A,268916372813609,-9.448135,-12.566711,-1.3304749,1.9506989,1.9949646,2.8762817
1617,A,268916423167612,-8.104614,-13.840271,-1.8612366,0.650177,3.892334,2.3408966
1617,A,268916473521616,-4.3894653,-14.105728,-1.7149963,-0.95884705,-1.319809,0.73223877
1617,A,268916523875620,-0.5190277,-17.14386,-0.8307648,-0.74409485,-1.1761627,0.9159241
1617,A,268916574229624,2.8103485,-9.594147,-5.027664,-0.92233276,-1.8716583,0.63249207
1617,A,268916624583628,0.19068909,-5.6262207,-6.7085266,-0.9980316,-0.83084106,-0.55622864
1617,A,268916674937632,-3.4787903,-5.388504,-2.5576172,-1.0817719,0.39057922,-0.9668884
1617,A,268916725291636,3.9526367,-5.1080017,-1.4893646,-0.9621124,1.0744629,0.27482605
1617,A,268916775645640,4.2786713,-4.881912,0.92071533,0.1299591,-0.029632568,0.28601074
1617,A,268916825999644,-5.1206512,-9.648148,0.7374878,-0.23666382,1.7303467,0.151474
1617,A,268916876353648,-15.365707,-14.305634,-1.0065918,0.11543274,2.6763,0.6893921
1617,A,268916926707652,-4.0282288,-7.332123,-5.1459045,0.58206177,0.22177124,-0.21018982
1617,A,268916977061655,1.3873291,-10.36998,-9.861923,0.46032715,0.15917969,-0.7625885
1617,A,268917027415659,0.44163513,-14.021881,-4.7360535,-0.062469482,-2.7557068,-1.4620514
1617,A,268917077769663,0.7409668,-7.2355804,-1.4694672,-0.908844,-4.527664,-1.720932
1617,A,268917128123667,0.9758301,-9.4767,-3.8810425,-2.086441,-0.63404846,-1.4752197
1617,A,268917178477671,0.2876892,-9.066971,-5.4469147,-2.7161102,3.0215607,-1.1380768
1617,A,268917228831675,-1.3459015,-8.451752,-2.1633606,-0.6205597,3.1819,-1.0647736
1617,A,268917279185679,-4.407837,-8.988892,-1.002655,1.0291595,0.57540894,-0.83792114
1617,A,268917329539683,-6.083664,-9.077835,-0.822525,-0.037734985,-1.2237091,-0.48988342
1617,A,268917379893687,-5.8371277,-10.925812,-1.5237427,0.86650085,1.8053131,0.47572327
1617,A,268917430247691,-6.017166,-11.170395,-3.7411652,2.4490051,1.1248474,2.1965027
1617,A,268917480601695,-7.4700775,-11.070572,-0.8678131,1.7781982,-0.40168762,2.9705658
1617,A,268917530955698,-7.2662354,-11.46019,1.4797363,0.9834442,3.1270294,2.6161652
1617,A,268917581309702,-5.772476,-11.700058,-1.2005463,-0.34210205,1.2213898,1.4069977
1617,A,268917631663706,-3.2948456,-16.182358,-2.630249,-0.89863586,-1.3603058,0.9707794
1617,A,268917682017710,1.7401733,-13.805313,-6.4878235,-0.8033447,-1.5197449,0.92652893
1617,A,268917732371714,0.5836487,-7.163727,-3.6620178,-0.77046204,-1.0919647,0.12686157
1617,A,268917782725718,-1.1568604,-6.194046,-1.4018402,-0.57951355,-0.45140076,-1.0513153
1617,A,268917833079722,2.22995,-6.0796967,-2.1249847,-1.2020874,1.0506439,-0.5826721
1617,A,268917883433726,4.298111,-4.567444,-0.28825378,-0.25654602,0.66352844,0.46614075
1617,A,268917933787730,1.8166504,-4.99292,2.9997253,-0.32400513,0.20968628,-0.3034668
1617,A,268917984141734,-12.643921,-13.644821,0.5744934,-1.0384979,2.296875,0.35472107
1617,A,268918034495737,-9.539383,-10.202652,-0.47779846,0.058685303,0.47006226,0.14416504
1617,A,268918084849741,-0.27793884,-5.521652,-7.021286,0.5391693,0.20245361,-0.25842285
1617,A,268918135203745,-3.493927,-14.9049225,8.397766,0.09101868,0.1174469,-1.0687103
1617,A,268918185557749,-2.2208405,-11.081345,4.253174,-0.5646515,-2.4059296,-1.456131
1617,A,268918235911753,0.6276245,-6.168213,-1.3811951,-1.1117249,-3.3791962,-1.7875214
1617,A,268918286265757,-0.59602356,-11.531784,-4.1262665,-2.0421448,0.17662048,-1.4541779
1617,A,268918336619761,0.113967896,-8.927231,-3.7728424,-2.2375336,3.9138184,-1.0369415
1617,A,268918386973765,-1.822525,-7.4861603,-0.8452301,0.5222473,2.0019684,-0.83169556
1617,A,268918437327769,-5.736374,-8.658249,-2.4924927,0.647522,-1.4643097,-0.7548828
1617,A,268918487681773,-3.7901306,-9.107361,0.9614258,-0.8893738,1.8560028,-0.5019226
1617,A,268918538035777,-4.255188,-9.818085,-3.0113068,2.3218384,2.1085663,1.1740112
1617,A,268918588389780,-6.8719482,-10.59639,-4.8545227,1.8796234,-1.095398,2.5852203
1617,A,268918638743784,-5.916458,-11.171387,1.4380035,1.9122925,0.15040588,3.0922852
1617,A,268918689097788,-5.6091614,-10.97406,-3.9125977,0.7352905,4.522583,2.925232
1617,A,268918739451792,-5.497055,-11.122131,-1.9858093,-1.2165375,-1.4168091,0.76846313
1617,A,268918789805796,-2.070404,-18.178879,-1.2223053,-0.8833771,-1.0037994,1.2131042
1617,A,268918840159800,2.5354156,-13.0399475,-1.6172028,-0.88461304,-1.6575012,0.8888855
1617,A,268918890513804,0.63401794,-5.371994,2.0236511,-0.7605438,-0.7820282,-0.03704834
1617,A,268918940867808,-2.5413666,-5.5417786,-1.6960297,-0.37088013,-0.5235748,-1.1947479
1617,A,268918991221812,2.8468933,-5.63855,-1.7442627,-1.5964661,1.3739624,-0.516098
1617,A,268919041575816,3.6439972,-4.207489,0.8003235,0.023147583,0.17300415,0.6481018
1617,A,268919091929820,0.0639801,-5.9204407,3.125946,-0.3607483,-0.24853516,-0.47123718
1617,A,268919142283823,-17.95581,-11.814026,-1.4112396,-2.6112976,1.5633698,0.7601013
1617,A,268919192637827,-10.68486,-9.961029,-1.7550201,0.8363037,0.19345093,0.06581116
1617,A,268919242991831,1.6066589,-2.7654114,-10.207993,0.5900574,1.0469666,-0.35682678
1617,A,268919293345835,-6.8925323,-18.471008,17.631256,0.64642334,-0.022277832,-1.2187653
1617,A,268919343699839,-0.44511414,-11.649078,-2.49292,0.44476318,-2.352234,-1.1226959
1617,A,268919394053843,0.99464417,-4.556793,-0.9779053,-0.869751,-3.8024292,-1.8283844
1617,A,268919444407847,-0.81010437,-11.108032,-3.0062408,-2.6253052,-2.37648,-1.3690643
1617,A,268919494761851,-0.52064514,-7.9871826,-4.2191467,-3.008255,3.1270294,-1.1077423
1617,A,268919545115855,-1.7834167,-7.377533,-3.9497986,0.91664124,5.619385,-1.2985687
1617,A,268919595469859,-7.529175,-10.145996,-2.3755188,0.32182312,-1.7703857,-0.77127075
1617,A,268919645823862,-5.606659,-10.909836,0.43826294,0.03074646,0.4602356,-0.1230011
1617,A,268919696177866,-6.977722,-11.307861,-0.45787048,2.7383118,2.6029205,2.2475128
1617,A,268919746531870,-7.2147064,-10.547668,-5.1694794,2.107544,0.614563,3.4805756
1617,A,268919796885874,-8.881195,-11.347931,3.2524261,0.7869415,2.4674683,2.9266968
1617,A,268919847234298,-4.7214203,-11.833633,0.67951965,0.22659302,0.76123047,1.5595093
1617,A,268919897588302,-2.418213,-14.550461,-2.38031,-0.5702667,-1.339859,0.88775635
1617,A,268919947942306,1.4930878,-18.175308,-4.705719,-0.81674194,-1.699707,0.88165283
1617,A,268919998296310,2.3170013,-10.585831,-15.748169,-0.94866943,-1.0158997,0.14820862
1617,A,268920048650314,-3.063858,-5.8340454,-2.592926,-0.70687866,-0.462265,-0.84947205
1617,A,268920099004318,2.5424957,-5.070862,-2.7585907,-0.38549805,-1.4624786,-1.094101
1617,A,268920149358322,4.9102173,-4.690399,-1.2471313,-0.6665344,1.3109131,0.067230225
1617,A,268920199712325,0.9414215,-5.467926,1.5345612,-0.24667358,0.2725525,0.37025452
1617,A,268920250066329,-15.661957,-12.163361,5.0165253,-0.16616821,-0.90730286,-0.18635559
1617,A,268920300420333,-15.468338,-13.928192,1.0444336,0.94636536,-0.8361511,0.10102844
1617,A,268920350774337,-1.2263031,-7.458359,1.4437408,0.74398804,0.25836182,-0.18017578
1617,A,268920401128341,-4.1958923,-15.973862,5.112671,0.526947,0.5836792,-1.0677948
1617,A,268920451482345,0.8645477,-9.877243,-2.7409515,0.3435669,-1.7099304,-1.2132416
1617,A,268920501836349,1.3304596,-7.1085052,-1.5744629,-0.9844971,-4.2108765,-1.6758881
1617,A,268920552190353,-0.5924988,-10.298447,-3.397049,-2.6932373,-2.2922516,-1.5291595
1617,A,268920602544357,-0.49035645,-8.108917,-5.5710297,-2.8775024,3.9306335,-1.6364594
1617,A,268920652898361,-2.726822,-8.303329,-3.5904388,-0.3196411,4.6599884,-1.5757141
1617,A,268920703252365,-6.4084625,-10.26297,-2.235962,0.72502136,-2.310089,-0.58758545
1617,A,268920753606368,-5.6001587,-11.601837,7.2552032,-0.24557495,0.17666626,-0.11276245
1617,A,268920803960372,-4.707535,-10.861313,9.996902,1.541153,2.712967,1.3840027
1617,A,268920854314376,-6.3018646,-9.856064,-4.4721985,2.501007,-0.3221588,3.2684784
1617,A,268920904668380,-6.8984375,-11.276962,1.1763458,1.3483124,2.2203217,3.446518
1617,A,268920955022384,-4.4807587,-11.743256,1.5734253,0.2980652,2.4883118,1.9712982
1617,A,268921005376388,-2.4023743,-13.856094,-2.6687317,-0.66493225,-1.4772186,0.885437
1617,A,268921055730392,1.9750671,-16.810532,1.5983276,-0.33605957,-1.501358,1.0315094
1617,A,268921106084396,2.9772644,-11.220398,3.6065521,-0.5869446,-1.1468353,0.6025238
1617,A,268921156438400,-1.8049011,-5.128601,0.5240936,-0.69270325,-0.07577515,-0.39178467
1617,A,268921206792404,0.007217407,-5.3608246,-1.8650513,-0.756958,-0.30493164,-0.78564453
1617,A,268921257146407,3.4713287,-4.9252167,-1.574585,-0.30143738,-0.64852905,0.04876709
1617,A,268921307500411,3.1457825,-4.650009,-0.058624268,-0.17094421,0.087402344,0.40556335
1617,A,268921357854415,-8.978485,-8.794174,1.0308838,-0.106170654,1.8139648,0.6441345
1617,A,268921408208419,-15.75412,-12.518387,0.9638519,0.3435669,1.2265167,0.38687134
1617,A,268921458562423,-5.860153,-10.543259,1.1635284,0.44721985,0.7090149,-0.2140503
1617,A,268921508916427,-1.2359772,-11.781815,1.5129852,0.6656494,1.0867462,-0.91656494
1617,A,268921559270431,-0.76397705,-10.430267,0.10910034,0.602417,-1.8305511,-1.5100403
1617,A,268921609624435,1.4361572,-9.333939,-1.2871094,-0.9727478,-4.946106,-1.7181702
1617,A,268921659978439,0.47909546,-9.874161,-2.3540802,-2.4484863,-3.2856598,-1.5410156
1617,A,268921710332443,-0.68725586,-7.843292,-6.725586,-3.5238037,2.3339539,-1.0558472
1617,A,268921760686447,-1.1980286,-8.625778,-5.254074,0.38676453,4.1006927,-1.1177368
1617,A,268921811040450,-5.2262115,-9.253403,-0.3210907,1.1537476,-0.71195984,-0.95780945
1617,A,268921861394454,-4.802109,-9.730347,0.7863922,-0.27392578,-0.13787842,-0.59381104
1617,A,268921911748458,-5.636673,-11.154022,-6.509445,2.0735016,2.7835083,1.2041016
1617,A,268921962102462,-6.9855957,-10.559174,-5.191864,2.392395,0.04559326,3.262497
1617,A,268922012456466,-9.183548,-11.653824,2.7545319,1.3861237,1.0401917,3.3009796
1617,A,268922062810470,-7.2864075,-12.263306,2.5177155,-0.245224,1.2545929,2.2612915
1617,A,268922113164474,-4.395172,-13.328766,-1.7119446,-0.80067444,-0.9696808,1.1485443
1617,A,268922163518478,-0.13121033,-17.877563,-2.9832764,-0.6919098,-1.894989,1.1130219
1617,A,268922213872482,3.9161987,-12.160645,-8.095551,-0.81214905,-1.293335,0.6579132
1617,A,268922264226486,-1.954071,-6.1319733,-3.9105988,-0.67630005,0.14733887,-0.41659546
1617,A,268922314580490,1.6442871,-5.1171722,-2.3611603,-0.057281494,-1.9223785,-0.907074
1617,A,268922364934493,5.240738,-4.7769012,-1.6037445,-0.66415405,0.796402,0.0021820068
1617,A,268922415288497,5.7691193,-3.5512543,0.085235596,-0.1512146,0.5740967,0.24569702
1617,A,268922465642501,-12.717392,-9.336792,3.2461548,-0.7348633,0.57051086,0.4583435
1617,A,268922515996505,-19.267776,-16.347198,4.1363525,0.7047272,-0.38661194,-0.27366638
1617,A,268922566350509,-3.8104553,-6.083679,-1.7988434,0.71954346,1.1859741,0.2887268
1617,A,268922616704513,-7.682083,-17.071,15.933884,0.6021271,1.7910767,-1.0818939
1617,A,268922667058517,-1.024826,-8.524246,1.9390259,0.9177551,-1.9278717,-1.301651
1617,A,268922717412521,1.0384827,-6.0259705,-1.6355286,-0.8448334,-6.354126,-1.7091217
1617,A,268922767766525,-0.18652344,-12.211884,-2.7091064,-3.284546,-2.6579437,-0.93437195
1617,A,268922818120529,-0.4325409,-8.069672,-6.5391693,-3.616745,2.9396667,-1.4204407
1617,A,268922868474532,1.4780426,-6.623871,-3.7247162,3.0519562,4.089264,-1.1548615
1617,A,268922918828536,-6.754257,-9.463745,-0.81333923,0.39505005,-2.5633698,-0.8838043
1617,A,268922969182540,-6.6549835,-12.387329,-0.1121521,-1.7149811,-2.2665253,-0.37678528
1617,A,268923019536544,-7.0662994,-12.503876,-11.398544,2.277481,5.425537,1.0315704
1617,A,268923069890548,-6.807205,-10.550537,-6.3244324,2.4915924,-0.21354675,3.0224
1617,A,268923120244552,-8.376404,-12.397537,9.63089,1.1684265,-0.8681793,3.6183014
1617,A,268923170598556,-4.2088776,-12.772629,4.333893,0.6800537,6.142151,2.2878876
1617,A,268923220952560,-4.24028,-11.726181,-4.3498077,-0.42533875,-1.5996094,0.58480835
1617,A,268923271306564,-1.1077118,-19.198868,-1.1784058,-0.6122284,-1.4628601,1.0421295
1617,A,268923321660568,5.5794525,-11.192291,-10.407761,-0.63079834,-1.3258057,0.5893707
1617,A,268923372014572,-2.8029938,-6.9789734,-2.8351135,-0.64004517,0.015899658,-0.37620544
1617,A,268923422368575,-0.35639954,-5.394272,-2.3218536,-0.71295166,0.33218384,-1.3846436
1617,A,268923472722579,5.3629913,-4.9384155,-1.5874939,-1.8933563,2.2631073,0.18235779
1617,A,268923523076583,3.6881104,-3.5307922,1.2737885,0.25395203,-0.47297668,0.4859619
1617,A,268923573430587,-3.473816,-6.9331665,5.1987915,0.08918762,-1.6349487,-0.24304199
1617,A,268923623784591,-17.919281,-16.135834,0.42715454,0.9968262,-0.7476959,0.1446228
1617,A,268923674138595,-3.6515808,-5.8082886,-2.5571747,0.53648376,1.0642242,0.32354736
1617,A,268923724492599,-0.5450134,-11.198395,-6.537689,0.68104553,1.5719452,-0.8632202
1617,A,268923774846603,1.563797,-12.678604,-5.3269653,0.74057007,-0.99838257,-1.094101
1617,A,268923825200607,0.5691376,-6.78154,-1.4038239,-0.46540833,-4.558777,-1.5793304
1617,A,268923875554611,-0.18911743,-10.304031,-2.6430664,-2.0931396,-3.5124664,-1.8697357
1617,A,268923925908615,-0.10784912,-8.506454,-4.876297,-2.9615784,1.2022705,-1.4537048
1617,A,268923976262618,-0.32873535,-7.3486633,-5.068924,-1.9061279,4.847168,-1.180893
1617,A,268924026616622,-3.6671753,-9.508881,-2.4932861,1.8575592,0.13276672,-0.4343872
1617,A,268924076970626,-5.783844,-9.184753,1.8579559,-0.3580475,-1.1259308,-0.36027527
1617,A,268924127324630,-4.0898743,-10.738968,2.4232025,0.7080231,1.9851532,0.38572693
1617,A,268924177678634,-5.3158875,-10.034424,-6.89917,2.7835999,0.74305725,2.3754883
1617,A,268924228032638,-6.3732605,-11.117432,-1.6468506,1.6541748,0.087524414,3.0351715
1617,A,268924278386642,-7.145294,-12.486328,3.5225677,1.085968,2.397461,2.372818
1617,A,268924328740646,-5.221344,-12.829239,-1.7065735,-0.46029663,0.22990417,1.2927246
1617,A,268924379094650,-1.7310181,-14.711472,-2.3941803,-0.7151489,-1.337738,0.80552673
1617,A,268924429448654,1.7750244,-17.039093,-4.278366,-0.8390503,-1.5210114,0.8827362
1617,A,268924479802657,0.45381165,-10.130051,-6.433914,-0.7589569,-0.88072205,0.0073242188
1617,A,268924530156661,-1.9252472,-5.966873,-2.146164,-0.312088,-0.899353,-0.8368225
1617,A,268924580510665,3.0344238,-5.7113647,-1.9407349,-0.25579834,-0.8916931,-0.61291504
1617,A,268924630864669,5.0873413,-4.2588654,-0.584198,-0.57917786,1.4045105,0.42671204
1617,A,268924681218673,-1.2996979,-6.0612183,2.7927246,-0.18656921,0.4744873,0.40589905
1617,A,268924731572677,-15.587418,-13.06134,5.004654,0.06996155,-0.7213745,0.095458984
1617,A,268924781926681,-11.301468,-11.565765,0.4874115,0.6704254,-0.07545471,0.17384338
1617,A,268924832280685,-4.620758,-10.481461,6.205307,0.7247009,1.4796448,-0.18861389
1617,A,268924882634689,-6.0344543,-14.208099,8.835403,0.67826843,0.24835205,-1.098465
1617,A,268924932988693,0.9766388,-7.4510803,-1.1520996,-0.10180664,-3.6399841,-1.4165039
1617,A,268924983342697,0.58522034,-9.045319,-1.7405243,-1.722641,-5.1527405,-1.5793762
1617,A,268925033696700,-0.4220581,-9.236252,-4.4011536,-3.5441895,0.053726196,-1.4869385
1617,A,268925084050704,-0.39089966,-7.934952,-5.3000946,-2.017868,5.183319,-1.5616455
1617,A,268925134404708,-2.4481354,-9.425003,-2.5030518,0.81492615,1.971817,-1.1711426
1617,A,268925184758712,-5.128311,-9.925827,0.105026245,0.16572571,-1.7780151,-0.652298
1617,A,268925235112716,-3.7440796,-10.698013,4.0446167,0.09628296,0.77893066,-0.24801636
1617,A,268925285466720,-4.2278748,-11.300171,-0.05117798,2.1403656,1.9237213,1.3499756
1617,A,268925335820724,-6.7086945,-11.172684,-3.3380432,2.0333252,-0.09812927,2.950348
1617,A,268925386174728,-7.203583,-11.432541,2.4559937,1.2226563,1.2192535,3.0342102
1617,A,268925436528732,-5.7960663,-10.972565,1.5322571,-0.026138306,0.44033813,1.9807129
1617,A,268925486882736,-3.4375763,-12.751465,-1.9289246,-0.66316223,-0.95835876,1.0718079
1617,A,268925537236740,-0.14672852,-16.546783,-2.1247559,-0.6244507,-1.4222412,1.0180664
1617,A,268925587590743,1.2046509,-13.13623,-0.15455627,-0.6292267,-1.0839691,0.5813751
1617,A,268925637944747,-0.5607605,-7.6582336,-0.79655457,-0.6277771,0.18763733,-0.5362091
1617,A,268925688298751,0.76756287,-6.166916,-1.8464508,-0.54333496,-1.0433197,-1.0073395
1617,A,268925738652755,4.087509,-5.236252,-1.5604248,0.16726685,0.35662842,0.0488739
1617,A,268925789006759,5.438095,-4.267868,-0.3086853,-0.05317688,0.5845032,0.33963013
1617,A,268925839360763,-12.003235,-10.932526,0.36131287,0.09477234,-0.84298706,0.24407959
1617,A,268925889714767,-15.621017,-11.662384,1.0486603,0.76597595,0.020355225,0.08377075
1617,A,268925940068771,-2.5905762,-7.5538635,-4.6873016,0.8610687,1.2505035,-0.2562561
1617,A,268925990422775,-1.6082764,-14.199326,-6.5997467,0.4559784,0.9597168,-0.45066833
1617,A,268926040776779,-1.7747192,-10.081406,-2.2088318,-0.18444824,-1.2684174,-1.1978455
1617,A,268926091130782,-0.27468872,-8.485718,-1.5008087,-1.1752014,-3.203476,-1.9099884
1617,A,268926141484786,1.0218964,-9.4882965,-3.3927765,-2.0915833,-3.517212,-2.0400696
1617,A,268926191838790,1.1026459,-8.002228,-5.613556,-3.6956024,2.8219604,-1.8033752
1617,A,268926242192794,-0.43748474,-8.143188,-4.7952423,1.2610779,2.8099365,-0.69029236
1617,A,268926292546798,-5.04834,-9.953003,-1.3716278,0.36721802,-0.81518555,-0.3607025
1617,A,268926342900802,-6.5593414,-10.829056,5.2242737,-0.30981445,0.045181274,-0.24780273
1617,A,268926393254806,-6.3735657,-10.232834,-4.0848236,2.5073853,2.3614197,1.3214569
1617,A,268926443608810,-6.652313,-11.585266,-5.391571,2.1841125,-0.0594635,3.2592926
1617,A,268926493962814,-7.6575623,-12.454681,1.9526825,1.0069122,0.95877075,3.0804443
1617,A,268926544316818,-7.116104,-10.72052,1.7568054,-0.7354126,1.6970673,1.6619415
1617,A,268926594670822,-4.3391113,-12.084793,-2.2148132,-0.8551941,-1.2824249,0.98934937
1617,A,268926645024825,-0.35354614,-18.70668,-3.2375183,-0.91012573,-2.1274261,1.050415
1617,A,268926695378829,-0.064468384,-11.545151,-7.3642273,-0.9221344,-1.4753265,0.47372437
1617,A,268926745732833,-2.5812683,-6.842209,-2.3915253,-0.63316345,-0.22090149,-0.5968323
1617,A,268926796086837,1.6436157,-6.11232,-2.2239532,0.19638062,-1.8897858,-1.2600403
1617,A,268926846440841,5.096054,-5.267502,-1.1666718,-1.5819092,1.8472137,-0.13296509
1617,A,268926896794845,4.6750793,-4.0388184,1.4397125,0.20501709,0.6728821,0.5662384
1617,A,268926947148849,-10.2634735,-9.02858,6.9217987,-0.15093994,-1.145813,-0.14196777
1617,A,268926997502853,-19.737808,-16.216415,1.2911835,0.9403229,-0.31376648,0.19984436
1617,A,268927047856857,-1.8322754,-3.9621887,-2.5679626,0.6521759,1.1969147,0.7227173
1617,A,268927098210861,-1.4006195,-14.867477,-5.697998,0.60839844,2.2660065,-0.7462311
1617,A,268927148564865,2.1442566,-10.450302,-4.6661224,0.9177551,-0.6251831,-0.9718933
1617,A,268927198918868,1.5569916,-5.858246,-0.93659973,-0.0021514893,-5.1652985,-1.6261139
1617,A,268927249272872,1.1653595,-10.993362,-2.5440521,-2.8144684,-5.2343903,-1.8140259
1617,A,268927299626876,0.050582886,-8.316696,-4.8194733,-4.3974915,3.716446,-1.604538
1617,A,268927349980880,-0.2838745,-7.46344,-5.344101,-0.4875946,6.8397217,-1.5661774
1617,A,268927400334884,-3.3236847,-11.005249,-2.108139,0.80999756,-1.0709991,-0.740036
1617,A,268927450688888,-6.43367,-9.742172,4.222519,-0.42616272,-3.2750854,-0.29333496
1617,A,268927501042892,-3.9467468,-11.36882,12.284943,0.45532227,3.036087,0.16853333
1617,A,268927551396896,-6.201996,-10.336197,-6.426651,2.999527,1.5430908,2.1396484
1617,A,268927601750900,-5.928406,-10.979996,-2.850525,1.3044891,-0.19923401,3.1409912
1617,A,268927652104904,-6.3137054,-11.900497,3.254364,1.0683899,2.3299103,2.8513947
1617,A,268927702458907,-5.867676,-12.469696,-1.7006226,0.40141296,1.3930969,1.4716644
1617,A,268927752812911,-2.3536835,-14.109558,-1.951416,-0.59165955,-0.9923096,0.5463257
1617,A,268927803166915,2.361557,-17.639954,-2.1203308,-0.79937744,-1.2985077,1.0151215
1617,A,268927853520919,2.1395416,-10.170364,-8.7026825,-0.7570038,-1.1526184,0.2713623
1617,A,268927903874923,-4.153076,-6.958954,-1.0276947,-0.5886688,-0.45854187,-0.5414276
1617,A,268927954228927,1.4893951,-6.0711975,-2.311203,-0.5341644,-0.26020813,-0.8367157
1617,A,268928004582931,3.3383484,-4.628311,-0.38368225,-0.86660767,1.1446228,-0.0382843
1617,A,268928054936935,0.21636963,-4.824585,1.8926697,0.08621216,-0.23278809,0.2637329
1617,A,268928105290939,-10.933563,-9.624512,3.3453064,0.21116638,0.34230042,-0.13069153
1617,A,268928155644943,-15.492737,-11.778671,2.3338623,0.6931915,1.5421143,0.56066895
1617,A,268928205998947,-3.4945068,-7.334259,-3.4612274,0.7106476,1.2361755,-0.029006958
1617,A,268928256352950,1.3398285,-11.425583,-10.363571,0.75616455,1.4061127,-0.60787964
1617,A,268928306706954,0.9680023,-12.7799225,-5.3713074,0.6878967,-1.1158905,-1.0712585
1617,A,268928357060958,0.52423096,-6.9868774,-1.1954346,-0.16441345,-4.6723175,-1.4665985
1617,A,268928407414962,0.80563354,-9.011398,-2.9507904,-1.8573151,-4.22583,-1.4597168
1617,A,268928457768966,-0.17956543,-8.797485,-5.1713257,-3.3888245,1.0059814,-1.0043945
1617,A,268928508122970,-1.1125488,-7.870865,-4.054138,-1.4220581,5.363785,-1.189209
1617,A,268928558476974,-3.8458862,-9.329788,-2.0706482,1.2976379,2.5825195,-1.1131897
1617,A,268928608830978,-5.996048,-9.968704,0.5226135,-0.48991394,-1.053833,-0.6416931
1617,A,268928659184982,-5.514038,-11.295029,-1.7100372,0.579422,1.4117584,0.3270874
1617,A,268928709538986,-7.191864,-11.369766,-6.3845367,2.4413757,1.474289,2.0107574
1617,A,268928759892990,-7.4651184,-11.304504,-1.6260223,1.6732025,-0.32336426,3.2561646
1617,A,268928810246993,-6.33226,-11.869507,2.0510254,0.9014435,2.4447632,3.0047607
1617,A,268928860600997,-4.773239,-11.849075,-1.7214966,-0.35966492,1.3169556,1.4566956
1617,A,268928910955001,-2.513794,-15.415604,-2.2382355,-0.98791504,-1.3946075,0.8798828
1617,A,268928961309005,0.93640137,-15.673096,-2.0183868,-0.8187866,-1.3229065,0.9272766
1617,A,268929011663009,0.35118103,-7.9667816,1.8425598,-0.8086548,-1.0327454,0.13899231
1617,A,268929062017013,-0.92292786,-4.793396,1.759552,-0.57424927,-0.41023254,-0.98609924
1617,A,268929112371017,1.7747192,-5.261673,-1.7086487,-1.2653503,0.82270813,-0.5678711
1617,A,268929162725021,3.996872,-4.2681885,-0.6401367,-0.5734863,0.60743713,0.66096497
1617,A,268929213079025,1.931427,-4.955307,3.0173187,0.014511108,-0.041732788,-0.0181427
1617,A,268929263433029,-11.584595,-12.956146,1.603653,0.53938293,-0.5886841,-0.08227539
1617,A,268929313787032,-8.436508,-10.315033,-0.38865662,0.6741791,0.10664368,0.23695374
1617,A,268929364141036,-0.0015258789,-6.6873627,-4.3295135,0.69444275,0.71777344,-0.3949585
1617,A,268929414495040,-0.12239075,-15.00235,-6.287842,0.75639343,-0.3582306,-0.5751343
1617,A,268929464849044,-0.632843,-10.578369,-2.7094727,-0.14648438,-2.0028534,-0.88938904
1617,A,268929515203048,-0.40776062,-7.0787506,-1.5013123,-1.4084167,-2.5041046,-1.4960938
1617,A,268929565557052,0.42710876,-8.922119,-3.5807037,-2.3048706,-0.6124878,-1.677475
1617,A,268929615911056,0.04927063,-7.9653015,-4.6825714,-3.9802856,5.4147644,-1.9612579
1617,A,268929666265060,-1.4416351,-8.569656,-5.1552887,0.30316162,0.48382568,-1.168335
1617,A,268929716619064,-3.6725616,-9.171249,-2.9573212,0.2537384,-2.7350922,-0.7303314
1617,A,268929766973068,-5.478836,-11.179764,13.313904,-0.78160095,3.404251,-0.6110687
1617,A,268929817327072,-4.829834,-10.031113,0.49142456,2.7800293,2.37294,1.5999756
1617,A,268929867681075,-7.268402,-11.239136,-3.2809753,1.9450989,-1.9292755,2.9923096
1617,A,268929918052800,-5.9563293,-11.718277,2.4562378,1.688858,0.78915405,2.8748474
1617,A,268929968406804,-5.260727,-9.293976,-6.975128,-1.1608582,1.9552765,1.730484
1617,A,268930018760808,-5.358017,-12.753265,-2.3144226,-1.1251221,-0.7160034,1.2059326
1617,A,268930069114812,-0.6890106,-18.164352,-1.4207611,-0.72024536,-1.9248505,1.2017822
1617,A,268930119468816,-3.3160858,-9.833694,8.214951,-0.6701355,-1.5646057,0.574234
1617,A,268930169822820,-0.96539307,-6.841675,-0.30485535,-0.67074585,-0.50657654,-0.5623932
1617,A,268930220176824,1.0566864,-5.645523,-2.5850525,0.12834167,-2.0440674,-1.5515594
1617,A,268930270530828,5.712982,-4.282501,-2.0137634,-1.0481873,1.3897705,0.2622528
1617,A,268930320884832,5.477661,-3.5867462,0.7824402,0.03715515,1.1958313,0.52786255
1617,A,268930371238836,-8.266403,-9.059433,8.315521,-0.63757324,0.9034729,-0.22225952
1617,A,268930421592839,-18.691101,-18.33162,4.933914,0.8361969,-1.5001526,-0.54403687
1617,A,268930471946843,0.0748291,-2.9668732,-1.0912476,0.638855,0.77641296,0.43562317
1617,A,268930522300847,1.4550934,-16.279495,5.83519,0.6128845,0.47639465,-0.87213135
1617,A,268930572654851,-2.1067657,-12.171417,3.2814941,0.5555725,-0.47795105,-0.6572418
1617,A,268930623008855,-0.017364502,-7.64151,-1.2490387,-0.9163208,-2.2021484,-1.0994415
1617,A,268930673362859,-1.7909241,-10.136536,-1.7786865,-1.9887085,-2.7019958,-1.8170624
1617,A,268930723716863,0.29452515,-8.853912,-5.6078644,-3.1283722,0.12585449,-1.8079987
1617,A,268930774070867,-0.24810791,-6.5976563,-4.2092743,1.1970673,3.699768,-1.8463287
1617,A,268930824424871,-3.172638,-8.624191,-4.176346,0.9520111,-2.3109741,-0.8803711
1617,A,268930874778875,-5.5852966,-10.650681,0.28605652,-0.28276062,-0.55093384,-0.67012024
1617,A,268930925132878,-9.341995,-13.560501,-5.6673584,-0.4988861,5.883194,-0.49772644
1617,A,268930975486882,-6.7613373,-10.731201,-4.808853,1.9941254,-0.8977661,2.196762
1617,A,268931025840886,-9.109711,-11.612198,-3.0424042,1.6213837,-1.173233,3.2221222
1617,A,268931076194890,-3.9935303,-12.016235,16.159775,1.6378174,4.72731,2.5096283
1617,A,268931126548894,-5.1900635,-10.586868,-4.4871063,-0.4536438,-0.8678894,1.3127441
1617,A,268931176902898,-2.7113647,-14.421585,-1.0981903,-0.78707886,-1.1720886,1.0639648
1617,A,268931227256902,2.817047,-18.52063,-4.867981,-0.9698944,-1.8312836,1.0252533
1617,A,268931277610906,2.8342133,-9.731445,-10.781784,-0.86164856,-1.324234,0.2671814
1617,A,268931327964910,-4.048767,-6.0648346,-2.2898254,-0.50439453,-0.5106201,-0.89382935
1617,A,268931378318914,2.4820862,-5.934326,-2.3763428,-0.109298706,-1.6139374,-0.9535217
1617,A,268931428672918,6.0498047,-4.4167786,-0.37983704,-0.5995941,0.8115082,0.733902
1617,A,268931479026921,1.913147,-4.6454926,1.8368073,-0.091049194,0.5550995,0.35531616
1617,A,268931529380925,-15.237854,-11.847,5.2551117,-0.7139282,-0.34477234,0.3474579
1617,A,268931579734929,-15.654251,-15.665909,1.8083344,0.44459534,-0.47685242,-0.3294983
1617,A,268931630088933,0.22270203,-3.580017,1.5609741,0.4953003,1.429779,0.30395508
1617,A,268931680442937,-5.440445,-16.71083,15.19873,0.81430054,1.4156647,-1.0341034
1617,A,268931730796941,0.2033081,-6.82843,-0.45726013,0.58432007,-1.2678986,-1.203537
1617,A,268931781150945,0.7775879,-8.861694,-1.1311798,-0.9224396,-4.092163,-1.6010742
1617,A,268931831504949,-0.33433533,-10.180145,-2.7961273,-2.7237701,-2.7260742,-1.6536255
1617,A,268931881858953,-0.29244995,-7.949112,-4.8953247,-1.3605042,2.5135803,-1.5186615
1617,A,268931932212957,-1.5387268,-8.251312,-6.2001343,2.5194855,3.0347137,-1.2315826
1617,A,268931982566961,-6.4511566,-10.694702,-1.4017029,0.06626892,-2.5199585,-0.9145508
1617,A,268932032920964,-7.564453,-12.479904,-0.15711975,-0.54226685,-0.5363159,-0.6507416
1617,A,268932083274968,-7.188385,-12.398895,-9.607437,1.0895996,3.6918182,0.74287415
1617,A,268932133628972,-7.6243896,-11.197357,-5.129135,1.8632965,-1.5439148,3.1939087
1617,A,268932183982976,-7.3337097,-12.112045,3.3674164,1.415329,1.268692,3.4914398
1617,A,268932234336980,-3.8659515,-11.801315,8.927292,0.8669586,3.2856445,2.1294556
1617,A,268932284690984,-3.332016,-12.817841,-1.9635925,-0.46263123,-1.1841278,1.1472473
1617,A,268932335044988,1.1178284,-16.612,-2.0972595,-0.660614,-1.3340759,1.072525
1617,A,268932385398992,4.915161,-12.829346,-5.6683807,-0.71502686,-1.3755646,0.7599182
1617,A,268932435752996,0.5231323,-6.124542,-4.711853,-0.67692566,-0.47927856,-0.3189087
1617,A,268932486107000,-0.68395996,-5.1468353,-2.1318207,-0.35437012,-1.052475,-1.1286621
1617,A,268932536461003,4.0150146,-4.7888947,-2.0107574,0.08139038,-0.71836853,0.01121521
1617,A,268932586815007,5.7050934,-4.034256,-1.0994415,0.17051697,1.2560577,0.7762451
1617,A,268932637169011,-6.040985,-8.3901825,1.2806091,0.058670044,1.4787598,0.7434387
1617,A,268932687523015,-17.13858,-14.508392,2.5707397,0.36172485,0.9063721,0.41578674
1617,A,268932737877019,-4.485382,-10.047302,-1.7738037,0.62857056,0.42852783,-0.17292786
1617,A,268932788231023,2.876007,-10.518341,-4.741577,0.6281433,0.34487915,-0.5060425
1617,A,268932838585027,-0.5373688,-11.098267,-2.974411,0.33029175,-0.9182129,-1.0857391
1617,A,268932888939031,0.41558838,-8.281631,-1.5541382,-0.769104,-2.8757935,-1.4288483
1617,A,268932939293035,1.0182648,-9.977341,-2.6855927,-2.0422668,-3.113861,-1.5751495
1617,A,268932989647039,0.38630676,-7.8734436,-3.9978485,-3.6475983,2.2275543,-1.5476074
1617,A,268933040001043,-0.5474396,-7.9232025,-5.7766876,0.116104126,3.8467102,-1.0771637
1617,A,268933090355046,-3.6893463,-9.145828,-3.0286865,1.3860016,-0.5702362,-0.93559265
1617,A,268933140709050,-4.4727936,-9.602188,0.8505707,-0.79862976,-0.73890686,-0.8214569
1617,A,268933191063054,-4.514435,-10.547867,-5.2174225,1.4023895,3.4080963,0.57463074
1617,A,268933241417058,-6.314911,-11.40593,-7.0361176,2.367859,0.5649414,2.4566956
1617,A,268933291771062,-8.431122,-12.229126,1.2064972,1.6492767,-0.97468567,3.4328613
1617,A,268933342125066,-7.023529,-12.653839,2.8680115,0.66474915,4.5392456,2.7215729
1617,A,268933392479070,-5.0010986,-11.577927,-1.2432251,-0.26393127,0.9911194,1.1981049
1617,A,268933442833074,-1.9727783,-16.634903,-1.6418915,-0.5255585,-1.4893341,1.2115631
1617,A,268933493187078,2.8721313,-12.839798,-7.127655,-0.5380707,-2.0724335,0.9975891
1617,A,268933543541082,-0.5880432,-8.330673,-4.983536,-0.6108093,-0.6709595,0.08229065
1617,A,268933593895086,0.18434143,-6.220215,-1.0169678,-0.6367035,0.14604187,-1.3196411
1617,A,268933644249089,3.3586884,-5.488388,-0.7231293,-1.4034424,0.5488739,-0.6811371
1617,A,268933694603093,4.804291,-3.6650848,-1.005127,0.16409302,-0.10240173,0.77700806
1617,A,268933744957097,2.7405396,-4.597534,1.3663177,-0.07371521,0.220047,-0.42401123
1617,A,268933795311101,-14.613983,-16.01535,-5.887924,0.8803711,1.7034454,0.42236328
1617,A,268933845665105,-5.2833557,-8.846542,-1.073288,0.4015503,0.39123535,0.27957153
1617,A,268933896019109,0.5838928,-9.2729645,-10.581741,0.4514923,0.73942566,-0.43798828
1617,A,268933946373113,2.8337555,-10.428741,-7.4967804,0.3322296,0.020065308,-0.9193878
1617,A,268933996727117,0.88534546,-8.027512,-1.8442078,0.24450684,-1.4640656,-1.3228302
1617,A,268934047081121,1.4716644,-9.172409,-1.85495,-1.7357635,-4.9733124,-1.6951904
1617,A,268934097435125,0.21052551,-8.659027,-2.3412628,-4.2622223,0.6812439,-1.4514618
1617,A,268934147789128,-0.017852783,-7.3876038,-5.2557983,0.7250366,5.5450287,-1.6686859
1617,A,268934198143132,-1.7927704,-9.74675,-8.4743805,0.3550415,0.1593628,-1.4324341
1617,A,268934248497136,-6.620865,-9.322632,3.4753265,0.23934937,-2.2459717,-1.0102997
1617,A,268934298851140,-3.4748383,-12.330673,-0.6091156,-1.2836609,4.1877594,-0.7528229
1617,A,268934349205144,-5.0260315,-10.243774,-4.3055725,1.7953186,0.036834717,1.8088074
1617,A,268934399559148,-7.9095,-10.826965,-4.456009,1.7328796,-1.7002563,3.0433197
1617,A,268934449913152,-5.848648,-11.731873,3.0839539,2.507431,2.1160583,3.7147522
1617,A,268934500267156,-4.613907,-11.824738,-6.376648,0.17965698,2.257309,2.5528564
1617,A,268934550621160,-4.596512,-11.531998,-2.7776337,-1.1110687,-1.2445068,0.49298096
1617,A,268934600975164,1.3302917,-19.164047,-1.2728577,-0.7340088,-1.2671814,1.34935
1617,A,268934651329168,3.1832275,-13.09552,-1.4991608,-0.64808655,-1.7225037,0.98526
1617,A,268934701683171,-3.669571,-4.9596863,3.4618378,-0.67025757,-0.23287964,-0.13653564
1617,A,268934752037175,-0.010437012,-5.6635895,-2.4453583,-0.597702,-0.3594513,-1.5462341
1617,A,268934802391179,3.5094757,-5.3936615,-1.7189636,-1.6767731,1.6590424,-0.15093994
1617,A,268934852745183,4.9531555,-2.9317932,0.032318115,0.33940125,-0.34791565,0.8059387
1617,A,268934903099187,-0.97821045,-5.7780457,5.8453827,-0.079330444,-0.68032837,-0.83673096
1617,A,268934953453191,-18.560043,-17.926498,-1.0068359,1.1061859,-0.093063354,0.18041992
1617,A,268935003807195,-1.3484497,-4.859192,0.42807007,0.20114136,0.27392578,-0.05647278
1617,A,268935054161199,0.23738098,-12.471176,-8.613068,0.4146576,0.8711548,-0.5213623
1617,A,268935104515203,2.611908,-8.778519,-6.130188,0.34506226,-0.011367798,-1.0190582
1617,A,268935154869207,-0.10328674,-7.9363403,-1.3332214,-0.033233643,-2.5917969,-1.5166473
1617,A,268935205223211,2.3690948,-9.033707,-1.845108,-1.9346008,-4.7415466,-1.6843262
1617,A,268935255577214,0.049835205,-7.655136,-2.614029,-3.4152985,-0.92622375,-1.4978485
1617,A,268935305931218,-1.0083923,-8.326309,-5.2311554,-2.2210999,6.4320526,-1.230011
1617,A,268935356285222,-3.3344116,-10.014893,-3.7203827,1.479065,0.087371826,-0.70410156
1617,A,268935406639226,-7.7621613,-9.630096,7.480316,-0.28030396,-2.0812683,-0.729187
1617,A,268935456993230,-3.1071167,-10.641434,11.754684,-0.35263062,3.2003937,-0.033966064
1617,A,268935507347234,-4.5614014,-8.7860565,-6.823654,2.9868774,1.7402649,1.9232788
1617,A,268935557701238,-7.1107025,-11.088013,-5.0714874,1.6215668,-0.78564453,3.0868225
1617,A,268935608055242,-7.733368,-12.443481,-1.055954,1.7679138,1.6490173,3.218155
1617,A,268935658409246,-5.7023926,-13.236008,-4.58902,0.23738098,2.6728058,1.7001953
1617,A,268935708763250,-2.3578644,-13.638901,-1.1088104,-1.1242981,-1.5369263,0.64907837
1617,A,268935759117253,1.2996979,-17.37593,-1.5100403,-0.7794037,-1.3756714,1.1107025
1617,A,268935809471257,1.3350067,-9.524796,-1.7924194,-0.8632965,-1.6967773,0.5404663
1617,A,268935859825261,-1.1498566,-4.005478,1.3397522,-0.746048,-0.8120575,-0.48576355
1617,A,268935910179265,-0.8281708,-5.593445,-2.2082825,-0.9645386,0.18704224,-0.96717834
1617,A,268935960533269,3.4708557,-4.748764,-1.157486,-0.9373779,0.83651733,0.059448242
1617,A,268936010887273,3.6656647,-3.7171326,1.0814819,0.11706543,0.04283142,0.33738708
1617,A,268936061241277,-5.6167297,-9.151016,2.1689453,0.17268372,1.238205,0.36376953
1617,A,268936111595281,-15.323242,-13.885071,-0.47994995,0.61499023,1.667984,0.8832092
1617,A,268936161949285,-4.421097,-8.576828,-4.9186554,0.32731628,0.67785645,-0.074798584
1617,A,268936212303289,2.109253,-11.102005,-9.107452,0.39431763,1.3882294,-0.6372223
1617,A,268936262657293,2.872818,-10.214294,-3.8805847,0.8374176,-0.07388306,-1.336029
1617,A,268936313011296,2.206604,-7.607132,-1.6485138,-0.029205322,-3.898178,-1.8235931
1617,A,268936363365300,2.425827,-10.1957855,-2.4263916,-2.3909454,-5.5381927,-1.7839355
1617,A,268936413719304,0.17622375,-7.873947,-3.499771,-3.4877014,1.7478485,-1.473175
1617,A,268936464073308,-0.6311188,-7.8220673,-6.5462036,-0.5466919,5.344452,-0.84262085
1617,A,268936514427312,-5.204605,-10.317886,-2.3760529,1.2747498,-0.62301636,-0.25227356
1617,A,268936564781316,-6.4911804,-10.754303,6.8912506,-0.47410583,-0.82803345,-0.35710144
1617,A,268936615135320,-3.2096558,-9.584503,1.1962585,1.1799622,2.911316,0.6938019
1617,A,268936665489324,-4.8385925,-9.413956,-7.495529,2.32312,1.1942749,2.3950958
1617,A,268936715843328,-7.772232,-11.568726,-2.1730957,1.6383209,-0.1894989,3.3350525
1617,A,268936766197332,-6.992676,-13.127747,-0.5697937,0.9619751,2.7748566,2.8538818
1617,A,268936816551336,-4.3720245,-12.758011,-2.1592407,-0.40046692,0.85543823,1.1800995
1617,A,268936866905339,-1.7619171,-16.239975,-1.213623,-0.8067169,-1.2485962,0.91300964
1617,A,268936917259343,2.1083221,-14.122772,-1.8018951,-0.701355,-1.4186554,0.970047
1617,A,268936967613347,0.46385193,-6.725052,0.5274048,-0.7859955,-0.8743286,0.24983215
1617,A,268937017967351,-1.4129944,-5.1455536,-0.28201294,-0.627655,-0.40122986,-0.9022217
1617,A,268937068321355,1.597168,-5.4779663,-1.9390106,-1.3241425,0.84783936,-0.7557678
1617,A,268937118675359,3.782364,-4.157028,-0.662796,-0.38365173,0.36940002,0.50183105
1617,A,268937169029363,1.9644623,-4.7713623,2.42482,0.12669373,0.1845398,0.3342743
1617,A,268937219383367,-12.729935,-13.154388,2.2002869,0.89227295,-0.10481262,0.18252563
1617,A,268937269737371,-9.901184,-10.112488,0.5536041,1.1368561,0.700119,0.24069214
1617,A,268937320091375,-1.8869171,-11.024567,-9.168976,0.77508545,2.1804047,-0.19281006
1617,A,268937370445378,3.1039429,-10.508057,-9.880875,1.0588226,1.8177795,-1.0301361
1617,A,268937420799382,1.8736877,-7.638382,-3.251175,0.43919373,-4.071747,-1.5908203
1617,A,268937471153386,1.4151611,-10.143616,-1.0329132,-1.661789,-5.8186646,-1.796524
1617,A,268937521507390,1.0276794,-8.532349,-4.1817627,-3.1327057,0.6781311,-1.4563751
1617,A,268937571861394,0.054992676,-7.58519,-7.7001495,0.6179657,8.886795,-2.0325928
1617,A,268937622215398,-3.3145905,-10.2717285,-3.4379578,0.27885437,0.4376831,-1.1647949
1617,A,268937672569402,-7.2447968,-10.022095,-0.01586914,0.5249176,-0.49983215,-0.4688263
1617,A,268937722923406,-5.433975,-15.894241,-3.7127838,0.3168335,5.198807,-0.7973938
1617,A,268937773277410,-5.4121704,-11.661285,-3.1777954,1.5116119,0.31559753,1.621872
1617,A,268937823631414,-8.494965,-11.4687805,-6.894867,2.044693,-0.5582733,3.554245
1617,A,268937873985418,-8.66806,-13.829941,6.375717,1.6839447,4.034958,3.8289337
1617,A,268937924339421,-6.458069,-10.961105,0.9847717,0.95077515,2.1095428,2.1425018
1617,A,268937974693425,-4.149582,-13.964874,-1.3499451,-0.32977295,-0.73532104,0.6873169
1617,A,268938025047429,2.6712646,-18.744217,-1.5804901,-0.55133057,-1.2528992,1.1914978
1617,A,268938075401433,4.130722,-13.10759,-9.099533,-0.6185608,-1.1019592,0.742157
1617,A,268938125755437,-5.1848755,-6.984268,-1.8611145,-0.7333679,-0.13005066,-0.37879944
1617,A,268938176109441,1.497879,-6.6224976,-2.0793457,-0.58891296,-1.1596375,-1.928482
1617,A,268938226463445,3.4678192,-3.5464935,-1.9497986,-0.56474304,2.6108856,1.1788025
1617,A,268938276817449,4.9298096,-2.7248383,-0.7866821,0.1287384,0.74580383,0.49113464
1617,A,268938327171453,-7.060089,-7.804947,10.727692,-0.72062683,2.050003,0.4914093
1617,A,268938377525457,-19.248703,-18.915222,3.5558624,0.48362732,-0.19364929,-0.9385376
1617,A,268938427879461,6.5344086,-0.21894836,-2.47435,0.84794617,0.82089233,0.5118103
1617,A,268938478233464,-7.7981567,-19.064346,7.317093,1.0239105,1.5779877,-1.5548859
1617,A,268938528587468,-1.3209839,-7.3615417,-1.2894897,0.45063782,-1.6870728,-1.5050049
1617,A,268938578941472,0.91004944,-8.815628,-0.6612396,-1.3178558,-5.9457855,-1.6818848
1617,A,268938629295476,-1.0085449,-9.85527,-1.8927917,-3.5747833,1.8440857,-0.602478
1617,A,268938679649480,-1.3287811,-7.2173157,-6.2640686,-3.167328,3.217926,-1.5234222
1617,A,268938730003484,-0.44519043,-8.150589,-5.576477,2.3616943,-1.5568237,-0.7727051
1617,A,268938780357488,-5.933197,-7.3972015,-1.9502869,-0.42663574,-1.9082642,-0.8430786
1617,A,268938830711492,-8.185425,-15.545944,9.695877,-1.0230103,2.2018585,-0.122406006
1617,A,268938881065496,-4.4528503,-9.538895,-7.4326935,2.634201,-0.8764801,2.281479
1617,A,268938931419500,-7.7341156,-11.852524,-3.958786,1.9536743,-1.4981232,3.20401
1617,A,268938981773503,-4.566101,-11.826721,16.067429,1.6276855,2.3190002,2.9685364
1617,A,268939032127507,-6.0677032,-9.268738,-6.6663055,-1.5896606,1.9180145,1.6026001
1617,A,268939082481511,-3.8999634,-13.345383,-1.691803,-0.92207336,-1.6036682,1.1319885
1617,A,268939132835515,1.2269897,-17.74533,-2.3523712,-0.7018738,-1.8270874,1.3168793
1617,A,268939183189519,0.17192078,-8.628296,-4.1576385,-0.6990051,-1.1174011,0.4560547
1617,A,268939233543523,-3.2588043,-6.6975403,-1.2954407,-0.65805054,-0.1136322,-0.79304504
1617,A,268939283897527,3.3756256,-4.954773,-2.3546143,-0.80397034,-0.24783325,-1.3755951
1617,A,268939334251531,6.2986298,-4.2769775,-0.87394714,-1.313034,2.0058136,0.62353516
1617,A,268939384605535,3.229828,-4.0126495,2.8063202,0.26081848,0.90475464,0.6090393
1617,A,268939434959539,-9.645813,-10.970734,11.570847,-0.09906006,1.381012,0.7595978
1617,A,268939485313543,-14.300003,-15.876816,5.2792664,0.6903534,0.42356873,-0.2432251
1617,A,268939535667546,0.4492798,-9.098236,1.085434,0.32380676,1.2184296,-0.49421692
1617,A,268939586021550,-2.3073273,-15.510773,7.115387,0.4719391,0.32318115,-1.2898712
1617,A,268939636375554,0.7350006,-7.509384,-1.6943817,0.05885315,-2.8751526,-1.7517853
1617,A,268939686729558,1.9105682,-9.006958,-1.76268,-2.0230255,-5.4192047,-1.6835022
1617,A,268939737083562,0.21073914,-7.3506317,-2.8010864,-3.0802765,1.9527893,-1.3823853
1617,A,268939787437566,-1.0516815,-8.156616,-6.7779846,-1.3759155,5.9460907,-1.322998
1617,A,268939837791570,-3.2335815,-9.924652,-3.7640076,0.6126709,-2.076416,-0.7154236
1617,A,268939888137739,-5.5977936,-9.4166565,10.086639,-0.46176147,-0.21661377,-0.5222626
1617,A,268939938491743,-2.8403778,-10.624695,9.294373,0.45329285,3.2268524,0.66574097
1617,A,268939988845747,-6.714676,-11.118271,-5.762314,1.8352966,-1.6908264,2.967453
1617,A,268940039199751,-7.332672,-12.461838,1.8718872,1.9028931,1.4008942,3.5414886
1617,A,268940089553754,-5.1445007,-11.278366,5.3845215,1.0084534,2.7063293,2.4708252
1617,A,268940139907758,-4.220459,-12.306198,-0.77316284,-0.08518982,-0.5804901,1.2868958
1617,A,268940190261762,-0.2082367,-17.650131,-1.8161469,-0.33807373,-1.202591,1.1692505
1617,A,268940240615766,4.006317,-15.000061,-4.162262,-0.42616272,-1.1461487,0.9871521
1617,A,268940290969770,0.26020813,-7.8058624,-4.066696,-0.562088,-0.33099365,0.104019165
1617,A,268940341323774,-0.86839294,-5.832245,-1.6767578,-0.4337616,-0.8523712,-1.0748901
1617,A,268940391677778,3.2796936,-4.822098,-1.6586914,-0.3296814,-0.23362732,-0.5027313
1617,A,268940442031782,3.9175568,-3.3146973,-0.761322,-0.27038574,0.94329834,0.24179077
1617,A,268940492385786,-5.2864532,-6.367447,6.4611053,0.2432251,2.7761688,0.6120148
1617,A,268940542739790,-15.074036,-12.374161,7.5815887,0.49441528,1.5550079,0.08731079
1617,A,268940593093793,-6.6317444,-11.174164,1.6945648,0.3892975,0.6264343,-0.32759094
1617,A,268940643447797,1.5651245,-12.245544,-1.6286621,0.65753174,1.6091919,-1.0728455
1617,A,268940693801801,1.5585175,-10.119202,-2.0364227,1.0819855,-0.4394989,-1.8477173
1617,A,268940744155805,1.3988953,-9.019516,-1.0569458,-0.09391785,-5.575363,-1.7034607
1617,A,268940794509809,-0.13154602,-9.539978,-1.2249451,-2.8407745,-3.9604797,-1.0315094
1617,A,268940844863813,-2.0484314,-7.9546967,-3.9729462,-3.5931396,3.1506042,-0.4900055
1617,A,268940895217817,-2.7755585,-8.914215,-6.6293945,0.39198303,2.4688568,-0.83265686
1617,A,268940945571821,-5.392624,-8.283325,-1.4848633,0.8931427,-1.2835541,-1.0730438
1617,A,268940995925825,-3.3666077,-9.139008,3.3753052,-0.400177,-0.6082916,-0.7186432
1617,A,268941046279829,-3.614563,-10.8593445,-3.9586182,2.2257843,2.2569885,0.5997467
1617,A,268941096633833,-6.017105,-11.09581,-5.75264,2.087799,-0.5052643,2.4966888
1617,A,268941146987836,-11.136337,-13.243881,0.2522583,2.4306183,0.24171448,3.456009
1617,A,268941197341840,-9.965424,-14.647842,-0.6463165,0.6205597,5.1537323,2.6546936
1617,A,268941247695844,-4.7785797,-12.549744,-0.81773376,0.11399841,-0.38964844,1.0447235
1617,A,268941298049848,-0.7309723,-16.394318,0.08207703,-0.31277466,-1.6495667,1.0883942
1617,A,268941348403852,2.343399,-13.524963,-9.644974,-0.49197388,-1.2106171,0.9369049
1617,A,268941398757856,-1.9112701,-8.470627,-3.391159,-0.59432983,0.0652771,0.17115784
1617,A,268941449111860,-0.09945679,-6.101593,-1.5110626,-0.8075104,0.35656738,-1.2532959
1617,A,268941499465864,2.6049957,-5.716156,-1.9190216,-1.4309082,0.58981323,-0.7287903
1617,A,268941549819868,4.0449677,-3.5061035,-1.49086,0.30551147,-0.11668396,0.5145569
1617,A,268941600173872,2.6891632,-3.3339996,1.5019226,0.31732178,-0.23091125,-0.027938843
1617,A,268941650527876,-15.6675415,-15.866104,-6.2649536,1.3026886,0.2030487,-0.011550903
1617,A,268941700881879,-6.334198,-7.7469635,-0.8437958,1.4481659,0.0048980713,-0.07875061
1617,A,268941751235883,0.6755066,-9.071442,-6.513565,0.5751648,1.1726685,-0.8379059
1617,A,268941801589887,1.9642334,-10.839706,-7.2218323,0.4979248,1.8239288,-1.3168488
1617,A,268941851943891,0.657135,-7.248459,-2.3349915,-0.9938812,-3.7070313,-1.675766
1617,A,268941902297895,0.26739502,-9.878693,-1.2008514,-1.9829407,-5.2676544,-1.6422272
1617,A,268941952651899,-0.28944397,-8.523285,-5.6650543,-4.7356873,5.524063,-1.3293152
1617,A,268942003005903,0.004135132,-6.446594,-9.546448,2.5336761,1.1756287,-0.70059204
1617,A,268942053359907,-4.3416595,-9.910339,-0.86317444,-0.13716125,-1.2333679,-0.9256592
1617,A,268942103713911,-4.490509,-10.375931,1.204361,-0.9584656,2.6275635,-0.5699463
1617,A,268942154067915,-3.6622772,-9.958298,-9.100693,2.656662,0.84754944,1.5856628
1617,A,268942204421918,-7.0531006,-11.069183,-5.5840607,2.3761444,-1.6876984,3.297943
1617,A,268942254775922,-10.231613,-13.588699,1.2662964,1.819931,2.5481567,3.6156616
1617,A,268942305129926,-7.7658386,-10.616501,-2.5740051,0.513443,3.5208588,2.3834229
1617,A,268942355483930,-5.4032135,-13.118408,0.0021820068,-0.3020935,-2.0923157,0.6841278
1617,A,268942405837934,1.4472656,-19.25235,-3.3638306,-0.5029297,-1.1236725,1.4496155
1617,A,268942456191938,2.6883087,-13.048706,0.23735046,-0.6279297,-0.9326782,0.54478455
1617,A,268942506545942,-5.557205,-5.475281,-0.46209717,-0.7179718,-0.039276123,-0.49198914
1617,A,268942556899946,2.8098602,-5.388397,-3.243866,0.2576599,-2.1958313,-1.2168732
1617,A,268942607253950,5.0326843,-3.8346405,-2.4064484,-0.10960388,0.64530945,0.4105835
1617,A,268942657607954,3.8787384,-1.0394897,0.14344788,-0.2663269,0.08937073,0.2179718
1617,A,268942707961958,-18.220612,-10.780685,11.56897,-0.7784271,-0.56881714,-0.18815613
1617,A,268942758315961,-15.207535,-14.936127,3.799652,0.41807556,-0.5748749,-0.25727844
1617,A,268942808669965,0.4743805,-3.7887726,0.98332214,0.5117035,1.6443939,-0.162323
1617,A,268942859023969,-11.714035,-17.571518,11.279266,0.70166016,2.031433,-1.1737671
1617,A,268942909377973,4.6739807,-6.7482605,-3.463852,0.6058197,-0.6454315,-1.8544617
1617,A,268942959731977,1.6514435,-8.508545,-1.3190002,-1.5428925,-5.3373413,-1.9051056
1617,A,268943010085981,0.48538208,-9.510986,-2.6255798,-2.7627563,-1.7571564,-1.5321655
1617,A,268943060439985,-1.6182404,-7.535446,-7.368164,-1.9766235,4.656082,-1.1730042
1617,A,268943110793989,-3.9602966,-8.809097,-4.609909,-0.25756836,-0.08097839,-0.9481201
1617,A,268943161147993,-6.3584747,-9.773087,7.611557,0.46203613,1.0051727,-0.6376648
1617,A,268943211501997,1.1791229,-8.096085,11.0585785,-0.2716217,1.7793427,-0.22758484
1617,A,268943261856001,-2.18956,-9.831619,-3.6560974,1.0711823,0.94325256,0.28877258
1617,A,268943312210004,-5.42453,-10.747177,-3.416809,1.9385986,0.3423462,1.2783966
1617,A,268943362564008,-5.815857,-12.198715,1.280899,1.9116821,-1.2703247,2.5884705
1617,A,268943412918012,-7.078705,-11.705948,0.11608887,1.8710175,1.3002319,2.8482513
1617,A,268943463272016,-7.3614197,-9.842697,-0.17578125,0.9755554,4.112335,2.0986176
1617,A,268943513626020,-4.2436066,-12.223587,-0.5325775,-0.3980255,-1.0315399,1.1290588
1617,A,268943563980024,0.42825317,-14.977554,-1.1559906,-0.5857849,-1.2559814,0.83958435
1617,A,268943614334028,3.490738,-10.773499,-5.570114,-0.69203186,-1.3340454,0.6734619
1617,A,268943664688032,0.119781494,-7.5108185,-4.696411,-0.58955383,-0.64323425,-0.10832214
1617,A,268943715042036,-1.809433,-6.080429,-1.7570953,-0.48716736,-0.26550293,-0.7160492
1617,A,268943765396040,2.3899689,-5.6601563,-1.485733,-0.5290985,-0.2060852,-0.3496399
1617,A,268943815750043,2.7565002,-4.8159027,0.25068665,-0.09121704,0.21122742,0.3310852
1617,A,268943866104047,-4.1902466,-6.1910706,0.907547,-0.19004822,-0.23747253,0.1678772
1617,A,268943916458051,-16.266586,-11.954544,2.1368713,0.0927124,-0.4089508,-0.16711426
1617,A,268943966812055,-11.880371,-10.555313,1.2144165,0.7635956,0.4407959,-0.33032227
1617,A,268944017166059,-3.225708,-10.329071,6.006302,0.5262909,1.1803589,-0.69026184
1617,A,268944067520063,-3.067627,-14.847046,7.1855774,0.6065521,1.9836426E-4,-1.1947021
1617,A,268944117874067,0.75439453,-9.293808,-2.5787811,-0.110580444,-1.7784576,-1.3803558
1617,A,268944168228071,-0.08546448,-9.79187,-2.0753632,-1.7370605,-3.2141266,-1.5562439
1617,A,268944218582075,-1.1163788,-9.003311,-2.7393646,-2.6021118,-1.3566742,-1.3003693
1617,A,268944268936079,-1.2087402,-7.176178,-5.500656,0.033203125,2.45195,-1.3669434
1617,A,268944319290083,-2.8909912,-8.244995,-5.5424194,1.5184631,0.61590576,-1.3586731
1617,A,268944369644086,-5.5319824,-10.3680725,0.10757446,-0.43112183,-0.81489563,-0.8749237
1617,A,268944419998090,-6.571167,-11.940186,-2.927353,1.5445862,1.0868378,-0.11077881
1617,A,268944470352094,-6.8141937,-11.762085,-7.318527,2.6980743,-0.2905426,1.5363922
1617,A,268944520706098,-9.046951,-12.472946,0.041427612,1.7232208,-1.7276611,3.0878754
1617,A,268944571060102,-9.864075,-13.657867,1.7831879,1.7388306,3.1794891,3.0838318
1617,A,268944621414106,-7.849945,-12.301727,-0.814621,0.58955383,1.8034973,1.9927979
1617,A,268944671768110,-4.3983,-14.485382,-0.3840332,-0.4071808,-1.2104187,1.232727
1617,A,268944722122114,1.9974518,-17.828766,-2.7745209,-0.46566772,-1.528122,1.1073914
1617,A,268944772476118,3.2251282,-13.188019,-6.7564697,-0.54927063,-1.0200195,0.65390015
1617,A,268944822830122,-0.8153229,-7.2810516,-3.6492462,-0.72750854,0.084487915,-0.5163574
1617,A,268944873184126,1.1710815,-5.2726135,-1.9644165,0.06904602,-2.020172,-1.1539764
1617,A,268944923538129,4.7156982,-3.9992828,-1.9109955,0.4721222,-0.5216217,0.35751343
1617,A,268944973892133,5.6293793,-2.9736328,-0.9887085,-0.02217102,0.7125702,0.063201904
1617,A,268945024246137,-11.903946,-10.672287,1.3451843,-0.11933899,0.5288391,0.31141663
1617,A,268945074600141,-15.376511,-13.783508,2.0410614,0.49743652,0.12860107,-0.47746277
1617,A,268945124954145,-0.37582397,-3.0203705,-4.1406403,0.6313782,0.3539276,0.074523926
1617,A,268945175308149,-5.9995575,-13.877167,-5.4208984,0.43730164,0.8236389,-0.79145813
1617,A,268945225662153,-3.3481445,-10.345062,-2.955902,-0.11958313,0.66804504,-1.042923
1617,A,268945276016157,0.23849487,-7.6671143,-2.05661,-1.2031555,-2.2655182,-1.4711151
1617,A,268945326370161,-0.83976746,-11.185684,-1.839798,-2.3253784,-3.0334473,-1.6021118
1617,A,268945376724165,-0.11958313,-8.249832,-6.197113,-4.254425,5.351898,-2.1004486
1617,A,268945427078168,-0.7315674,-6.578125,-5.303528,0.43647766,-0.34014893,-1.3453369
1617,A,268945477432172,-3.5960693,-9.519272,-1.8001709,0.5458832,-0.24429321,-1.0531769
1617,A,268945527786176,-5.0580444,-9.136398,15.659653,-1.0810089,2.2371368,-0.6591339
1617,A,268945578140180,-5.2604675,-10.376694,3.4333038,2.6911774,1.1962585,1.1643524
1617,A,268945628494184,-6.1179504,-10.441467,-4.172882,2.095932,-2.063446,2.5593414
1617,A,268945678848188,-7.794937,-11.5772705,-1.0043335,1.8990631,0.5881958,3.2003937
1617,A,268945729202192,-5.877182,-10.942596,-3.728592,0.9856262,3.8637238,2.7006836
1617,A,268945779556196,-5.970886,-11.67189,-2.0641327,-0.84347534,-1.3032379,0.91181946
1617,A,268945829910200,-1.6033478,-18.576767,-1.6030121,-0.8049164,-1.3576202,1.3902283
1617,A,268945880264204,5.1211243,-13.623215,-4.946747,-0.66012573,-1.7552185,0.7689667
1617,A,268945930618208,-1.7776337,-4.7742767,1.9588776,-0.75001526,-0.28759766,-0.18083191
1617,A,268945980972211,1.201828,-6.2519073,-2.162796,-0.74160767,0.43466187,-1.4508972
1617,A,268946031326215,3.9743042,-3.8394928,-1.8422089,-2.1731873,1.1425476,0.020629883
1617,A,268946081680219,4.8304596,-3.2024078,-0.25187683,0.6557007,0.5184021,0.9207916
1617,A,268946132034223,2.4990387,-5.4800262,2.992813,-0.5199127,-0.5662842,-0.73950195
1617,A,268946182388227,-19.020142,-17.225204,-2.8339996,0.44300842,1.0611572,0.8427124
1617,A,268946232742231,-2.9074402,-5.9804993,-0.69467163,0.19784546,0.13235474,0.33073425
1617,A,268946283096235,1.2999268,-7.46669,-9.922821,0.6155243,1.3006592,-0.32901
1617,A,268946333450239,0.24691772,-18.98471,-8.112244,0.8271179,1.3473206,-0.5610199
1617,A,268946383804243,-0.43852234,-6.781372,-0.4981079,-0.2735443,-1.1631165,-1.4840546
1617,A,268946434158247,1.2293854,-6.7812347,-0.91641235,-1.4949036,-4.670166,-2.1957397
1617,A,268946484512251,1.1812897,-10.0354,-3.1739655,-2.7269745,-1.3259125,-2.170105
1617,A,268946534866254,0.28501892,-6.9102325,-6.9786835,-3.17276,6.526108,-1.7727356
1617,A,268946585220258,-2.3378448,-9.280411,-5.4808655,2.5231323,-1.3799896,-0.26167297
1617,A,268946635574262,-6.7057495,-11.13269,1.5850677,-0.57351685,-1.9228516,-0.40934753
1617,A,268946685928266,-7.553772,-11.269714,15.74704,0.14230347,3.9980621,0.24824524
1617,A,268946736282270,-4.1115265,-8.735458,-7.627121,3.043335,-0.0043945313,2.6605072
1617,A,268946786636274,-6.1985474,-10.702042,-2.926941,1.6264191,-0.4510193,3.7060394
1617,A,268946836990278,-5.2480316,-11.375458,3.9140778,1.2971191,3.4325867,3.1213531
1617,A,268946887344282,-5.048355,-10.772675,-8.617126,-0.332489,-0.8511963,1.257721
1617,A,268946937698286,-2.8669586,-16.214905,-1.0266724,-0.8740845,-1.005249,0.8040314
1617,A,268946988052290,2.5184326,-17.366608,-2.0660858,-0.76145935,-1.4049377,0.663147
1617,A,268947038406293,1.7026978,-8.603073,-4.496582,-0.5807953,-0.9807892,0.18379211
1617,A,268947088760297,-0.9678192,-5.856888,-2.1009674,-0.39822388,-0.37997437,-0.802124
1617,A,268947139114301,2.995346,-4.547821,-2.0104523,-0.2267456,-1.6033936,-0.6296234
1617,A,268947189468305,4.148987,-2.923294,-0.8153534,-0.0574646,-0.2395935,0.5393982
1617,A,268947239822309,-0.9009247,-4.385727,0.64164734,-0.29345703,-0.098846436,0.2097168
1617,A,268947290176313,-19.580658,-13.211304,4.1263275,-0.2000885,0.8201904,-0.24934387
1617,A,268947340530317,-11.529297,-11.483704,0.9634094,0.56832886,0.51356506,-0.2788086
1617,A,268947390884321,1.3204498,-6.8235016,2.6177368,0.6564789,1.2368317,-0.19128418
1617,A,268947441238325,-6.527664,-15.44249,4.7792053,0.42918396,0.7036438,-1.1776123
1617,A,268947491592329,0.11558533,-7.515564,-2.7359314,-0.61032104,-1.6021576,-1.3518524
1617,A,268947541946333,-0.13136292,-9.610275,-2.0262146,-1.6919861,-3.365799,-1.5905151
1617,A,268947592300336,-0.8744507,-10.412201,-3.6521454,-2.8112488,0.15444946,-1.447937
1617,A,268947642654340,-0.48747253,-7.059311,-5.36528,-1.6390381,3.0103302,-1.2573853
1617,A,268947693008344,-2.5319214,-7.890503,-3.2717438,1.3373413,-0.4570923,-1.2516632
1617,A,268947743362348,-3.6924286,-9.109283,0.02532959,-0.11402893,0.25639343,-1.1967773
1617,A,268947793716352,-3.4052582,-9.263504,-1.0584106,1.0424957,1.8683319,-0.29795837
1617,A,268947844070356,-5.5009766,-9.961502,-4.547577,2.8293,0.27742004,1.632309
1617,A,268947894424360,-9.391754,-11.507599,-3.0190735,1.9624786,-1.1358337,3.446869
1617,A,268947944778364,-11.012848,-13.351395,-3.2471466,1.1341095,3.015442,3.275055
1617,A,268947995132368,-7.657181,-12.819046,-4.393982,-0.46528625,1.9569702,1.521347
1617,A,268948045486372,-3.0142365,-15.547043,-1.7404327,-0.8310547,-1.649765,1.018158
1617,A,268948095840376,1.7437897,-15.8520355,-3.829239,-0.7852783,-1.7788544,1.0626221
1617,A,268948146194379,0.2111206,-7.948868,-2.2169342,-0.8983307,-1.151123,0.2454834
1617,A,268948196548383,-1.0901184,-4.6687164,-0.20153809,-0.74028015,-0.18986511,-0.9961395
1617,A,268948246902387,2.8077698,-4.962738,-2.2536774,-1.539093,0.75213623,-0.74102783
1617,A,268948297256391,4.600586,-4.138031,-1.3378754,-0.752655,0.66200256,0.3600006
1617,A,268948347610395,4.098282,-5.098343,3.225357,-0.051986694,0.31045532,0.22029114
1617,A,268948397964399,-9.861542,-10.204437,0.9964447,0.2339325,0.5131531,0.5606842
1617,A,268948448318403,-12.67131,-11.035599,-1.1925507,0.780365,0.5724182,0.51387024
1617,A,268948498672407,-2.7711487,-9.088318,-7.1033325,0.45674133,1.5701752,-0.09875488
1617,A,268948549026411,1.9536285,-12.735611,-10.826248,0.57559204,1.9732513,-0.5814667
1617,A,268948599380415,1.5530548,-9.0151825,-4.58107,0.24371338,-0.7341614,-1.3219757
1617,A,268948649734418,1.4943542,-7.2964935,-1.4404907,-0.8692169,-3.7285767,-1.8340759
1617,A,268948700088422,2.140808,-9.639847,-4.176697,-2.0794067,-3.1108246,-1.9720459
1617,A,268948750442426,1.1997986,-7.7712097,-5.5235596,-2.5267181,5.028824,-2.1020203
1617,A,268948800796430,-1.2314758,-8.429398,-5.5470123,0.3534851,1.8049927,-1.4793396
1617,A,268948851150434,-4.8658905,-10.183899,-1.4522705,0.28222656,-2.6179504,-0.7477417
1617,A,268948901504438,-8.801636,-11.448135,13.820587,-0.6088104,3.264862,-0.086746216
1617,A,268948951858442,-7.365143,-10.654648,0.76423645,1.7355347,-0.4847412,1.8457489
1617,A,268949002212446,-7.1360626,-10.842865,-4.7825317,1.8147736,-2.2039185,3.4681091
1617,A,268949052566450,-5.210022,-11.230789,3.8424377,1.6008911,3.28331,3.3849792
1617,A,268949102920454,-5.9274445,-10.277252,-4.234253,0.2578888,-0.21028137,1.6590271
1617,A,268949153274458,-4.780365,-14.0980835,-3.6937256,-0.31011963,-1.4640045,0.9155121
1617,A,268949203628461,1.646759,-18.476501,-2.4355774,-0.30889893,-1.7061005,1.0666504
1617,A,268949253982465,1.6011963,-12.885727,-1.5348053,-0.3927002,-0.810791,0.5506897
1617,A,268949304336469,-1.7452545,-6.697769,-1.4233856,-0.5473633,0.24794006,-0.571579
1617,A,268949354690473,2.028885,-4.841278,-1.672699,0.06359863,-2.1052246,-1.7494354
1617,A,268949405044477,4.5554657,-4.0127106,-1.7871094,0.05067444,1.2033844,0.9708252
1617,A,268949455398481,5.919174,-2.0365143,-1.4355164,-0.0038757324,0.7094879,0.38983154
1617,A,268949505752485,-10.283585,-9.7369995,10.381226,-0.5431366,1.5476074,0.63967896
1617,A,268949556106489,-15.727219,-16.683823,2.4372253,0.72442627,0.22627258,-0.70695496
1617,A,268949606460493,7.002304,-1.6112366,-2.6005554,0.43920898,0.6941223,0.25205994
1617,A,268949656814497,-10.327118,-17.358505,-2.1225128,0.23033142,0.20884705,-1.0428925
1617,A,268949707168501,-3.031372,-9.161346,-2.4513092,-0.763916,-1.4654236,-1.3367004
1617,A,268949757522504,0.8910675,-7.8622894,-1.7139893,-1.7225494,-2.9684448,-1.6550598
1617,A,268949807876508,-1.7773438,-10.665222,-5.377411,-2.6228638,-2.8822632,-1.6240234
1617,A,268949858230512,0.06599426,-6.8595886,-4.9282684,-3.5495605,5.841614,-1.6713257
1617,A,268949908594974,-1.0492706,-7.4022064,-4.252472,1.6518402,-0.6290741,-0.97784424
1617,A,268949958948978,-4.0424805,-9.86853,-0.5591278,0.51091003,-1.3716736,-1.1968994
1617,A,268950009302982,-6.9191284,-10.900909,19.063171,-1.2004395,3.346817,-0.44815063
1617,A,268950059656986,-4.889038,-9.239044,-2.5432892,4.201584,1.5397491,2.2259064
1617,A,268950110010990,-7.6875153,-11.20105,-5.458008,0.88194275,-2.08609,3.6521301
1617,A,268950160364994,-8.918274,-11.0486145,2.7193298,1.8102112,3.409912,3.3614044
1617,A,268950210718998,-8.03215,-13.935989,-5.8699036,0.00390625,0.17430115,1.6406097
1617,A,268950261073001,-3.8774567,-14.936615,-2.5820923,-0.6239624,-1.5470734,0.47094727
1617,A,268950311427005,2.4135132,-19.254532,-0.24377441,-0.39646912,-1.437088,1.157608
1617,A,268950361781009,3.4574738,-11.401459,-7.616394,-0.57751465,-0.9697876,0.36454773
1617,A,268950412135013,-4.4888306,-6.2979126,-0.23913574,-0.5767822,0.4671631,-0.81987
1617,A,268950462489017,2.1637268,-4.9856567,2.0185852,-0.40272522,-0.6024933,-1.6790771
1617,A,268950512843021,4.5861816,-3.747284,-1.1934357,-1.0998993,2.4398346,1.2899628
1617,A,268950563197025,4.343109,-3.3500671,0.9598694,-0.09725952,0.8115692,0.82136536
1617,A,268950613551029,-10.162994,-11.382217,12.243469,0.03366089,2.0767975,1.0742645
1617,A,268950663905033,-15.10527,-17.085266,7.297394,0.60035706,-0.099105835,-0.3152771
1617,A,268950714259037,5.213684,-8.12561,0.5563202,0.46868896,1.0011139,-0.49380493
1617,A,268950764613041,-5.609833,-16.979767,4.4054413,0.71562195,-0.48356628,-1.1944122
1617,A,268950814967044,0.17977905,-7.47023,-1.82724,-0.216568,-3.1391144,-1.470993
1617,A,268950865321048,1.3156433,-10.471542,-1.8759155,-1.8222504,-3.377945,-1.7045135
1617,A,268950915675052,-0.43873596,-8.55368,-3.8074493,-2.7240448,-1.1802979,-1.5339661
1617,A,268950966029056,-0.9492035,-7.30513,-4.7535706,-1.3365784,2.768814,-1.2705841
1617,A,268951016383060,-2.7302094,-8.396942,-3.468872,1.8865814,3.1610565,-1.2861481
1617,A,268951066737064,-5.0155334,-8.692963,0.6251068,0.028808594,-2.0442352,-0.92308044
1617,A,268951117091068,-7.3710938,-12.739166,1.9841156,-0.015060425,0.58428955,0.36517334
1617,A,268951167445072,-7.222946,-12.269394,-7.2508087,2.5418549,2.520584,2.0706177
1617,A,268951217799076,-8.377136,-12.193695,-1.9479065,1.6613312,-1.1061707,3.251831
1617,A,268951268153080,-8.9435425,-12.973022,7.986496,0.56307983,1.5679626,2.602234
1617,A,268951318507084,-6.12236,-11.811874,3.32695,-1.13797,2.2075043,1.2836609
1617,A,268951368861087,-3.228592,-14.395599,-1.6747589,-0.7797241,-1.5831604,0.90405273
1617,A,268951419215091,-0.21923828,-15.817291,-1.0781097,-0.7394867,-1.519104,0.8402405
1617,A,268951469569095,-1.6828918,-8.468521,-0.72924805,-0.8286896,-0.5964508,0.035125732
1617,A,268951519923099,-0.8208771,-5.7117615,-2.3181152,-0.73179626,-0.23698425,-1.1420441
1617,A,268951570277103,3.0165863,-4.26503,-2.148697,-1.4096985,0.7920685,-0.97102356
1617,A,268951620631107,5.403778,-4.3292847,-0.8957977,-1.2720642,1.7715454,0.36203003
1617,A,268951670985111,1.54953,-5.4793854,4.5637817,-0.015792847,-1.2853241,0.44909668
1617,A,268951721339115,-10.591446,-12.468567,6.0490723,0.25753784,-1.9723206,0.20500183
1617,A,268951771693119,-12.019104,-12.783859,-0.4052124,0.8564606,-0.18354797,0.35099792
1617,A,268951822047123,-1.423584,-9.501312,-4.738632,0.6264496,1.3835754,-0.11306763
1617,A,268951872401126,1.6056671,-12.046585,-7.184311,0.6720276,1.1398926,-0.94007874
1617,A,268951922755130,2.9576569,-7.1430206,-3.769394,0.28405762,-2.3186646,-1.422287
1617,A,268951973109134,1.9996948,-8.519043,-1.5904083,-1.4441986,-5.0968323,-1.960968
1617,A,268952023463138,1.1973877,-9.806503,-2.9181213,-2.7672577,-2.3635101,-1.8144836
1617,A,268952073817142,-0.07917786,-7.516815,-5.8187866,-1.4502563,5.158249,-1.6952972
1617,A,268952124171146,-2.340683,-8.926804,-4.982727,0.36817932,2.916809,-1.2170258
1617,A,268952174525150,-5.6960754,-10.874832,1.428833,0.052490234,-3.0191193,-0.63812256
1617,A,268952224879154,-6.8839874,-12.121017,10.837845,0.10083008,1.3049164,-0.2776947
1617,A,268952275233158,-6.4986115,-11.301498,2.5031128,1.7048645,0.8603821,1.6790924
1617,A,268952325587162,-6.954483,-11.041229,-3.6131134,1.6932068,-1.4628754,3.6418762
1617,A,268952375941166,-6.925812,-11.883362,5.90094,1.3632507,3.8999786,3.2112732
1617,A,268952426295169,-5.708618,-11.448166,2.2078094,0.29133606,1.5834198,1.4861908
1617,A,268952476649173,-3.4781647,-15.309326,-2.081955,-0.2841797,-0.96417236,0.99508667
1617,A,268952527003177,4.5351257,-18.811127,-1.4586182,-0.3254242,-1.303894,0.9135895
1617,A,268952577357181,2.1427765,-11.346115,-2.7174988,-0.6138611,-0.5582733,0.2988739
1617,A,268952627711185,0.010513306,-5.548996,-2.4462128,-0.8183441,0.35258484,-0.81811523
1617,A,268952678065189,2.3271332,-4.124588,-1.9281769,-0.3625641,-1.4342194,-0.7231293
1617,A,268952728419193,4.111801,-3.9683685,-1.4279785,0.6071625,-0.600647,0.5260315
1617,A,268952778773197,4.6251526,-3.3690796,-1.5100403,-0.3320923,0.7463684,0.13381958
1617,A,268952829127201,-13.166183,-14.617966,-3.7819672,0.6293335,0.7430115,1.0672455
1617,A,268952879481205,-8.641861,-10.109985,-0.9101105,0.7232361,0.2351532,0.1787262
1617,A,268952929835209,1.5939331,-7.3778534,-6.030411,0.49118042,1.1620483,0.27165222
1617,A,268952980189212,1.7751312,-13.493225,-9.953873,0.44662476,1.2445221,-0.835907
1617,A,268953030543216,0.074020386,-7.9037476,-3.2648163,0.13009644,-1.6385498,-1.4416809
1617,A,268953080897220,2.516327,-10.471817,-1.2665558,-1.0332031,-4.348053,-1.9868622
1617,A,268953131251224,0.57884216,-10.043747,-3.9447327,-2.4175262,-3.584961,-1.9048157
1617,A,268953181605228,0.56604004,-7.146469,-5.8708496,-3.620987,3.953415,-1.885498
1617,A,268953231959232,-1.2827606,-8.564011,-4.6366577,1.6821747,1.2902374,-0.58006287
1617,A,268953282313236,-4.8955536,-9.280731,0.5774994,0.5015564,-1.781723,-0.47494507
1617,A,268953332667240,-7.058487,-9.986359,7.238861,-1.121521,2.2181244,-0.29049683
1617,A,268953383021244,-5.14093,-9.982712,-2.883316,3.138916,2.3522491,1.7004242
1617,A,268953433375248,-5.4770813,-10.358887,-5.21344,1.8462524,-1.7151947,3.0714722
1617,A,268953483729251,-6.1180267,-11.728897,1.5183411,1.6586151,0.58461,3.4321747
1617,A,268953534083255,-7.0252075,-12.156403,-4.6239624,0.12991333,2.7415466,2.0166626
1617,A,268953584437259,-4.952713,-12.24498,-1.4067383,-1.0126343,-1.5023651,0.6639252
1617,A,268953634791263,0.803772,-18.939468,-2.7648163,-0.8353882,-1.890686,1.3594208
1617,A,268953685145267,3.784668,-10.370026,-6.550247,-0.87854004,-1.7100983,0.59114075
1617,A,268953735499271,-4.963028,-6.291794,-0.2702179,-0.97843933,0.09385681,-0.5142975
1617,A,268953785853275,2.1946564,-5.649704,-3.175476,-0.08735657,-1.4970398,-1.6467285
1617,A,268953836207279,5.66803,-4.307541,-2.0338135,-2.322937,3.016449,0.3779602
1617,A,268953886561283,6.143219,-3.3874207,0.85310364,0.20629883,0.9035797,0.5443878
1617,A,268953936915287,-4.804764,-8.982193,10.328003,-0.39279175,-2.5894012,0.07147217
1617,A,268953987269291,-19.216064,-17.466614,2.133316,0.69721985,-1.3585205,0.0019073486
1617,A,268954037623294,-0.92041016,-3.9178925,-3.1156769,0.6139374,0.8552551,0.7600403
1617,A,268954087977298,-3.25,-17.522781,-6.6980743,0.27285767,3.182251,-0.6252289
1617,A,268954138331302,2.6384583,-9.561981,-4.122467,1.0633545,0.40074158,-1.1527557
1617,A,268954188685306,3.497696,-6.6945953,-1.8244629,0.2814026,-5.642761,-1.849884
1617,A,268954239039310,2.6265564,-10.205688,-1.3448029,-2.5016785,-5.9508057,-1.9450989
1617,A,268954289393314,0.27217102,-7.700836,-4.2318726,-4.1391754,5.552475,-1.9125671
1617,A,268954339747318,-1.2433167,-8.652954,-8.0894165,1.7351074,5.8732452,-1.2630768
1617,A,268954390101322,-4.8935394,-11.009399,-0.97662354,0.4744873,-2.2017212,-0.8955841
1617,A,268954440455326,-6.5141754,-10.222748,1.1993103,-0.2134552,-2.3610535,-0.2432251
1617,A,268954490809330,-4.078003,-11.167511,-2.5279694,0.4506836,3.8736572,0.30508423
1617,A,268954541163334,-6.690262,-10.503281,-5.1139526,2.4526825,-0.7001953,2.3594208
1617,A,268954591517337,-6.8919983,-10.931122,0.048675537,1.4650879,-0.3804474,3.3805542
1617,A,268954641871341,-4.937729,-11.284576,1.5260468,1.22258,2.4295197,2.644226
1617,A,268954692225345,-5.825531,-10.978561,-5.771591,-0.43559265,-0.75424194,1.1594086
1617,A,268954742579349,-2.3481445,-15.706833,-1.924942,-0.7041168,-1.5944214,0.7955322
1617,A,268954792933353,2.915451,-16.937317,-3.1556091,-0.5392761,-1.7862701,0.8605652
1617,A,268954843287357,0.6165924,-8.755768,-3.0382843,-0.66433716,-0.7145233,0.03640747
1617,A,268954893641361,-1.2324677,-6.0544434,-2.0069733,-0.34931946,-0.35258484,-0.8255768
1617,A,268954943995365,3.5529633,-5.181961,-2.103363,-0.20785522,-0.6265259,-0.8574524
1617,A,268954994349369,5.2582397,-4.7486267,-1.56427,-0.7919159,1.901886,0.20678711
1617,A,268955044703373,0.60061646,-6.050308,1.9902496,0.14494324,0.4986267,0.20074463
1617,A,268955095057376,-13.349487,-12.546722,7.0050354,-0.06439209,0.11152649,-0.2709961
1617,A,268955145411380,-13.242111,-11.698471,2.9197693,0.28279114,0.6060028,0.23468018
1617,A,268955195765384,-0.018112183,-6.0156555,-4.7505646,0.68196106,0.38589478,-0.008483887
1617,A,268955246119388,-0.55659485,-13.145386,-7.3359985,0.77171326,0.9069977,-0.69192505
1617,A,268955296473392,-0.70822144,-12.974335,-2.4441833,0.064071655,-0.59054565,-0.82437134
1617,A,268955346827396,0.06097412,-7.1445465,-0.8678894,-0.975235,-3.337616,-1.4519653
1617,A,268955397181400,0.24546814,-8.704605,-2.951233,-2.117813,-3.2481384,-1.6553192
1617,A,268955447535404,1.0355988,-9.087128,-5.1165314,-2.916504,1.8598785,-1.4234314
1617,A,268955497889408,-1.2105103,-7.5318146,-4.7495728,-0.21386719,2.5805817,-1.1321411
1617,A,268955548243412,-4.438843,-10.397385,-1.3391724,1.1934509,-1.560791,-0.7794342
1617,A,268955598597416,-5.1805573,-11.463791,9.298325,-0.72068787,0.21809387,-0.54034424
1617,A,268955648951419,-3.504181,-9.433502,7.0540466,1.327179,2.711441,1.079422
1617,A,268955699305423,-4.693924,-9.156464,-5.0046844,2.4377747,0.92230225,2.8636475
1617,A,268955749659427,-6.7386627,-10.776672,0.01979065,1.2563629,1.2044067,3.1156158
1617,A,268955800013431,-6.497528,-12.309067,1.381134,0.64546204,1.213623,2.0036163
1617,A,268955850367435,-4.3260193,-13.068695,-2.8666687,-0.23942566,-0.8705292,0.9645691
1617,A,268955900721439,-0.49824524,-16.43155,-2.690094,-0.47677612,-1.5714417,0.92085266
1617,A,268955951075443,1.3387604,-14.650391,-3.6354675,-0.59106445,-1.1924744,0.6886139
1617,A,268956001429447,-0.9166107,-7.780655,-3.324768,-0.6598511,0.15873718,-0.17660522
1617,A,268956051783451,0.7862396,-5.2274323,-1.9412994,-0.15248108,-0.94641113,-1.1211395
1617,A,268956102137455,4.2417297,-4.6742096,-1.8180847,-0.40283203,0.74450684,-0.19311523
1617,A,268956152491459,5.623184,-3.418457,-1.6235504,-0.16108704,1.48526,0.36712646
1617,A,268956202845462,-4.6827545,-7.860504,5.18869,-0.25094604,-0.77822876,0.38153076
1617,A,268956253199466,-16.65039,-15.244019,6.925949,0.67407227,-1.3760986,0.07775879
1617,A,268956303553470,-5.502304,-7.453308,-0.5815582,0.80322266,-0.111465454,0.26675415
1617,A,268956353907474,-4.8458557,-13.069916,11.03746,0.58576965,1.413971,-0.2945099
1617,A,268956404261478,-3.747345,-12.410278,4.240219,0.4172516,0.5622711,-0.84381104
1617,A,268956454615482,1.4726105,-7.1484833,-1.7346649,-0.43426514,-2.6917877,-1.4880371
1617,A,268956504969486,0.78608704,-9.588638,-2.730774,-1.6598816,-4.1249084,-1.9253387
1617,A,268956555323490,0.97650146,-8.203186,-5.0009766,-3.9338837,2.1183777,-2.1953125
1617,A,268956605677494,0.42340088,-7.3049927,-5.3094482,0.9376831,3.2671661,-1.0966034
1617,A,268956656031498,-2.847458,-9.498749,-2.3552094,0.9452362,-0.67640686,-0.8514557
1617,A,268956706385501,-6.0513,-11.002106,0.1842804,-0.44758606,-2.7174072,-0.70010376
1617,A,268956756739505,-5.6849823,-9.976883,-5.7167664,0.6233673,3.5632782,-0.025604248
1617,A,268956807093509,-6.564987,-10.384476,-5.798645,2.3134766,0.054229736,2.317871
1617,A,268956857447513,-8.141083,-11.495117,-1.5165253,1.4088593,-1.545227,3.4895477
1617,A,268956907801517,-6.632553,-11.328522,6.5989685,0.8631134,5.102066,2.3948822
1617,A,268956958155521,-5.298279,-11.411423,-2.7973022,-0.2832489,-0.43780518,1.063034
1617,A,268957008509525,-1.9168396,-16.965332,-1.9390259,-0.65989685,-1.5406342,1.0869598
1617,A,268957058863529,4.38974,-14.346924,-2.0250397,-0.7076416,-1.7418823,0.73876953
1617,A,268957109217533,-0.717453,-8.87764,-3.3258057,-0.913147,-0.53370667,-0.12588501
1617,A,268957159571537,-0.36766052,-6.0941315,-3.0139465,-0.69021606,0.31089783,-1.3319092
1617,A,268957209925541,3.66716,-4.7123413,-1.9551544,-1.697403,0.37797546,-0.05117798
1617,A,268957260279544,4.9450836,-4.199127,-0.9592743,0.030960083,0.5374298,0.6147766
1617,A,268957310633548,3.7109222,-5.1012726,2.1679535,-0.44132996,-0.06112671,-0.05984497
1617,A,268957360987552,-17.631516,-15.408371,-6.191086,-0.35646057,3.002655,0.8611145
1617,A,268957411341556,-10.545349,-9.927063,-0.14590454,1.2071686,-0.6099243,0.8514557
1617,A,268957461695560,0.15681458,-7.844406,-12.014755,0.67222595,1.3509979,-0.4408722
1617,A,268957512049564,-2.2095795,-17.269333,-3.945984,0.34033203,1.166687,-0.6552887
1617,A,268957562403568,0.6473999,-7.2289734,-1.483841,0.028320313,-2.700821,-1.2324677
1617,A,268957612757572,1.5259094,-6.801697,-1.1031036,-1.297348,-3.8733368,-1.7864532
1617,A,268957663111576,0.71170044,-10.833267,-4.628952,-2.4451447,-1.4572144,-1.8145752
1617,A,268957713465580,1.0173035,-7.498062,-6.2195587,-4.237625,6.209427,-2.3808289
1617,A,268957763819584,-1.331192,-8.621704,-4.9036713,2.2016907,-1.2259521,-0.7381897
1617,A,268957814173587,-4.8940277,-9.915466,-1.280365,-0.30377197,-2.3345184,-0.74446106
1617,A,268957864527591,-10.060196,-12.731415,18.442307,-0.5029144,3.6623077,-0.36299133
1617,A,268957914881595,-4.109619,-8.214676,-6.163925,3.9203339,2.650711,2.4521332
1617,A,268957965235599,-5.5493317,-9.591049,-4.646393,1.0935364,-0.9255371,3.4241486
1617,A,268958015589603,-9.034271,-12.402283,1.1617279,1.0099335,3.1450348,3.2379303
1617,A,268958065943607,-6.366577,-13.324768,-6.8642426,-0.5653839,-1.0549774,0.9849243
1617,A,268958116297611,-3.4024506,-15.786194,-1.3899231,-0.7293701,-1.4181061,0.9694519
1617,A,268958166651615,4.1734467,-17.962967,0.36869812,-0.74513245,-1.9353943,0.927536
1617,A,268958217005619,-0.1782074,-7.304474,-2.653885,-0.79452515,-1.0907593,0.21003723
1617,A,268958267359623,-1.9110413,-6.5248413,-1.2822571,-0.7507019,-0.19598389,-0.8535156
1617,A,268958317713626,3.7561646,-4.812683,-2.4201965,-0.061050415,-0.9961853,-1.1640472
1617,A,268958368067630,5.035782,-3.063675,-1.8131409,-0.53315735,2.418167,0.92427063
1617,A,268958418421634,2.7306366,-4.210083,1.8672028,-0.15823364,0.95033264,0.37948608
1617,A,268958468775638,-10.176666,-12.819489,13.761612,-0.5102844,0.46066284,0.48672485
1617,A,268958519129642,-14.4010315,-14.211487,3.9593353,0.3451233,-0.09463501,-0.21572876
1617,A,268958569483646,0.342453,-3.818573,2.441101,0.6580963,1.3229065,0.24005127
1617,A,268958619837650,-13.859375,-16.69963,14.283722,0.7363281,1.3229523,-1.0328674
1617,A,268958670191654,0.45254517,-7.671509,-1.5495758,0.24627686,-1.8126373,-1.224823
1617,A,268958720545658,2.276123,-7.7213135,-1.9329681,-1.6152344,-4.33902,-1.801178
1617,A,268958770899662,0.79681396,-10.119476,-3.8907013,-3.4170227,-1.2421265,-2.0521698
1617,A,268958821253666,0.8197479,-7.1646423,-4.7088623,-2.0411682,4.1177673,-1.695343
1617,A,268958871607669,-1.6418915,-8.705627,-3.52063,2.497284,1.4170074,-0.67282104
1617,A,268958921961673,-5.2645416,-10.605911,-0.66729736,-0.03060913,-2.8108215,-0.85154724
1617,A,268958972315677,-6.5380707,-11.145157,-0.8006134,-0.07608032,-1.0410767,-0.5305023
1617,A,268959022669681,-5.1896057,-10.562775,-8.063202,1.2932434,2.6793518,1.2822571
1617,A,268959073023685,-7.117386,-10.8341675,-3.213089,1.6261139,-1.9667358,3.4991608
1617,A,268959123377689,-8.317841,-12.249023,4.1357574,1.1784363,2.5242767,3.555008
1617,A,268959173731693,-4.5173492,-11.418594,7.574463,0.55293274,4.110611,1.830307
1617,A,268959224085697,-2.9058533,-14.405121,-1.6800842,-0.36183167,-0.68940735,1.0172119
1617,A,268959274439701,1.998291,-17.703583,-2.378769,-0.370636,-0.42373657,1.107727
1617,A,268959324793705,3.2438507,-11.898575,-3.6533966,-0.652298,-0.9463806,0.397583
1617,A,268959375147709,-1.3690338,-6.0374756,-3.8128052,-0.80029297,0.3905182,-0.69641113
1617,A,268959425501712,2.0184784,-4.1266785,-5.0384674,-1.2753754,-0.019577026,-0.9591217
1617,A,268959475855716,4.264038,-3.1877747,-1.6343842,-0.62049866,-0.20973206,0.26226807
1617,A,268959526209720,5.042389,-3.5131378,-0.328125,0.0154418945,0.02720642,0.12840271
1617,A,268959576563724,-7.1963043,-11.204346,-4.569504,-0.3731842,0.9573822,0.62568665
1617,A,268959626917728,-12.631348,-13.357178,-5.2390137,-0.016494751,0.81430054,0.6493225
1617,A,268959677271732,-0.9317627,-5.8499146,-5.3780212,0.65423584,0.18165588,0.014984131
1617,A,268959727625736,1.0819092,-11.99176,-6.575943,0.9369354,0.9792023,-0.37355042
1617,A,268959777979740,-1.0098877,-12.735718,-1.70018,0.40176392,-0.03277588,-0.936203
1617,A,268959828333744,0.6502838,-7.287979,-0.8707886,-0.80744934,-2.4902496,-1.5439758
1617,A,268959878687748,0.6920471,-10.222229,-2.324646,-2.1397552,-3.0214539,-1.9211884
1617,A,268959929032200,0.8049164,-8.303711,-4.672928,-4.1956024,2.8668518,-1.9693298
1617,A,268959979386204,0.4832611,-6.6941223,-6.1232605,0.14904785,1.4987335,-1.0314789
1617,A,268960029740208,-2.6042633,-8.543259,-3.8461761,0.7971344,-2.1909332,-0.6755676
1617,A,268960080094212,-5.681183,-11.7655945,3.7583008,-0.9347992,2.1415863,-0.6569061
1617,A,268960130448216,-4.6078644,-10.709595,-2.547989,2.4022064,2.744217,1.4197693
1617,A,268960180802220,-5.480591,-9.893875,-6.9251404,1.9957428,-0.52897644,3.0666046
1617,A,268960231156224,-7.2262115,-11.364746,-4.272461E-4,1.4139557,1.6917114,3.4361572
1617,A,268960281510228,-7.3461456,-13.026611,-4.231537,0.6362457,0.94511414,1.8978882
1617,A,268960331864232,-5.0740967,-14.298691,-3.6341248,-0.34040833,-0.72358704,0.9219208
1617,A,268960382218236,2.15036,-17.903748,-1.2666626,-0.4820099,-1.6280823,1.1313934
1617,A,268960432572240,2.441742,-12.471634,-4.1037292,-0.6179199,-1.159317,0.7464905
1617,A,268960482926243,-1.9583893,-7.2007446,-2.676117,-0.8376007,-0.022598267,-0.21453857
1617,A,268960533280247,0.94155884,-5.879013,-2.0667725,-0.631897,-0.7639618,-1.536911
1617,A,268960583634251,4.048706,-4.505066,-2.2756958,-1.298996,1.8369598,0.48303223
1617,A,268960633988255,4.69014,-2.8692017,-1.2129669,0.04676819,1.1715851,0.44659424
1617,A,268960684342259,-2.8476563,-7.4066772,8.902298,-1.0290375,-0.086761475,0.72602844
1617,A,268960734696263,-16.675308,-17.18306,10.467041,-0.25253296,-1.0292511,-0.5914459
1617,A,268960785050267,0.38215637,-2.947647,-0.7365875,0.5094452,0.62480164,0.52827454
1617,A,268960835404271,-11.000961,-15.595261,15.057007,0.8796387,1.9932404,-0.5124359
1617,A,268960885758275,-2.4368134,-9.968796,2.1315918,0.6493683,0.59788513,-0.97535706
1617,A,268960936112279,1.8409576,-7.700363,-1.0206451,-0.70973206,-3.2677307,-1.722168
1617,A,268960986466283,0.64476013,-10.141174,-2.7712708,-1.986023,-4.481537,-1.9404755
1617,A,268961036820286,1.0135651,-7.177994,-5.639328,-4.37941,3.705246,-2.2543182
1617,A,268961087174290,-0.42610168,-7.893921,-5.339615,1.7313538,3.4585724,-1.0393372
1617,A,268961137528294,-2.990036,-9.84227,-2.8330688,0.57299805,-0.35380554,-1.0661621
1617,A,268961187882298,-7.264679,-10.653763,2.0874023,-0.8153229,-3.5787354,-0.84306335
1617,A,268961238236302,-5.836792,-9.573685,-4.561554,1.2308807,4.2847137,0.28279114
1617,A,268961288590306,-6.669403,-10.437332,-6.0417023,2.7879028,0.045059204,2.900711
1617,A,268961338944310,-8.942978,-13.524185,4.7283783,1.0479431,-1.1986389,3.636139
1617,A,268961389298314,-5.068512,-12.113998,8.202408,0.67155457,6.698868,2.247345
1617,A,268961439652318,-2.8037262,-11.438156,-4.5692444,-0.9718628,-1.6640472,0.84106445
1617,A,268961490006322,-1.0017395,-17.495865,-1.3914795,-0.6880188,-1.0408936,1.0878296
1617,A,268961540360325,3.4746094,-13.97496,6.0172577,-0.69558716,-1.6894836,0.78074646
1617,A,268961590714329,-1.0800018,-7.0021515,1.5194244,-0.8568878,-0.41738892,-0.09194946
1617,A,268961641068333,0.25793457,-5.6428833,-2.5015106,-0.791687,0.29193115,-1.2661743
1617,A,268961691422337,2.967865,-4.788315,-1.561142,-0.85957336,-1.3152008,-0.29077148
1617,A,268961741776341,5.5875244,-3.6230469,-1.1279602,0.38528442,0.14779663,0.90397644
1617,A,268961792130345,2.9524994,-4.8167114,-1.0117188,-0.47886658,0.7814026,-0.17617798
1617,A,268961842484349,-18.892853,-16.988983,-7.068054,-0.09921265,2.8532257,1.2780151
1617,A,268961892838353,-7.174637,-10.919464,-1.0782471,0.23550415,-0.35105896,0.05810547
1617,A,268961943192357,2.93779,-4.3720703,-11.011246,0.6145477,1.5212402,0.094177246
1617,A,268961993546361,-4.0741425,-18.026031,-2.2537994,0.5428314,1.3623047,-0.6014862
1617,A,268962043900365,0.03970337,-7.621689,-0.586853,-0.16148376,-1.0614777,-1.244751
1617,A,268962094254368,2.4348297,-7.8314514,-1.6544495,-1.0921936,-3.6335297,-1.7490845
1617,A,268962144608372,1.4400787,-10.432388,-5.5832977,-2.0794678,-2.664322,-1.9898987
1617,A,268962194962376,0.23973083,-7.3400116,-5.774338,-2.8976135,3.4741516,-1.7822571
1617,A,268962245316380,-1.4158173,-8.448471,-3.1735992,1.3535919,2.8394623,-1.0204163
1617,A,268962295670384,-4.0794373,-10.289001,-1.478363,0.806015,-1.251709,-0.92503357
1617,A,268962346024388,-5.931198,-10.274261,-0.4267273,-0.3572235,-0.17033386,-0.2782898
1617,A,268962396378392,-6.330887,-9.693695,-4.0205383,2.006546,2.7861176,1.5458984
1617,A,268962446732396,-7.177307,-10.861877,-3.2026215,2.2323456,-0.054382324,3.2144012
1617,A,268962497086400,-8.636688,-12.779373,3.7551575,1.1851044,1.4905701,2.8319092
1617,A,268962547440404,-4.9537354,-12.761139,4.119522,0.47525024,2.7577057,1.5553284
1617,A,268962597794408,-1.631897,-14.077087,-3.2816467,-0.53466797,-1.1744385,0.7843933
1617,A,268962648148411,1.2340088,-17.0719,-2.5292053,-0.52389526,-1.3244324,1.0186768
1617,A,268962698502415,1.1575012,-9.509872,-4.5038605,-0.6697998,-1.0138397,0.5190582
1617,A,268962748856419,-2.2608337,-5.3081665,-0.725647,-0.86582947,0.07548523,-0.5510559
1617,A,268962799210423,0.9830322,-5.1876373,-2.5639954,-1.3828125,0.41503906,-0.9701843
1617,A,268962849564427,4.027939,-4.8114777,-2.111374,-1.1869812,0.1522522,0.2506714
1617,A,268962899918431,4.244629,-4.087723,-0.08659363,-0.0075531006,-0.44758606,0.50961304
1617,A,268962950272435,-4.734543,-10.122406,1.3692169,0.08529663,0.50083923,0.4180603
1617,A,268963000626439,-14.3405,-15.011536,-0.81604004,0.93699646,0.98960876,0.6983032
1617,A,268963050980443,-2.843979,-9.032654,-5.921997,0.5337372,0.5983124,0.054870605
1617,A,268963101334447,2.0713348,-10.27356,-13.776428,0.397583,1.1516571,-0.7225952
1617,A,268963151688450,2.8387146,-9.106537,-7.0670776,0.08578491,-1.059494,-1.1990814
1617,A,268963202042454,1.1714478,-8.380508,-1.4897766,-0.91770935,-3.2306824,-1.7841339
1617,A,268963252396458,1.1030884,-10.119904,-2.7659912,-2.319107,-2.8517609,-2.0943298
1617,A,268963302750462,0.4737854,-7.9305267,-4.717911,-2.466629,1.2770996,-1.9671783
1617,A,268963353104466,-1.076004,-8.393585,-4.732254,-0.063446045,2.20018,-1.1915894
1617,A,268963403458470,-3.8497772,-9.703796,0.3866272,0.9000397,-0.98905945,-0.71958923
1617,A,268963453812474,-7.0572357,-10.1323395,9.285141,-0.41552734,-0.107543945,-0.5508423
1617,A,268963504166478,-5.9633636,-9.735718,4.022812,1.4685822,2.7904053,0.698349
1617,A,268963554520482,-4.8619995,-9.590576,-5.0431213,2.3972473,0.7188721,2.43013
1617,A,268963604874486,-6.937088,-10.819382,-1.5074768,1.4935455,0.4593048,3.077301
1617,A,268963655228490,-7.4799957,-13.213242,-0.1290741,1.2038116,1.8873596,2.2212677
1617,A,268963705582493,-5.1375427,-13.398422,-1.9029083,0.052246094,0.092453,0.94815063
1617,A,268963755936497,-0.59825134,-16.489166,-1.7883453,-0.5762634,-1.4251556,0.90112305
1617,A,268963806290501,3.276184,-14.11319,-7.9250336,-0.6551056,-1.4689026,0.93104553
1617,A,268963856644505,-0.8722687,-7.6012115,-5.3556213,-0.7555237,-0.62568665,0.1537323
1617,A,268963906998509,-0.8348694,-6.0416718,-1.6198883,-0.9929657,0.11785889,-1.2471924
1617,A,268963957352513,2.8349915,-5.0457,-1.897049,-1.7060242,0.7431793,0.028671265
1617,A,268964007706517,4.2048798,-3.3032227,-1.4967804,-0.29956055,0.76942444,0.67678833
1617,A,268964058060521,3.1376495,-4.469391,2.126648,-0.53663635,-1.7449646,0.6808319
1617,A,268964108414525,-12.339294,-14.71434,2.719101,0.02067566,-1.7380066,-0.3219757
1617,A,268964158768529,-3.2521362,-6.340805,-0.13796997,0.45491028,0.25830078,0.13568115
1617,A,268964209122533,-10.637283,-13.533447,13.004166,0.65592957,1.6405487,-0.623291
1617,A,268964259476536,-3.0515747,-10.650391,2.8993683,0.48327637,-0.89556885,-1.1488647
1617,A,268964309830540,1.624176,-8.247253,-2.2472992,-0.78990173,-4.1493835,-1.8000641
1617,A,268964360184544,1.4213867,-10.528824,-2.987732,-2.3667755,-4.5605927,-1.9476318
1617,A,268964410538548,0.92863464,-7.727188,-4.72377,-3.6003113,3.2665863,-2.016693
1617,A,268964460892552,-0.3744049,-7.9273224,-4.4818573,0.8487091,1.2453766,-0.73153687
1617,A,268964511246556,-3.3235168,-9.660385,-1.159668,0.48562622,-1.1536255,-0.8833618
1617,A,268964561600560,-6.2690277,-8.706192,6.4093933,0.06980896,-2.0480957,-0.83717346
1617,A,268964611954564,-3.6513062,-10.177368,1.588913,0.84635925,3.6283112,0.008468628
1617,A,268964662308568,-5.190445,-10.237366,-2.8738708,1.9602966,0.055511475,2.735321
1617,A,268964712662572,-10.079376,-13.016647,1.7131958,1.7388,0.22262573,3.542862
1617,A,268964763016575,-7.739868,-12.527481,8.832779,1.3018646,3.4641113,2.1604004
1617,A,268964813370579,-2.6368866,-12.776077,-2.736496,-0.30023193,-0.42567444,0.9794159
1617,A,268964863724583,0.13336182,-18.412582,-1.1626892,-0.6253357,-1.0178986,1.3214111
1617,A,268964914078587,4.711319,-11.658463,-10.463837,-0.80218506,-1.6503143,1.0088501
1617,A,268964964432591,-0.8204346,-6.203125,-2.7962341,-0.9667969,-0.35629272,0.24205017
1617,A,268965014786595,-0.010925293,-4.518936,-2.6292267,-1.281662,0.060073853,-1.451004
1617,A,268965065140599,2.7129822,-5.1050415,-2.82901,-1.2202301,-0.82167053,-0.49621582
1617,A,268965115494603,5.0634613,-2.712906,-2.7014923,0.6183319,-0.22755432,0.91963196
1617,A,268965165848607,4.572357,-4.9311676,1.4575653,-0.607254,0.6885834,-0.65083313
1617,A,268965216202611,-19.023483,-18.958725,-5.935608,1.6193695,-1.1607819,0.82418823
1617,A,268965266556615,-2.4266815,-5.29187,0.07196045,0.49931335,-0.05015564,-0.12411499
1617,A,268965316910618,2.2930756,-7.821686,-10.923309,0.78315735,0.53108215,0.09214783
1617,A,268965367264622,2.4094543,-19.343826,-11.546829,0.63713074,0.6967163,-0.6851959
1617,A,268965417618626,-1.4433899,-5.6770477,-1.0721283,-0.54104614,-1.8467712,-1.4052124
1617,A,268965467972630,2.8178864,-9.039261,-1.5309296,-1.7510986,-3.9196777,-1.9407806
1617,A,268965518326634,0.81799316,-10.40303,-4.050644,-2.9438934,-1.3480225,-1.8063049
1617,A,268965568680638,2.1143494,-6.1205597,-3.835022,-1.7709198,8.35141,-2.0482483
1617,A,268965619034642,-1.6630096,-9.065292,-5.3236847,0.8340759,-0.7263031,-1.0684357
1617,A,268965669388646,-5.3730774,-10.541443,0.5290222,-0.24505615,-2.820282,-0.87509155
1617,A,268965719742650,-8.640259,-12.211609,16.968155,-0.10044861,2.6730804,0.055358887
1617,A,268965770096654,-5.5671387,-10.015762,-6.138077,3.4659424,2.6703033,2.245758
1617,A,268965820450658,-6.035034,-10.168686,-3.701416,1.033783,-0.37168884,3.6278687
1617,A,268965870804661,-8.003845,-12.054459,1.7135162,1.1782379,3.5816803,3.002365
1617,A,268965921158665,-4.188675,-15.928925,-0.35768127,-0.39057922,-0.44999695,0.8759155
1617,A,268965971512669,-2.0615234,-15.992386,-0.92189026,-0.5153351,-0.94892883,0.96736145
1617,A,268966021866673,3.7801666,-17.972519,3.7301025,-0.5595093,-1.5262909,0.9884033
1617,A,268966072220677,0.0041656494,-8.561111,-3.2796326,-0.68400574,-0.69569397,0.22781372
1617,A,268966122574681,-1.357666,-5.377228,-1.6453552,-0.76252747,0.0035705566,-0.89294434
1617,A,268966172928685,3.0567932,-4.702545,-1.8103638,-0.8033142,-0.17666626,-1.0226593
1617,A,268966223282689,4.930893,-3.2720184,-1.779007,-1.0447235,1.8554077,1.2074432
1617,A,268966273636693,2.478363,-4.161255,2.313797,0.044281006,1.3512878,0.90893555
1617,A,268966323990697,-9.599487,-11.889511,12.677429,0.4294281,2.794403,1.2664642
1617,A,268966374344700,-13.466461,-16.54303,7.413208,0.46754456,0.33984375,-0.19844055
1617,A,268966424698704,4.2864685,-10.084564,-0.25682068,0.7220154,0.8495941,-0.3399048
1617,A,268966475052708,-0.07472229,-14.217651,-1.5282135,0.8418884,-0.7885742,-1.3384094
1617,A,268966525406712,1.460144,-7.862488,-1.7610931,-0.28912354,-3.5905457,-1.5720062
1617,A,268966575760716,1.6932678,-11.021988,-2.294983,-1.8576355,-4.2125244,-1.8171997
1617,A,268966626114720,-0.1366272,-8.205078,-4.3843994,-3.0709076,-1.0413666,-1.6134491
1617,A,268966676468724,-0.91908264,-8.07663,-4.3397827,-2.4784088,4.4072723,-1.302185
1617,A,268966726822728,-2.7106476,-9.685654,-2.1920319,0.10876465,3.627182,-1.0970764
1617,A,268966777176732,-4.3233795,-8.943695,0.86035156,0.5345764,0.56910706,-0.58369446
1617,A,268966827530736,-4.4303284,-9.550079,2.1202545,0.68507385,0.57873535,0.35046387
1617,A,268966877884740,-4.8716125,-10.849442,-0.115982056,2.271637,0.43655396,1.9160614
1617,A,268966928238743,-6.4962463,-11.561752,-0.8086853,2.1649933,-0.42355347,3.2117004
1617,A,268966978592747,-6.239517,-11.196487,2.2139435,0.85746765,2.9161835,2.6925812
1617,A,268967028946751,-6.664093,-11.522049,-0.53419495,-0.3308258,2.521225,1.430603
1617,A,268967079300755,-3.001892,-15.598373,-3.2866516,-0.7780762,-1.7731171,1.115982
1617,A,268967129654759,1.193039,-14.999344,-4.547226,-0.7167816,-1.7277832,1.0057678
1617,A,268967180008763,0.24861145,-8.848145,-4.4612427,-0.7379608,-1.0349884,0.32539368
1617,A,268967230362767,-0.60523987,-6.4853516,-2.63945,-0.5605011,-0.1171875,-0.8531952
1617,A,268967280716771,2.8148804,-5.0542297,-2.2255096,-1.0429382,0.56259155,-0.8102112
1617,A,268967331070775,4.926193,-4.4026947,-0.57566833,-0.5478821,0.6819458,0.5954437
1617,A,268967381424779,3.4328918,-4.796509,1.3793335,-0.12171936,0.35430908,0.4091339
1617,A,268967431778783,-9.958633,-10.605606,-2.7572174,0.28936768,1.0100098,0.6887207
1617,A,268967482132786,-12.571732,-11.672226,-2.8548737,0.77381897,0.44467163,0.7277374
1617,A,268967532486790,-2.6713104,-9.046188,-7.1662445,0.4905243,0.84191895,0.092300415
1617,A,268967582840794,3.4548035,-10.468933,-12.23056,0.55355835,1.2770233,-0.5490875
1617,A,268967633194798,2.9376068,-8.239792,-5.2653503,0.38310242,-1.5641785,-1.2719574
1617,A,268967683548802,2.0564575,-8.833923,-0.9654236,-0.95573425,-4.453125,-1.8280792
1617,A,268967733902806,1.6761475,-9.571899,-2.9757538,-2.2713318,-3.0931091,-1.8177032
1617,A,268967784256810,0.56025696,-7.679016,-5.2343903,-3.5025635,2.9270172,-1.9530945
1617,A,268967834610814,-0.59284973,-8.701263,-4.564499,0.6648865,3.6835327,-1.1751709
1617,A,268967884964818,-3.8821106,-9.239212,-0.9017792,0.9322052,-1.4813995,-0.4874115
1617,A,268967935318822,-6.282364,-10.743927,1.2250061,-0.42988586,-0.80992126,-0.2934723
1617,A,268967985672825,-6.2671967,-10.698959,-5.1436615,1.694458,3.5032196,0.7843933
1617,A,268968036026829,-6.235901,-10.949814,-6.00589,1.9638367,-0.302063,2.6888885
1617,A,268968086380833,-7.1551056,-11.502701,1.7667084,1.4646149,-0.3193817,3.5093079
1617,A,268968136734837,-6.9363556,-11.01857,3.665329,0.5312958,2.2573395,2.1164093
1617,A,268968187088841,-5.5147095,-12.709854,1.1380157,-0.521225,-0.42951965,0.9465332
1617,A,268968237442845,-1.1193848,-17.894638,-2.004013,-0.6312866,-1.6527557,1.0458069
1617,A,268968287796849,1.5588989,-12.042999,-4.8293,-0.64331055,-1.4479828,0.640625
1617,A,268968338150853,-2.4427338,-7.4673004,-2.270523,-0.7956085,-0.23791504,-0.2406311
1617,A,268968388504857,1.6987915,-6.1536407,-2.2725067,-0.58166504,-0.21743774,-1.5014343
1617,A,268968438858861,4.3970337,-4.5173645,-2.1156158,-2.0890198,1.5133362,0.08598328
1617,A,268968489212865,4.2907715,-3.734787,-0.59935,0.0501709,0.8539734,0.79138184
1617,A,268968539566868,-0.19499207,-6.2671356,6.5294037,-0.40628052,-1.0437927,-0.17887878
1617,A,268968589920872,-16.831863,-17.262482,6.2249603,1.0811005,-2.29422,-0.015579224
1617,A,268968640274876,-3.8301392,-5.8957367,-0.18057251,0.7560425,0.3324585,0.5011139
1617,A,268968690628880,0.18234253,-11.405106,-8.7091675,0.7975006,1.4360504,-0.23130798
1617,A,268968740982884,0.22016907,-14.290909,-7.27153,0.6065216,0.6926575,-0.7333832
1617,A,268968791336888,-0.12142944,-6.832718,-1.7567444,-0.16845703,-2.9465332,-1.3384247
1617,A,268968841690892,2.0362396,-9.806961,-1.8511963,-1.173111,-3.927124,-1.7292328
1617,A,268968892044896,0.97605896,-8.995148,-3.5760956,-2.3208923,-1.5967102,-1.6734772
1617,A,268968942398900,0.73361206,-6.7594757,-5.225891,-4.218277,5.464676,-1.8924866
1617,A,268968992752904,-1.7517853,-9.276947,-4.861801,3.1894836,2.527237,-0.7493286
1617,A,268969043106908,-4.70401,-9.1779785,-0.84085083,-0.11767578,-3.5986633,-0.6166229
1617,A,268969093460911,-5.023712,-11.46933,1.7357941,-1.0102844,0.8679352,-0.30688477
1617,A,268969143814915,-4.666977,-9.718384,-9.955017,3.1276398,3.3035278,1.8274536
1617,A,268969194168919,-6.3290405,-10.656357,-5.6910553,1.6585541,-0.8005371,3.587204
1617,A,268969244522923,-8.610962,-12.028229,3.3622894,1.3578339,1.4230194,3.1481476
1617,A,268969294876927,-6.483917,-14.956711,2.858078,0.053848267,0.86120605,1.3246002
1617,A,268969345230931,-2.8325806,-13.486755,-2.3532867,-0.6229248,-1.2891998,0.8566437
1617,A,268969395584935,2.3978271,-18.928757,-1.0257416,-0.7180176,-1.6556854,1.125885
1617,A,268969445938939,1.9353485,-10.401123,-7.1252136,-0.90579224,-1.1851044,0.29945374
1617,A,268969496292943,-3.586853,-5.7092285,-2.1230164,-0.74938965,-0.039276123,-0.67245483
1617,A,268969546646947,2.6621704,-4.87735,-2.761261,-0.30618286,-1.0870972,-1.2607117
1617,A,268969597000950,5.4156036,-4.4449615,-1.9951477,-1.5258331,2.4143372,-0.05038452
1617,A,268969647354954,4.0289307,-4.278488,1.6823578,0.12483215,0.060943604,0.51704407
1617,A,268969697708958,-9.374619,-11.303284,7.5288696,0.1563263,-2.0112915,0.082839966
1617,A,268969748062962,-17.187271,-12.858536,1.7126617,1.1763916,-0.75697327,-0.017944336
1617,A,268969798416966,-1.5586548,-7.147827,-2.4404907,0.8853302,0.8865967,0.26612854
1617,A,268969848770970,-1.1864471,-15.528351,-3.6967316,0.670578,1.3941193,-1.024826
1617,A,268969899141667,1.8300018,-8.26593,-3.417801,0.3167572,-1.7428131,-1.1215363
1617,A,268969949495671,1.5123596,-6.538315,-1.4768219,-1.0103302,-5.1709137,-1.5443878
1617,A,268969999849675,0.5067291,-10.751236,-3.1971893,-3.2590485,-2.0877533,-1.4909363
1617,A,268970050203679,0.58883667,-7.567566,-5.2470093,-3.6195526,6.2774963,-1.4174042
1617,A,268970100557683,-1.0821381,-8.235245,-4.155243,2.4534454,0.08703613,-0.5751343
1617,A,268970150911686,-6.6565857,-11.017426,-1.5581512,-0.05168152,-2.658722,-1.2694397
1617,A,268970201265690,-3.4626007,-10.112106,1.917633,-0.094573975,-0.70422363,-1.1395111
1617,A,268970251619694,-2.642929,-9.844513,-8.700317,0.26104736,3.9204102,0.62994385
1617,A,268970301973698,-6.0226593,-10.443283,-4.0300293,2.1875,-1.5970001,3.58667
1617,A,268970352327702,-8.237625,-11.681778,-0.98783875,1.1655426,1.3621521,3.8737335
1617,A,268970402681706,-5.224884,-10.726303,3.1197052,0.5370941,4.2526855,1.9225159
1617,A,268970453035710,-3.0370178,-13.223541,-2.8711548,-0.43797302,-0.8145447,0.7753296
1617,A,268970503389714,1.8655548,-17.601273,0.8061676,-0.48350525,-1.2088165,1.0415192
1617,A,268970553743718,4.5172577,-14.587997,1.5977478,-0.59194946,-1.3319702,0.7024689
1617,A,268970604097722,-1.9183502,-6.900818,-1.7081604,-0.8149109,-0.5227051,-0.24282837
1617,A,268970654451726,-9.1552734E-5,-4.527725,-3.6322021,-0.4391327,-1.1595001,-1.1709442
1617,A,268970704805729,4.0279236,-4.302368,-4.2330017,0.17721558,-1.0834808,-0.33692932
1617,A,268970755159733,6.1694794,-3.414093,-1.9107361,0.054153442,1.3330383,0.68989563
1617,A,268970805513737,-3.2337341,-6.6510773,3.5171356,-0.09539795,2.4802246,1.0780334
1617,A,268970855867741,-15.445984,-14.597656,6.29303,0.239151,1.5847931,1.0358124
1617,A,268970906221745,-3.4395142,-10.780075,-3.774887,0.49246216,-0.15202332,-0.024169922
1617,A,268970956575749,2.7058716,-10.936813,-6.011383,0.47454834,0.7691345,-0.33911133
1617,A,268971006929753,-1.5469818,-13.472244,-1.8386688,0.17279053,-0.9402008,-1.0214233
1617,A,268971057283757,0.9361572,-8.250702,-1.2408905,-0.7119293,-3.542694,-1.5916138
1617,A,268971107637761,1.9233093,-9.683136,-2.932602,-1.8660278,-3.7650757,-1.8749695
1617,A,268971157991765,1.341095,-8.148758,-5.635849,-3.1856384,1.081665,-1.8171539
1617,A,268971208345768,0.07695007,-7.1464844,-4.9463806,-0.12445068,4.010544,-1.3040466
1617,A,268971258699772,-3.72966,-9.39949,-1.5209503,1.4595337,0.27752686,-0.87031555
1617,A,268971309053776,-6.2812805,-10.852066,1.448349,-0.6338501,-1.1990356,-0.63575745
1617,A,268971359407780,-6.1072083,-10.747437,-2.9152222,1.2910004,1.0922089,1.0163879
1617,A,268971409761784,-5.973053,-10.144257,-6.6803436,2.2842712,1.0457916,3.097458
1617,A,268971460115788,-8.916306,-11.427582,-0.09919739,1.4067688,2.1653137,3.3174438
1617,A,268971510469792,-7.52742,-14.24852,4.466385,0.29585266,0.7943115,1.7023621
1617,A,268971560823796,-3.1324158,-15.0915985,-0.4053192,-0.3683777,-0.9016113,0.8905792
1617,A,268971611177800,1.7541656,-17.699646,-0.017166138,-0.5176697,-1.3723907,1.046814
1617,A,268971661531804,1.3297424,-13.467636,-1.9257355,-0.6505432,-1.1841888,0.70744324
1617,A,268971711885808,-1.8433838,-6.9743958,-2.8036652,-0.7570648,-0.13491821,-0.20423889
1617,A,268971762239811,0.6366577,-5.1024323,-2.2191925,-0.59820557,-0.5288696,-1.3568573
1617,A,268971812593815,3.6478271,-4.239807,-2.0851898,-1.2784576,1.2465057,-0.066101074
1617,A,268971862947819,4.829712,-2.7911987,-1.3170929,-0.2412262,0.88430786,0.57424927
1617,A,268971913301823,-2.605713,-7.326599,7.528656,-0.62797546,-1.7463684,0.40774536
1617,A,268971963655827,-16.049286,-16.544373,9.426895,0.2177124,-1.3540192,-0.2558136
1617,A,268972014009831,-2.7740479,-7.4200287,1.0684509,0.46351624,0.1673584,0.333313
1617,A,268972064363835,-7.6103363,-15.444992,14.105377,0.7575531,1.3518219,-0.4537506
1617,A,268972114717839,-1.2745056,-9.941437,2.2310333,0.7349396,0.42718506,-0.9655304
1617,A,268972165071843,1.761261,-8.342041,-1.2062836,-0.5455322,-3.4703217,-1.6266785
1617,A,268972215425847,0.42108154,-10.500412,-2.003891,-1.666687,-5.0036316,-1.9396515
1617,A,268972265779851,0.6667175,-7.7490997,-4.2119446,-3.9192352,2.1867523,-2.1127014
1617,A,268972316133854,-0.0725708,-7.8930206,-5.11084,-1.96315,6.2368774,-1.4998627
1617,A,268972366487858,-2.8356476,-9.677597,-2.7425232,1.4089813,0.80799866,-0.9362488
1617,A,268972416841862,-5.899643,-9.780212,0.47772217,0.073394775,-3.714386,-0.65748596
1617,A,268972467195866,-3.809967,-10.969498,14.24353,-0.21131897,1.4954376,0.006088257
1617,A,268972517549870,-4.8341675,-9.164749,-4.297928,3.252884,1.9334564,2.3624573
1617,A,268972567903874,-6.8076324,-10.861053,-4.3018494,1.3852692,-0.65431213,3.6281433
1617,A,268972618257878,-7.866928,-12.014969,4.1858215,1.4548645,3.3452148,2.8488312
1617,A,268972668611882,-4.3744354,-13.097137,-1.3686829,-0.59384155,-1.2010193,1.2696991
1617,A,268972718965886,-2.9191742,-15.678711,-2.1916656,-0.8331604,-0.71484375,0.80947876
1617,A,268972769319890,3.4031525,-19.183304,-1.2724609,-1.0997772,-3.055603,0.7273712
1617,A,268972819673893,-0.6336975,-9.982574,1.4189758,-0.752121,-0.9504547,0.3655243
1617,A,268972870027897,8.365509,-5.026245,0.33599854,-0.66830444,0.28334045,-0.9787445
1617,A,268972920381901,2.4269562,-6.7546997,-0.47296143,0.37031555,-2.8878174,-1.4373779
1617,A,268972970735905,5.736786,-4.3236084,-1.4320984,-0.12680054,2.0779114,1.2459564
1617,A,268973021089909,5.7369385,-3.4184265,-0.30752563,-0.039108276,1.6052551,0.27400208
1617,A,268973071443913,-16.683945,-12.051392,7.67247,-0.6255951,3.4369354,1.8153076
1617,A,268973121797917,-16.845673,-17.26587,2.610962,0.6892853,-0.6277466,-0.15335083
1617,A,268973172151921,5.0026245,-3.6144562,-5.584503,0.6804352,1.421402,0.038909912
1617,A,268973222505925,-4.076248,-18.682327,1.0531158,0.81941223,1.0411987,-1.0085754
1617,A,268973272859929,-0.2983551,-6.804001,-0.8534546,0.29171753,-2.75383,-1.4629669
1617,A,268973323213933,2.5681763,-8.5464325,-1.189682,-1.4519043,-5.166855,-1.8462524
1617,A,268973373567936,0.7667999,-9.697037,-4.970276,-2.9074707,-2.7228851,-1.570282
1617,A,268973423921940,-0.36750793,-7.534073,-5.3120575,-3.4577942,5.1121216,-1.5602112
1617,A,268973474275944,-1.4831238,-9.060287,-3.8704834,2.2274323,4.2362366,-1.1977234
1617,A,268973524629948,-6.291519,-10.423019,0.52175903,0.07884216,-1.7649994,-0.7360077
1617,A,268973574983952,-5.5127106,-10.467361,1.2428589,-0.51646423,0.2566681,-0.20298767
1617,A,268973625337956,-6.1525726,-11.008682,-6.960495,2.247223,2.82164,1.5336456
1617,A,268973675691960,-6.7676544,-10.886246,-4.197006,1.9397888,-0.6085968,3.4374084
1617,A,268973726045964,-6.990448,-11.704208,3.4125519,0.8064575,0.94644165,3.369049
1617,A,268973776399968,-5.4612274,-12.115112,1.9375458,-0.30162048,3.4338684,1.5591278
1617,A,268973826753972,-3.3905334,-14.195572,-2.1072083,-0.7130127,-1.3645935,0.83670044
1617,A,268973877107976,0.6134796,-17.226303,-2.3395233,-0.68310547,-1.4343109,1.0716248
1617,A,268973927461979,2.8062134,-9.453827,-5.277237,-0.74194336,-1.04393,0.4103546
1617,A,268973977815983,-1.7518616,-6.4116364,-1.6910553,-0.67051697,-0.014175415,-0.6094513
1617,A,268974028169987,1.9659271,-4.751053,-2.5833893,-0.9878998,0.47665405,-1.0601044
1617,A,268974078523991,4.385071,-4.280792,-1.5592346,-1.3799133,0.9571686,0.32795715
1617,A,268974128877995,3.9390411,-3.9824677,1.0928497,0.14541626,0.11174011,0.3161621
1617,A,268974179231999,-4.993469,-8.901337,1.4360352,-0.67575073,0.01234436,-0.23620605
1617,A,268974229586003,-14.995087,-13.818573,-3.2592926,-0.9635925,0.7275543,0.48321533
1617,A,268974279940007,-1.9678345,-5.776184,-3.895691,0.16990662,2.0256042,-0.18060303
1617,A,268974330294011,0.03501892,-8.251602,-6.359009,1.3513947,-0.36210632,-0.2199707
1617,A,268974380648015,-4.96402,-16.807114,1.2281036,0.74497986,-2.8544312,-0.79974365
1617,A,268974431002018,-0.46749878,-9.068497,-0.77682495,-0.7675476,-2.8871002,-1.1778259
1617,A,268974481356022,0.9968262,-6.3563538,-4.0840454,-2.109436,-0.83514404,-1.4336853
1617,A,268974531710026,-0.80241394,-9.83165,-5.445862,-3.2986298,2.2213898,-1.3319244
1617,A,268974582064030,-1.2725983,-7.695755,-2.5702515,-0.7780304,2.0188904,-0.8970032
1617,A,268974632418034,-3.4312744,-7.064377,-3.2751617,1.6274567,-1.6925201,-0.8677368
1617,A,268974682772038,-4.5635834,-10.163971,2.9692993,-0.63819885,0.14524841,-0.88887024
1617,A,268974733126042,-3.4038086,-11.068161,1.7540131,1.3508759,3.0652466,0.9661865
1617,A,268974783480046,-5.200897,-10.347824,-6.2411957,2.8801117,0.18122864,3.1761475
1617,A,268974833834050,-7.6496124,-11.361511,0.90405273,1.7062225,0.37825012,3.2447052
1617,A,268974884188054,-7.2106323,-12.375809,-2.0088348,0.50735474,1.6364441,2.0961914
1617,A,268974934542058,-5.1159515,-13.722931,-6.754898,-0.96325684,-0.73812866,1.0838623
1617,A,268974984896061,-0.54112244,-16.905273,-2.3301544,-0.7127075,-1.7489014,1.0668182
1617,A,268975035250065,1.5990906,-14.661972,-0.17878723,-0.63290405,-1.4902649,0.8634796
1617,A,268975085604069,-1.7869568,-7.6920013,0.30958557,-0.7470093,-0.20756531,-0.14575195
1617,A,268975135958073,0.041290283,-5.366867,-1.9185638,-0.29693604,-0.8533478,-1.3991547
1617,A,268975186312077,4.8604126,-4.7391815,-2.129837,-0.85194397,1.1952667,0.018737793
1617,A,268975236666081,6.5241394,-3.1675568,-1.121521,-0.3338318,1.9098358,0.60653687
1617,A,268975287020085,-2.523117,-6.3427734,8.045822,-0.40368652,1.4654541,1.0171967
1617,A,268975337374089,-15.450684,-15.358536,8.762817,-0.11489868,0.53974915,0.10031128
1617,A,268975387728093,-4.14563,-7.431595,-1.2417297,0.5473633,0.5478363,0.13204956
1617,A,268975438082097,-3.862976,-12.266129,1.0489044,0.56658936,1.3986206,-0.48883057
1617,A,268975488436101,-4.0366516,-11.801544,1.0942688,0.3725891,-0.8974457,-1.2387695
1617,A,268975538790104,1.6009674,-8.482056,-1.0535736,-0.61317444,-3.9942474,-1.7283783
1617,A,268975589144108,1.2256927,-9.790192,-3.5830994,-1.9272461,-3.620514,-1.5074768
1617,A,268975639498112,0.0072631836,-8.080109,-4.833435,-3.548355,1.8832092,-1.4842834
1617,A,268975689852116,-0.5335388,-7.864319,-3.551178,-1.0142517,6.84433,-1.5818939
1617,A,268975740206120,-3.8048859,-8.317261,-1.5343933,1.1482086,0.56140137,-1.0897827
1617,A,268975790560124,-4.895279,-8.953506,-0.036010742,-0.7407379,-2.1370544,-0.6105499
1617,A,268975840914128,-6.14032,-11.420761,4.9446564,1.6792145,2.18396,0.89175415
1617,A,268975891268132,-5.876007,-10.611649,-3.5176544,2.2072144,0.18710327,3.0733948
1617,A,268975941622136,-8.261581,-12.523041,3.2207184,1.4413452,-0.6127014,3.5966034
1617,A,268975991976140,-7.5400543,-12.8285675,5.3954926,0.15769958,3.140808,1.9468231
1617,A,268976042330143,-4.8814545,-13.5976715,-0.3417511,-0.5312195,-0.44387817,0.99772644
1617,A,268976092684147,-0.39396667,-18.25734,-1.354248,-0.3468628,-1.4550018,1.3027496
1617,A,268976143038151,1.0446014,-11.788895,-5.3027344,-0.4792328,-1.3304291,0.74838257
1617,A,268976193392155,-1.5875854,-6.818512,-2.4332123,-0.7074127,0.2924652,-0.26441956
1617,A,268976243746159,1.493576,-4.200058,-2.5379791,-0.594162,-0.40411377,-1.8234253
1617,A,268976294100163,5.248001,-4.3749237,-2.741684,-2.669632,2.9272766,0.72494507
1617,A,268976344454167,6.5628204,-1.99263,-1.0768127,0.19352722,1.0417786,0.54893494
1617,A,268976394808171,-1.5381622,-6.050705,10.855835,-0.8206177,-0.8733368,-0.14686584
1617,A,268976445162175,-18.163116,-18.207504,8.860062,0.6266632,-0.7337799,-0.88108826
1617,A,268976495516179,2.5907288,-1.14328,-0.78131104,0.6219635,0.039733887,0.7036438
1617,A,268976545870183,-3.870987,-18.074234,7.7069855,0.7494812,1.0659027,-0.8807678
1617,A,268976596224186,-0.9867554,-9.173065,-2.1283875,0.2239685,-0.44381714,-0.8635254
1617,A,268976646578190,0.32582092,-7.0186005,-0.99523926,-0.6863251,-2.8183136,-1.8173828
1617,A,268976696932194,-0.31452942,-11.583908,-3.0348816,-2.109497,-4.8924255,-1.9267883
1617,A,268976747286198,0.93911743,-7.8741302,-4.1356964,-2.851593,-0.2741394,-1.6348877
1617,A,268976797640202,-0.31230164,-6.9502563,-3.9133759,-3.0588226,7.1838684,-1.7017975
1617,A,268976847994206,-3.103012,-8.399643,-3.1014557,2.6480255,-0.7803955,-0.5139618
1617,A,268976898348210,-5.37236,-9.371109,0.32992554,-0.9700012,-2.798294,-0.7876129
1617,A,268976948702214,-5.8718567,-12.147018,18.751724,1.0521698,3.6631927,0.7956543
1617,A,268976999056218,-4.4864655,-10.085251,-7.5871277,2.8647156,0.7758026,4.1044464
1617,A,268977049410222,-8.179504,-12.594574,-3.5005035,0.95596313,-0.02255249,3.516861
1617,A,268977099764226,-8.44133,-12.797012,8.212402,0.13519287,3.812622,1.6106873
1617,A,268977150118229,-1.2374725,-14.270264,-5.065796,-0.4810028,-1.4851379,0.8830719
1617,A,268977200472233,2.1231232,-18.54866,-0.2515564,-0.068573,-0.9328766,1.4453735
1617,A,268977250826237,1.6802216,-9.551987,-6.804062,-0.50068665,-1.376297,0.56614685
1617,A,268977301180241,-2.7294006,-5.5761566,-0.86402893,-0.6093292,0.32461548,-0.5048065
1617,A,268977351534245,0.83454895,-4.822693,-0.06855774,-1.405304,0.50276184,-1.4993286
1617,A,268977401888249,4.58313,-4.7693787,-1.6751404,-2.261795,0.89611816,1.0396881
1617,A,268977452242253,4.574066,-2.370514,-0.87802124,0.34481812,-0.17094421,0.5766907
1617,A,268977502596257,-2.762329,-7.2892456,1.8950806,-0.32867432,-2.026764,-0.52490234
1617,A,268977552950261,-14.85817,-15.892303,2.8501282,1.0117188,-0.47901917,-0.22142029
1617,A,268977603304265,4.8065186,-3.4244537,-0.30656433,0.5802307,0.36387634,0.058425903
1617,A,268977653658268,-5.2333984,-16.38556,3.0902252,0.6638336,0.93130493,-0.9843292
1617,A,268977704012272,1.9405365,-8.314163,-4.5573425,0.038116455,-1.6188049,-1.2927856
1617,A,268977754366276,0.6117096,-9.100388,-1.1917267,-1.1428986,-4.372406,-1.8718567
1617,A,268977804720280,0.40193176,-9.661316,-3.148117,-2.869995,-2.258728,-1.8583832
1617,A,268977855074284,0.16569519,-7.776123,-4.5525055,-3.763092,4.2385254,-1.7319794
1617,A,268977905428288,-1.7451477,-8.7677765,-3.6195068,-0.62809753,4.179764,-1.2311554
1617,A,268977955782292,-4.376831,-9.304153,-1.7136841,1.1418457,-1.1066284,-0.93969727
1617,A,268978006136296,-5.2025146,-9.794373,5.033722,-0.30915833,-1.5811768,-0.6947174
1617,A,268978056490300,-2.3881989,-10.566147,7.8990936,0.8762512,2.5162048,0.6707916
1617,A,268978106844304,-5.6654663,-10.370148,-6.0503387,2.9900818,1.4217072,2.7572632
1617,A,268978157198308,-7.3631134,-11.680481,-1.5824127,1.5782471,-0.43818665,3.4127655
1617,A,268978207552311,-6.387787,-12.279434,2.8588867,0.6508179,1.3237762,2.4743042
1617,A,268978257906315,-4.0991364,-12.937714,-1.4135284,-0.90353394,-0.3057251,1.2829285
1617,A,268978308260319,-1.323761,-15.8111725,-2.5779877,-0.85446167,-1.6413727,1.0201263
1617,A,268978358614323,1.0240173,-15.787827,-1.3106232,-0.7626648,-1.4817963,0.9259186
1617,A,268978408968327,-1.7957458,-8.352264,0.8361206,-0.78256226,-0.40393066,-0.037994385
1617,A,268978459322331,0.29452515,-5.393997,-1.8966522,-0.09013367,-1.2096863,-1.0756378
1617,A,268978509676335,4.8506317,-4.590042,-1.8999176,-0.18484497,-0.65441895,-0.41809082
1617,A,268978560030339,5.9476013,-3.2662811,-0.5857086,-0.38882446,1.653595,0.5499115
1617,A,268978610384343,-2.9764404,-5.8545837,5.3964386,-0.29058838,1.1938934,0.7893524
1617,A,268978660738347,-16.27948,-14.4096985,8.906082,-0.27412415,0.79382324,0.21115112
1617,A,268978711092351,-8.725372,-9.556747,2.2164917,0.3294525,0.7186127,0.061264038
1617,A,268978761446354,-7.97023,-8.859665,3.9490814,0.45036316,1.6337433,0.0035095215
1617,A,268978811800358,-9.287186,-12.777267,4.036804,0.7741089,0.7620239,-1.186676
1617,A,268978862154362,1.2966003,-7.6271057,-2.6473236,0.3035736,-2.7482758,-1.7503662
1617,A,268978912508366,2.152588,-10.494095,-2.5990295,-1.4383698,-5.356003,-2.0086975
1617,A,268978962862370,1.1812134,-9.335281,-3.5546722,-3.360611,-1.2396393,-1.7491608
1617,A,268979013216374,-0.21853638,-6.7664948,-4.4359894,-2.536972,6.122299,-1.6105957
1617,A,268979063570378,-2.6095123,-8.740143,-3.6477509,0.0014953613,3.2284546,-1.2341919
1617,A,268979113924382,-5.3331757,-9.461517,0.71928406,-0.37667847,-0.46720886,-0.67889404
1617,A,268979164278386,-6.1349792,-10.615509,12.292252,1.3989716,2.3225555,0.5222168
1617,A,268979214632390,-6.9634094,-12.009354,2.297058,2.043869,0.2268982,2.7541962
1617,A,268979264986393,-8.70636,-12.279007,-2.531189,1.6669159,-0.36810303,4.0402985
1617,A,268979315340397,-8.604538,-12.752548,0.2397461,1.1211395,2.0267334,2.659729
1617,A,268979365694401,-5.3784027,-12.89299,-1.1057434,-0.06149292,-0.11894226,1.2103424
1617,A,268979416048405,1.1490326,-17.297928,-1.3044586,-0.4606781,-1.473999,1.2745819
1617,A,268979466402409,5.00029,-13.335388,-6.0517273,-0.45507813,-1.3471222,0.8053589
1617,A,268979516756413,-1.7094421,-7.6925507,-2.8861847,-0.66781616,-0.35890198,-0.0942688
1617,A,268979567110417,1.4339447,-5.12471,-1.4599762,-0.93759155,-0.044311523,-1.5923615
1617,A,268979617464421,4.0207977,-3.8896027,-2.2777557,-2.314148,2.4035492,0.8155365
1617,A,268979667818425,4.5177765,-2.1712494,-1.5300598,-0.3675537,0.8995056,0.898407
1617,A,268979718172429,1.8847809,-3.6218567,7.4493103,-0.5368805,2.668747,1.6281738
1617,A,268979768526433,-14.71109,-15.708542,8.556976,-0.18417358,-0.36094666,-0.44966125
1617,A,268979818880436,1.4752808,-7.3384094,0.62875366,0.17713928,-0.2732544,0.31478882
1617,A,268979869234440,-7.558975,-15.992569,14.229721,0.7934723,1.3251495,-0.8925934
1617,A,268979919569442,-1.0577698,-8.009933,1.820694,-0.038482666,-0.95854187,-1.4517212
1617,A,268979969923446,1.6594543,-10.505066,-1.4314423,-1.5459595,-3.8985596,-1.8573456
1617,A,268980020277450,0.6330414,-9.521149,-2.4029999,-2.3656769,-3.8209076,-1.9368439
1617,A,268980070631454,0.7279358,-6.913727,-5.873596,-2.8166962,2.9513397,-1.7515717
1617,A,268980120985458,-1.6497803,-9.09967,-3.3758087,1.1905212,2.0349731,-0.5051727
1617,A,268980171339462,-4.837311,-9.725464,2.3629456,0.725647,-1.1992798,-0.71138
1617,A,268980221693466,-6.028778,-7.897522,5.2859497,-0.6642456,-0.2984314,-0.5578003
1617,A,268980272047470,-3.4306183,-11.150757,-0.31455994,1.430481,3.600235,0.5040283
1617,A,268980322401474,-5.670044,-11.114441,-5.0348816,2.1365204,-0.9121704,2.634201
1617,A,268980372755477,-8.693878,-12.480469,-2.2051544,1.7981567,-1.2988434,3.2341766
1617,A,268980423109481,-9.374756,-13.158203,5.281555,0.9949188,6.2575836,2.2589111
1617,A,268980473463485,-3.228653,-10.359848,-2.9064636,-0.14648438,-1.4186707,1.0112915
1617,A,268980523817489,-0.028045654,-16.574097,-0.123031616,-0.5486908,-1.3283386,1.2758026
1617,A,268980574171493,4.8069916,-12.859055,-4.4025726,-0.4624939,-1.8245087,0.95921326
1617,A,268980624525497,-2.14888,-8.570526,-3.375534,-0.51846313,-0.3735962,0.05265808
1617,A,268980674879501,-1.1433105,-6.3214417,-1.7496643,-0.6279602,0.2885437,-1.2154846
1617,A,268980725233505,3.4289398,-5.975342,-1.0284271,0.18710327,-1.8095398,-1.1004639
1617,A,268980775587509,4.6356964,-3.059616,-1.0825043,0.4583435,0.4571228,1.1777496
1617,A,268980825941513,2.75148,-4.2217712,-0.306015,-0.38583374,0.71661377,0.07800293
1617,A,268980876295516,-19.26706,-15.205841,0.30441284,0.9798584,3.2656097,1.3101044
1617,A,268980926649520,-8.141052,-9.94577,0.7271118,0.109375,0.22189331,-0.3421936
1617,A,268980977003524,3.2260895,-8.667877,0.017562866,0.63414,1.5436554,-0.16099548
1617,A,268981027357528,1.4113159,-13.262665,3.4684753,0.74754333,-0.53163147,-1.3981018
1617,A,268981077711532,0.8872528,-8.053329,-1.1325836,-0.8940735,-4.944931,-1.7379761
1617,A,268981128065536,2.028656,-9.4366,-1.6318817,-2.164215,-3.6535034,-1.7621307
1617,A,268981178419540,-0.19645691,-8.661926,-8.731903,-2.6723938,1.9644623,-1.6399078
1617,A,268981228773544,-0.56988525,-8.435059,-3.6342468,-0.6065674,3.7888489,-1.3058014
1617,A,268981279127548,-3.2557068,-9.60881,-1.8270111,0.3950348,-0.29240417,-1.2880402
1617,A,268981329481552,-5.9348145,-8.178009,2.8575897,-0.02104187,-0.85795593,-1.1122284
1617,A,268981379835556,-2.4268951,-8.664719,1.7564545,-0.11161804,1.8718109,-0.33312988
1617,A,268981430189559,-3.990921,-10.59082,-3.8895874,2.4459991,0.5977173,1.5562439
1617,A,268981480543563,-7.6167755,-10.97728,-2.4335785,2.0604553,-0.45114136,3.1171875
1617,A,268981530897567,-8.880905,-12.042313,-0.23504639,2.2038727,2.1339874,3.6177368
1617,A,268981581251571,-6.340683,-13.1861725,-4.230591,0.7612152,2.283905,1.7819214
1617,A,268981631605575,-2.6970215,-14.372757,-2.5864258,-0.9239197,-1.1095734,0.73506165
1617,A,268981681959579,2.1718292,-17.71437,-1.290741,-0.8068085,-1.2759857,1.1852875
1617,A,268981732313583,3.382141,-10.92247,-2.5544586,-1.0825806,-1.7462463,0.38128662
1617,A,268981782667587,-1.9293976,-4.7515717,-0.026412964,-0.8536835,-0.8153534,-0.41229248
1617,A,268981833021591,0.80270386,-4.9528503,-2.3973389,-0.81437683,-0.34773254,-0.7731476
1617,A,268981883375595,3.4635468,-3.8783875,-1.0898285,-0.7595062,0.5038452,0.36193848
1617,A,268981933729599,3.0898438,-2.9824371,1.2663269,0.105911255,0.16856384,0.51898193
1617,A,268981984083602,-6.08107,-9.015015,1.9363708,0.24342346,1.759903,0.3253479
1617,A,268982034437606,-14.552963,-14.669357,-1.0875549,0.94270325,2.072998,0.99528503
1617,A,268982084791610,-2.6503448,-8.96843,-0.82481384,0.31599426,0.54956055,-0.0953064
1617,A,268982135145614,2.905777,-11.13324,-7.2588654,0.6540375,1.2327423,-0.24403381
1617,A,268982185499618,4.024719,-10.6800995,-9.0763855,0.49899292,-0.3015442,-1.3309479
1617,A,268982235853622,1.5381012,-8.23204,-0.9626465,-0.65730286,-3.5362854,-1.7032776
1617,A,268982286207626,1.6305695,-9.856689,-2.1477966,-1.9745483,-3.961029,-1.9316406
1617,A,268982336561630,-0.09976196,-8.720047,-4.188492,-3.168869,1.0280151,-1.8117676
1617,A,268982386915634,-0.64112854,-8.267807,-4.474121,-0.9037781,3.8691406,-1.3934784
1617,A,268982437269638,-3.921692,-9.317993,-2.6833496,1.4474335,-0.6756592,-0.67430115
1617,A,268982487623641,-7.241455,-10.031525,2.2120514,-0.19203186,-1.0863495,-0.43222046
1617,A,268982537977645,-5.4331665,-10.64476,-1.0502167,1.4319763,3.1132507,0.33041382
1617,A,268982588331649,-4.6784515,-10.1315,-7.1954346,2.4059296,1.5142822,2.030426
1617,A,268982638685653,-7.4177094,-11.2274475,0.61953735,1.525589,-0.59599304,3.5017395
1617,A,268982689039657,-8.167877,-13.274628,3.656662,1.0851135,1.9210663,2.7821198
1617,A,268982739393661,-5.4040527,-13.02771,0.2761078,-0.1723175,0.5921936,1.1847076
1617,A,268982789747665,-1.6397858,-15.922623,-1.375412,-0.7402191,-1.3026276,1.0345459
1617,A,268982840101669,2.9028625,-15.1935425,-3.4197388,-0.6977234,-1.6394958,1.0179138
1617,A,268982890455673,0.47257996,-8.600494,-1.7922211,-0.8217621,-0.8246918,0.30117798
1617,A,268982940809677,-0.4041443,-5.5997314,-1.8084717,-0.9098816,0.13267517,-0.99609375
1617,A,268982991163681,2.820755,-4.677475,-2.344284,-1.7628784,0.7749176,-0.35336304
1617,A,268983041517684,4.6749268,-3.339203,-1.5306091,-0.45046997,0.418396,0.59529114
1617,A,268983091871688,4.311035,-4.163864,1.783844,-0.31837463,-0.96058655,0.20368958
1617,A,268983142225692,-11.370834,-14.276077,-1.3414154,0.35528564,-1.0854034,-0.063949585
1617,A,268983192579696,-7.578888,-9.406525,-1.9487305,0.72758484,0.030166626,0.2944336
1617,A,268983242933700,-0.8819885,-11.338547,-7.169464,0.5641937,1.6334839,0.21209717
1617,A,268983293287704,2.9382782,-10.4626465,-8.114197,0.8414154,1.2649536,-0.79844666
1617,A,268983343641708,2.1661224,-7.0019226,-3.0460205,0.23139954,-3.080902,-1.6203156
1617,A,268983393995712,2.7045746,-10.053528,-0.8243866,-1.4778442,-6.1807556,-2.0052643
1617,A,268983444349716,1.2258606,-9.203201,-3.7867126,-4.2886047,1.0439453,-2.0423431
1617,A,268983494703720,0.736496,-7.111496,-7.1145935,-2.2014465,7.2130127,-1.5675507
1617,A,268983545057724,-1.9572144,-9.760666,-4.403366,0.64697266,1.7426758,-1.0484161
1617,A,268983595411727,-5.6976013,-9.708878,0.6708679,0.30711365,-3.6653442,-0.6971283
1617,A,268983645765731,-4.3933563,-11.16127,14.146378,-0.7229004,2.341858,-0.17796326
