Subject-Id,Activity Label,Time stamp,Accel_x,Accel_y,Accel_z,Gyro_x,Gyro_y,Gyro_z
1613,A,178468071944614,-3.7834373,13.03164,2.2427685,-0.020240024,-0.004261058,-0.023435818
1613,A,178468104194617,-2.9317,8.473679,2.373851,-2.5750105,0.18109496,1.3864417
1613,A,178468142811857,-2.0260932,5.4091,1.3359646,-1.5739282,0.6668556,1.320928
1613,A,178468183987271,-1.1953052,3.0585926,0.7194576,-1.5041534,1.7973675,0.824781
1613,A,178468225406856,-1.2246342,1.4514848,1.0151415,-0.50786483,1.6002935,0.45833004
1613,A,178468263750919,-1.9147629,1.83336,3.1908724,0.8072041,1.4295849,0.406931
1613,A,178468303909407,-2.4570496,4.0557775,6.289568,2.7057717,1.1065434,0.22610238
1613,A,178468342207950,-4.2161894,18.401834,5.383961,2.0567594,0.350472,-0.2428803
1613,A,178468382361543,-2.148796,12.61864,14.51784,-2.7092338,1.0740529,0.8290421
1613,A,178468423371647,-6.7666125,0.36870706,-2.4223335,0.86206526,-0.5451491,0.21544974
1613,A,178468463316022,-6.2728086,12.706627,6.2554507,1.484446,0.272974,-0.39547944
1613,A,178468503185762,-4.7141833,10.590752,-5.3624134,-0.5486112,0.028229509,0.216515
1613,A,178468543122481,-3.819949,2.372654,3.8295257,1.4988271,-0.85354316,-0.25539714
1613,A,178468582649199,-0.1933318,15.089457,-3.7427359,2.8312066,-0.88976216,0.44048685
1613,A,178468623909304,-1.316811,8.258799,3.074155,1.4434333,0.5107943,0.25699505
1613,A,178468662793263,-3.311181,4.6645036,-1.1073183,2.0208068,-0.45673212,-0.12197278
1613,A,178468701309614,-0.31483752,9.336189,0.7254431,1.9238676,-0.2511361,-0.24421188
1613,A,178468742601958,-2.6408045,7.6069775,0.22325931,1.5984293,0.082025364,-0.13741912
1613,A,178468782708366,-1.1737574,7.579444,0.16519992,1.680721,-0.0974717,-0.5571333
1613,A,178468822414459,-1.8082209,9.257181,0.04070143,1.3736585,0.066046394,-0.75394094
1613,A,178468862355398,-2.842516,12.430097,-1.1857284,0.86659265,-0.54648066,-0.49960902
1613,A,178468902220866,-1.9925743,15.237897,-2.8532898,-0.17630127,-0.7416904,-0.40266997
1613,A,178468942211804,-2.3600843,15.227721,-0.3842694,-1.593103,-0.82557994,-0.12809806
1613,A,178468982028626,-5.481525,8.631097,2.4827871,-3.5462654,-2.3222766,-0.094808534
1613,A,178469021924459,-2.878429,9.630077,-3.6816838,-3.0040457,-1.0021476,-0.0727043
1613,A,178469061873313,-5.6126075,16.676214,3.74094,-3.5824845,-0.6431534,0.9214538
1613,A,178469101740398,-2.6527755,9.887454,2.2260091,-3.1198933,0.2034655,1.1952267
1613,A,178469140162065,-3.0172927,4.89315,0.74399817,-2.092712,0.2692456,1.1456919
1613,A,178469181207481,-0.62368953,2.9580362,-0.45489833,-1.9366508,1.6122777,0.69295454
1613,A,178469220002376,-1.0420763,1.4562732,1.5610195,-1.1163971,1.6692694,0.43436158
1613,A,178469260198782,-2.6312277,2.8060043,3.2381577,0.21065605,1.4098775,0.49135324
1613,A,178469299862636,-1.8309658,3.4644098,6.327875,2.1534321,1.0887003,0.4908206
1613,A,178469339505344,-2.5887306,10.266336,5.9825115,2.6557043,0.262854,-0.1603223
1613,A,178469379391022,-4.794389,19.612701,6.519411,-1.3827133,0.8266452,0.6239787
1613,A,178469419415084,-7.5124063,4.6004586,5.4881086,-0.6375608,-0.9190569,0.26897928
1613,A,178469459263782,-4.699219,9.269751,1.4736311,1.2825783,-0.1667139,-0.3006709
1613,A,178469499336282,-2.5959132,11.205462,-4.080917,-0.42077947,-0.082025364,-0.03195793
1613,A,178469539203730,-1.9632454,5.073313,5.117606,1.1928298,-0.54674697,0.11371698
1613,A,178469579457845,-2.0374656,12.065579,-3.1890767,2.8258803,-0.74754936,0.3270362
1613,A,178469619017428,-0.8559271,8.813655,2.6647465,1.526524,0.5544701,0.03089267
1613,A,178469659284825,-2.906561,5.1463366,-1.8100165,2.0586236,-0.2657835,-0.21385184
1613,A,178469699148314,-1.4520833,7.7973166,1.1791444,1.9379823,-0.09161274,-0.3651194
1613,A,178469738978157,-2.27928,7.872135,-0.30346507,1.8112159,-0.11664646,-0.14008227
1613,A,178469778959875,-1.8722657,8.529344,0.6913257,1.6982979,-0.4181163,-0.2247708
1613,A,178469818546648,-0.3184288,9.321824,0.35793316,1.4088123,-0.2444782,-0.32996565
1613,A,178469858747897,-2.0452468,10.853515,-1.5053543,0.8676579,-0.40586576,-0.52331114
1613,A,178469899608054,-0.30166942,15.138537,0.1436521,0.1470065,-0.61439127,-0.5339638
1613,A,178469938775658,-3.3441012,15.179837,2.472612,-1.4133396,0.06578008,-0.084155895
1613,A,178469979764980,-6.1758432,9.606734,2.0458453,-3.5907402,-1.5108113,0.077231675
1613,A,178470019657584,-5.466561,9.911396,-1.039682,-3.0208237,-0.98776644,0.11984225
1613,A,178470059606648,-4.2066126,11.651981,3.6391866,-2.6666234,-1.3241237,1.0247844
1613,A,178470099141023,-1.7154455,12.912528,-1.1432313,-2.1816616,-0.61199445,1.5688683
1613,A,178470138055918,-2.9801826,6.7318964,2.9119477,-2.330266,0.9078716,1.6692694
1613,A,178470179312533,-1.1133038,3.591901,-0.7966706,-1.855957,1.7611485,0.95900434
1613,A,178470219180554,-1.0217255,1.2360066,2.011728,-1.1049455,1.6530241,0.43649212
1613,A,178470259170396,-1.6807296,3.0484173,2.2038627,-0.1486044,1.4037522,0.23196134
1613,A,178470297797481,-2.211644,3.152565,4.4556093,1.2897689,0.9914949,0.32969934
1613,A,178470337372897,-1.9626468,5.6156,6.555923,2.6202843,1.0586065,0.17816548
1613,A,178470377088887,-4.3317094,19.612701,7.1730285,0.43729106,-0.01784318,0.06231797
1613,A,178470416911178,-5.42167,12.314576,11.508329,-2.216549,0.8404937,0.6450176
1613,A,178470456830657,-6.877943,4.56694,1.3551182,1.3946975,-0.12144015,-0.06551377
1613,A,178470496734199,-3.6194344,16.667234,2.6593595,0.13422333,-0.5701828,-0.36485308
1613,A,178470536660762,-2.8993783,3.5523968,1.9351135,0.32943302,0.34408042,0.14274544
1613,A,178470576520449,-0.42078096,11.300632,-0.6488287,2.8077707,-1.5398397,0.36991307
1613,A,178470616437897,-1.1180922,10.2417965,0.0712275,1.7105484,-0.65034395,0.19893813
1613,A,178470656327220,-3.25372,5.367202,0.3764882,2.082592,-0.6109292,0.06098639
1613,A,178470696229564,-2.5635915,7.5584946,-0.10594343,2.2256038,-1.0892329,-0.36724994
1613,A,178470736145501,-0.7966706,9.229648,-1.5173253,1.8599517,-1.087635,0.035153728
1613,A,178470776036178,-1.8142064,8.183381,0.41120413,1.5126755,-0.3669836,-0.06551377
1613,A,178470815953366,-0.08738836,8.238448,0.5847838,1.5403724,-0.40400153,-0.36432046
1613,A,178470855843835,-0.6925228,9.725247,-0.17298107,1.3536848,-0.3304983,-0.5539375
1613,A,178470896018835,-2.40318,12.983756,-0.32920274,0.6777745,-0.69295454,-0.3821636
1613,A,178470936816698,-2.5731683,13.050794,-2.5953147,-0.24927188,-0.7861652,-0.33635727
1613,A,178470976722376,-2.4211364,12.835316,0.93493575,-1.5520903,-1.0721886,-0.080960095
1613,A,178471016623262,-5.1062336,8.944139,2.2774844,-3.6746297,-2.6578348,-0.22770028
1613,A,178471055708469,-2.891597,10.629657,-4.5902834,-3.1513186,-2.0085561,-0.1323591
1613,A,178471095620033,-4.635773,18.476652,5.5168395,-3.8384142,-0.8828379,0.9060074
1613,A,178471135498313,-1.8393455,8.866926,1.4024036,-2.8913941,-0.034621093,1.5494272
1613,A,178471177646074,-1.7597382,4.317344,2.19668,-1.9656793,0.7731157,1.2037488
1613,A,178471215304823,0.13587095,3.4997244,0.22266077,-1.7052221,1.9829898,0.5632586
1613,A,178471257470812,-0.86729956,2.420538,0.8996213,-0.9882991,1.7164073,0.28708878
1613,A,178471295415814,-2.0853498,3.079542,2.2529438,-0.006657903,1.6010925,0.3635215
1613,A,178471336284146,-2.9759927,4.0174704,5.1397524,1.9009644,1.042095,0.51771855
1613,A,178471376374249,-3.2555158,8.571242,5.9561753,2.4650218,0.5251754,0.12676647
1613,A,178471416298782,-4.703409,19.612701,6.3667808,-0.17603496,0.47697216,0.19361182
1613,A,178471456164616,-1.7705121,11.651382,8.158841,-1.3124058,0.15978967,0.27190876
1613,A,178471496110709,-6.5750766,5.451597,0.8355764,1.6564863,-0.55580175,0.054328486
1613,A,178471536129250,-3.2854433,15.0343895,6.589442,0.39734364,0.0958738,-0.5901565
1613,A,178471575953468,-5.3103395,7.8009076,-3.857059,0.65673554,-0.15632756,-0.10439592
1613,A,178471614622427,-2.3558946,7.1909847,0.7685388,2.1110878,-1.1414309,0.061519023
1613,A,178471654388000,-0.7104794,11.815984,-2.3211784,2.21575,-0.5933523,0.38802257
1613,A,178471695666125,-2.4307132,5.746084,1.5113398,1.9158782,-0.42290998,0.25726137
1613,A,178471734507948,-1.8525136,7.6285253,-1.8608932,1.9009644,-0.54674697,-0.33182988
1613,A,178471775466489,-1.5275006,9.821614,1.4137762,1.4815166,-0.4048005,-0.1736381
1613,A,178471815328416,-2.022502,9.540296,1.3425486,1.1060108,-0.81066626,0.07057377
1613,A,178471855271646,0.54767364,8.233061,0.676362,1.0567423,-0.6037386,0.055926383
1613,A,178471893674875,-0.52253455,8.811859,1.0474633,1.1374362,-0.29933932,-0.26498455
1613,A,178471933554354,-1.9165585,9.566033,-1.0217255,0.8178568,-0.34115094,-0.43116578
1613,A,178471973233729,-0.7823054,10.9899845,-2.8407204,0.42290998,-0.33529198,-0.34940675
1613,A,178472013084198,-1.7232267,15.323489,-0.28311434,-0.11771172,0.045540057,-0.33662358
1613,A,178472052993260,-3.8863878,14.94341,0.29209262,-1.6980315,-0.03542004,-0.20186761
1613,A,178472093957270,-4.268263,8.177995,0.74998367,-3.5483959,-1.5901735,-0.2958772
1613,A,178472132891125,-4.8494554,10.556035,-2.0410569,-3.3619747,-0.70680296,-0.12836437
1613,A,178472173260812,-5.722142,14.839861,4.38498,-3.0743532,-1.1313108,0.9422264
1613,A,178472213451906,-1.1013328,10.900202,0.6859388,-2.6197517,-0.35766253,1.190433
1613,A,178472253115031,-1.5664065,7.1221514,0.86849666,-2.1715417,0.99469066,1.2639363
1613,A,178472295352895,-0.97862995,3.6882677,0.05207389,-2.1505027,2.0279973,0.7571367
1613,A,178472333752427,-1.4628572,2.130241,1.8734628,-1.1590078,1.8453044,0.47830373
1613,A,178472374049406,-2.8173769,3.3273418,2.730587,-0.040213734,1.602424,0.49641323
1613,A,178472412365344,-2.3301568,4.370615,4.8698063,1.5731293,1.0663297,0.65061027
1613,A,178472452241698,-2.509722,6.6947865,7.6865845,2.292449,0.28309402,0.30280143
1613,A,178472491956282,-6.779182,19.612701,5.471948,0.20639499,-0.23568976,-0.16564862
1613,A,178472531823209,-4.3544545,13.025056,10.187328,-1.479386,0.1882855,0.045540057
1613,A,178472571900865,-4.6842556,5.675455,3.192668,1.6690031,-0.99522334,0.0018642128
1613,A,178472611798938,-2.8658595,17.03714,3.376423,0.7866978,-0.81412834,-0.18562233
1613,A,178472651564719,-3.2489316,5.261258,-2.6659436,0.43888897,0.29827404,0.15233281
1613,A,178472691469355,-1.8746599,6.013636,0.23642741,2.2540996,-0.8048073,-0.06231797
1613,A,178472731442740,-0.7679402,12.729372,-1.934515,2.133192,-0.8990832,0.3153183
1613,A,178472771313886,-1.9189527,6.567894,2.8221653,1.6492957,-0.3882889,0.3320962
1613,A,178472811327428,-2.5067291,6.923433,-1.0414777,1.8977686,-0.8165252,-0.17603496
1613,A,178472851145084,-0.088585466,9.060258,-0.31902736,1.7385116,-0.6564692,-0.070307456
1613,A,178472891158730,-1.0995371,8.756194,1.2808979,1.4064153,-0.045007423,-0.11957593
1613,A,178472931007115,-0.3321955,8.769362,0.92296475,1.4889734,-0.24687503,-0.22956449
1613,A,178472971147219,-1.2246342,9.1512375,0.88645315,1.2532836,-0.06231797,-0.46525425
1613,A,178473011146021,-1.6687586,11.130045,-1.5795746,0.8333031,-0.5651228,-0.35233623
1613,A,178473050810240,-0.99179804,12.616844,-1.9153614,0.33289513,-0.613326,-0.32810146
1613,A,178473090730448,-2.979584,15.896901,0.10175357,-0.31798145,-0.20852552,-0.116912775
1613,A,178473130777167,-3.8205473,12.460024,0.8678981,-2.1742048,-0.5850965,-0.17150758
1613,A,178473170782584,-4.687248,7.835025,0.9427169,-3.8756983,-2.2256038,-0.28895298
1613,A,178473210453521,-4.4322658,10.192117,-1.4891934,-2.9262815,-1.0791129,0.073236935
1613,A,178473250432011,-2.6767175,16.290148,2.8520927,-3.153449,-1.0423613,1.0365024
1613,A,178473290258313,-2.3475149,10.231621,3.0597897,-2.9585056,0.7030745,1.4277207
1613,A,178473330146126,-1.917157,5.0026846,-0.10474633,-2.0375845,1.150752,1.113734
1613,A,178473370066751,-0.4818331,2.190096,1.7872716,-1.8666097,2.177667,0.68336713
1613,A,178473410119303,-1.3317747,1.8106151,1.8806454,-0.83516735,1.8897791,0.35952675
1613,A,178473449895917,-2.297835,3.0783448,2.7132292,0.23782028,1.3907027,0.33422673
1613,A,178473489764615,-2.4534583,4.485537,5.758055,1.6847157,0.99042964,0.46205845
1613,A,178473529667428,-1.388637,11.055226,9.390059,1.6221315,0.66658926,0.09773801
1613,A,178473569762323,-5.075109,13.385384,9.528923,-1.6314526,0.46232477,0.36751625
1613,A,178473609774876,-7.041347,7.781754,5.6138043,-0.78589886,0.5747102,0.18695392
1613,A,178473649675032,-4.1479545,9.416395,2.9059622,2.1933794,-1.0066749,0.11345066
1613,A,178473691172635,-1.6484078,12.669517,-1.3132197,-0.03914847,-0.27137613,-0.21598236
1613,A,178473729379146,-3.4165258,1.614889,4.0306387,1.2588763,-0.19441076,-0.29321405
1613,A,178473769526958,-0.17597382,13.701418,-4.7901993,3.5766253,-1.8269285,0.44448158
1613,A,178473810216750,-0.14185645,10.468647,1.246182,1.4663365,0.1454086,0.116912775
1613,A,178473849033364,-3.6164417,4.3197384,1.4197617,2.030394,-0.09241169,-0.03701794
1613,A,178473889254927,-1.5975311,7.7679873,-0.5805939,2.171009,-0.8250473,-0.4063984
1613,A,178473929963416,-0.6607997,8.995016,-1.1611878,1.8530275,-0.5611281,0.0644485
1613,A,178473968827739,-1.958457,7.620744,1.4772224,1.6498283,-0.025566347,-0.14460965
1613,A,178474008922999,0.35194764,9.099164,0.7870938,1.7851169,-0.4396879,-0.3901531
1613,A,178474048861697,-2.055422,11.552622,-1.2455834,1.1001519,-0.75420725,-0.49028796
1613,A,178474090285968,-0.18914193,14.533402,-1.0079589,0.16724652,-0.9510148,-0.41705105
1613,A,178474130047270,-1.9081788,16.971298,-0.44651863,-0.98137486,-0.16484967,-0.120907515
1613,A,178474169907323,-4.3622355,11.1970825,1.5005659,-3.1411986,-0.8032094,0.021837922
1613,A,178474209858675,-2.8030117,9.345168,-2.7144263,-3.5606465,-1.6303873,-0.11558119
1613,A,178474249718365,-3.9270895,13.6673,-0.2621651,-3.5483959,-0.26764768,0.5209143
1613,A,178474289674667,-1.5753847,14.395737,3.052607,-3.3313482,-0.033023197,1.3432984
1613,A,178474328944302,-2.1481974,6.163274,1.7256209,-2.7209518,0.5733786,1.212271
1613,A,178474369455239,-0.3453636,3.2734723,-0.09816227,-1.9933761,1.71694,0.8969527
1613,A,178474409389719,-0.34955344,2.8963854,2.2816741,-1.5528892,2.7252128,0.54807854
1613,A,178474448761177,-2.304419,1.5634137,1.9237411,-0.4889564,1.8967034,0.520648
1613,A,178474489151802,-2.3319526,2.7210102,4.589086,1.603223,1.3414342,0.65886605
1613,A,178474529227949,-1.7770962,7.338228,7.623737,2.5310683,0.7688546,0.50999534
1613,A,178474568949301,-6.8222775,19.612701,6.904279,0.2181129,0.59148806,0.075101145
1613,A,178474608358781,-4.3317094,12.456433,11.373056,-1.6455673,0.58429754,0.38802257
1613,A,178474647244822,-6.091448,7.029376,-0.6440403,1.7616811,-0.72624403,0.035153728
1613,A,178474688707217,-0.5303157,15.7586355,0.89902276,-0.72437984,7.9894834E-4,-0.38589206
1613,A,178474728568572,-2.3582888,3.5218706,3.0113072,0.9717875,0.005060006,0.30945933
1613,A,178474768467114,-0.7505822,10.65719,-2.3786395,2.9664953,-1.8274611,0.37071204
1613,A,178474808410707,-0.18914193,10.897209,2.0512323,1.9374497,-0.34674358,0.019973708
1613,A,178474847949770,-3.141791,5.2648497,-0.4914099,2.2506375,-0.47137952,0.116912775
1613,A,178474887809146,-1.501763,6.513426,0.878672,2.1864552,-0.664725,-0.3683152
1613,A,178474928061853,-1.340753,8.699332,-1.1121067,2.0048277,-0.6609966,0.007190535
1613,A,178474966359561,-1.2599486,7.8966756,1.893215,1.6066852,-0.34248254,-0.06391586
1613,A,178475006220082,0.8194155,9.346365,0.59615624,1.5507587,-0.63915867,-0.31851408
1613,A,178475047839145,-1.168969,11.036672,-1.8142064,0.88896316,-0.61385864,-0.3818973
1613,A,178475087699352,-0.1316811,13.737929,-0.84575176,0.15259913,-0.6351639,-0.44821003
1613,A,178475127605811,-4.0922894,18.225262,-0.28550854,-1.2804478,-0.015446335,-0.2396845
1613,A,178475165833780,-4.4364557,10.279505,0.95468795,-3.49966,-1.4122744,-0.16138756
1613,A,178475209946073,-4.365228,9.354745,-3.0597897,-3.4328146,-1.8192054,-0.1669802
1613,A,178475247899353,-2.7617116,14.498089,-0.28909984,-3.5294874,-0.68842715,0.35659727
1613,A,178475287843311,-0.7332243,16.258425,2.7246015,-3.2860746,-0.12676647,1.5246598
1613,A,178475326366229,-2.7210102,5.9837084,2.1200657,-2.7710192,0.77125144,1.3179984
1613,A,178475365231645,-0.24600422,3.2788591,-0.84335756,-1.8269285,1.5321167,0.9574064
1613,A,178475405168728,-0.07062895,2.0129251,0.9911995,-1.3859091,2.2200112,0.5486112
1613,A,178475444822426,-2.0871453,1.7399861,1.6555905,-0.608266,1.726261,0.3153183
1613,A,178475484882999,-2.735974,2.3654714,4.924873,1.8026937,0.9006811,0.5789712
1613,A,178475524991749,-1.2653356,8.015787,7.0826473,2.9643648,0.4045342,0.47537425
1613,A,178475566957529,-5.6120086,19.612701,6.325481,-0.26178873,0.80533993,0.24154872
1613,A,178475605068103,-2.4253263,10.5841675,10.825383,-1.566205,0.4708469,0.26871297
1613,A,178475644509874,-6.8641763,6.043564,-2.099715,2.303368,-0.6860303,-0.14141385
1613,A,178475686839821,-0.8146271,16.890495,2.2164323,-0.32650355,-0.07057377,-0.65460503
1613,A,178475726788674,-4.055179,5.755661,1.5616181,0.95261276,-0.0039947415,0.12250541
1613,A,178475766654617,-0.16220717,9.2547865,-1.0229226,2.7672908,-1.5784556,0.4167847
1613,A,178475806604825,0.56802434,10.793061,0.39683893,1.8700718,-0.7139935,0.2247708
1613,A,178475846472320,-2.9831753,6.7265096,0.24839842,1.9646139,-0.21598236,0.14247912
1613,A,178475886364300,-2.1470003,5.734113,0.9864111,1.8777949,-0.35952675,-0.3864247
1613,A,178475926323316,-0.6733692,9.60015,-0.5710171,1.860218,-0.5832323,-0.094808534
1613,A,178475966392319,-1.5682021,8.064868,1.1528081,1.6407735,-0.257794,-0.17337179
1613,A,178476006137636,0.2136825,8.66701,1.8435353,1.5097461,-0.36751625,-0.34914044
1613,A,178476046024352,-0.5758055,10.317214,-0.9020155,1.0833739,-0.561927,-0.23249397
1613,A,178476085878885,-1.2515689,12.167333,-0.9271546,0.4215784,-0.7635283,-0.43649212
1613,A,178476123594615,-2.5905263,19.215263,-1.2366052,-0.69801456,-0.20373182,-0.28708878
1613,A,178476163276228,-4.0120835,13.04002,-0.1376666,-2.5824673,-0.5773733,0.060720075
1613,A,178476203470239,-4.414908,8.2516165,-0.95468795,-4.0504017,-1.9212044,-0.27989823
1613,A,178476245031801,-3.7882257,12.110471,-2.597709,-3.2213597,-0.5608617,-0.049534798
1613,A,178476282998729,-2.7269957,14.922461,4.0258503,-3.5507927,0.071106404,1.2596753
1613,A,178476322984510,-2.219425,8.100781,2.3373394,-2.971289,0.6918893,1.1960256
1613,A,178476362565447,-1.0049661,4.0174704,1.745373,-1.876197,1.0508834,1.1198592
1613,A,178476402477635,-0.062249243,2.6605566,0.3309984,-1.4138722,1.8186728,0.6213155
1613,A,178476442554614,-0.97025025,1.6801311,0.777517,-0.63702816,1.7518274,0.37390783
1613,A,178476482288416,-2.1619642,2.27928,2.6120741,0.66392606,1.3038837,0.5249091
1613,A,178476522260656,-2.420538,3.5302503,6.067506,2.637861,0.83490103,0.660464
1613,A,178476562170239,-3.9240966,17.770363,8.902839,2.4197483,-0.27510455,-0.013848438
1613,A,178476602049510,-5.961562,14.375984,11.335946,-3.3055155,1.4655375,0.43329632
1613,A,178476641924093,-5.527613,-0.024540568,-0.2873042,0.7438209,-0.8072041,-0.073236935
1613,A,178476681849406,-4.032434,15.475521,1.644218,1.1345067,-0.30839407,-0.29694247
1613,A,178476721879406,-3.1663318,7.183802,-1.1773487,-0.39228365,0.18668759,-0.0053263223
1613,A,178476761787635,-1.7172412,7.0341644,3.5410242,2.5949843,-1.6231967,0.25726137
1613,A,178476801863416,0.6991069,13.578715,-0.6727707,2.5984464,-1.5491608,0.30706248
1613,A,178476841693520,-1.4305356,6.606201,0.3453636,2.1763353,-0.19414444,0.29960564
1613,A,178476881698676,-2.3068132,4.8440685,0.92416185,2.1680794,-0.47643954,-0.2282329
1613,A,178476921756489,-0.7098808,8.302493,-0.047884032,1.9659456,-1.0833739,-0.19520971
1613,A,178476961776749,-1.3084313,8.6813755,-0.23942018,1.8101506,-0.86872315,-0.03888215
1613,A,178477001316958,-0.4261679,8.340201,1.8537107,1.3704628,-0.6575345,-0.31771514
1613,A,178477041164197,2.973,10.367492,1.6783354,1.3126721,-0.44554687,-0.45460162
1613,A,178477081292010,-0.6206968,10.778097,-1.5508442,0.6894924,-0.3997405,-0.46658584
1613,A,178477120848885,-0.7787141,13.791201,-1.6986861,0.046072688,-0.38402784,-0.4609932
1613,A,178477161066592,-2.4917655,14.88176,0.7278373,-1.1345067,0.16804546,-0.047670584
1613,A,178477203174301,-4.917092,10.049662,2.9502552,-3.669037,-1.0615361,-0.22077605
1613,A,178477240866228,-3.5003228,9.370906,-2.9119477,-3.5294874,-1.6093483,-0.2876214
1613,A,178477280734405,-4.674679,16.130934,2.2888567,-3.5803537,-0.3153183,0.39894155
1613,A,178477322876905,-1.3599066,13.535021,1.1917139,-2.845854,-0.67484504,1.489506
1613,A,178477360404092,-1.3563153,5.3025584,1.922544,-2.2727418,1.0966897,1.350489
1613,A,178477402186331,0.60932434,2.6581624,-0.037708677,-1.5267903,1.7422401,0.8428905
1613,A,178477441794769,-0.90141696,1.958457,0.40342298,-0.7976168,1.820537,0.51452273
1613,A,178477481737216,-1.5239093,1.2264298,1.726818,0.13741912,1.617604,0.32783514
1613,A,178477521606539,-1.9818004,3.104681,4.034828,1.8351843,1.1190603,0.22503711
1613,A,178477561052529,-3.198055,10.34774,6.5666966,2.4815335,0.2862898,-0.1403486
1613,A,178477605521487,-5.767632,19.612701,6.607398,-1.1193266,1.1297129,0.15472966
1613,A,178477642134768,-3.6661212,7.429806,10.478823,-1.6128104,0.08575379,-0.016777916
1613,A,178477679844352,-3.6326025,11.819575,2.0895395,1.4354439,-0.49747851,0.016511599
1613,A,178477721991539,-3.1555579,15.120581,1.9458874,-1.381648,-0.262854,0.04926848
1613,A,178477759560862,-4.246715,1.0630256,-0.6775591,1.551824,-0.13688648,0.20852552
1613,A,178477799729248,-1.654992,15.06312,-3.2962172,2.824016,-2.3281355,0.17204021
1613,A,178477841202112,-0.40940848,10.750565,2.7581203,1.5494272,-0.2082592,0.3390204
1613,A,178477881005602,-2.1859062,4.3640313,0.14544775,2.1007016,-0.6202502,0.1504686
1613,A,178477919220967,0.2160767,8.759187,0.23283611,2.2634206,-0.92065483,-0.56725335
1613,A,178477959276957,-0.76075757,9.100361,-0.42317516,1.8884475,-0.45380265,-0.19387813
1613,A,178477998712529,-0.724246,7.802105,0.35434186,1.6037556,-0.124902256,-0.1984055
1613,A,178478039680447,0.28909984,8.870518,1.5580268,1.4868429,0.066046394,-0.41412157
1613,A,178478078756644,-0.533907,9.704897,-0.14185645,1.128914,-0.3187804,-0.48522797
1613,A,178478118940497,-1.2844892,13.459004,-0.56203884,0.42184472,-0.48283112,-0.51026165
1613,A,178478158969716,-1.5586253,15.175049,-0.32621,-0.42743737,-0.14088123,-0.17656758
1613,A,178478200807321,-3.103484,13.204022,0.3172317,-2.0301278,-0.33768883,0.051132694
1613,A,178478240710133,-4.2538977,8.169615,0.5895722,-3.8589206,-1.8647454,-0.17310548
1613,A,178478278187477,-3.5075054,12.121244,-2.767697,-2.979012,-0.37151098,-0.033023197
1613,A,178478319817946,-2.1392193,16.3512,1.6885108,-3.375823,-0.09773801,1.2447615
1613,A,178478359614301,-4.0880995,7.7733746,4.355053,-3.181146,0.87564737,1.1539477
1613,A,178478399547634,-1.2934675,3.632004,0.86370826,-2.1134846,1.1749867,0.81892204
1613,A,178478439405186,0.29867667,1.757344,2.1398177,-1.427188,1.5462314,0.3930826
1613,A,178478477871018,-0.78050977,1.9446903,1.2437878,-0.629305,1.4615428,0.14993598
1613,A,178478520222685,-2.3900118,3.41473,2.7006595,0.5153217,1.2194614,0.35739622
1613,A,178478559935394,-2.343325,4.1276035,6.518214,2.3734093,0.88044107,0.4543353
1613,A,178478597602997,-3.0226796,18.570625,8.987235,1.8407769,0.046871636,-0.31292143
1613,A,178478639753206,-7.1742253,14.009072,8.487445,-2.5278726,0.8881642,0.39388153
1613,A,178478677693415,-4.635773,-0.85532856,-0.035913024,0.5637912,-0.7203851,-0.010918961
1613,A,178478719571538,-4.417302,12.08593,1.0169371,1.3851101,-0.34168357,-0.1685781
1613,A,178478759519821,-3.5793316,12.945449,-0.6895301,-0.48948902,-0.16484967,-0.09720538
1613,A,178478797228102,-2.9418752,5.031415,1.1653777,2.1976407,-1.6655409,0.4066647
1613,A,178478836979040,-0.14425065,11.773487,-1.3377602,2.4045682,-1.1408982,0.07163903
1613,A,178478876609144,-0.8702923,9.344569,0.9624691,1.9137475,-0.15126756,0.16724652
1613,A,178478916416071,-2.0171149,4.9135003,1.359308,2.232528,-0.5701828,0.04527374
1613,A,178478956334300,-0.44771573,8.667608,0.32621,2.0224047,-0.6918893,-0.28442562
1613,A,178478996476331,-1.3563153,8.393473,-1.3838485,1.963815,-0.66392606,0.009853696
1613,A,178479036361175,-0.30825347,8.92319,1.4915876,1.4125407,-0.22956449,-0.19014971
1613,A,178479076516123,-0.0724246,9.23683,1.5245079,1.2282499,-0.29614353,-0.2759035
1613,A,178479116405602,-1.2084733,10.530297,-1.0342951,0.8359663,-0.5680523,-0.34914044
1613,A,178479156316956,-0.59735334,13.371616,-1.7890673,0.15446335,-0.48043427,-0.40613207
1613,A,178479197876488,-2.4636335,14.455591,0.4878186,-0.99042964,-0.08282431,-0.1206412
1613,A,178479236135134,-4.091092,10.82658,3.4003649,-3.6788907,-1.0586065,-0.29321405
1613,A,178479275893571,-2.4779987,9.625888,-4.472967,-3.48954,-1.274589,-0.32597092
1613,A,178479315525654,-2.9819782,18.7873,4.3185415,-3.4469295,-0.6010755,0.6197176
1613,A,178479355399300,-1.762731,11.649587,0.3196259,-3.3862095,0.9105348,1.3203954
1613,A,178479396460758,-2.4079683,5.686229,1.650802,-2.397644,0.5832323,0.94755274
1613,A,178479435583310,-1.3078327,3.4320881,-0.01316811,-1.8868496,1.4575481,0.45593318
1613,A,178479475724561,-0.7990648,2.0572178,1.2294226,-0.9347696,1.5116103,0.43356264
1613,A,178479515380081,-2.0428526,0.7338228,1.9405005,-0.17470337,1.3803164,0.34647727
1613,A,178479555112633,-2.136825,2.8293478,4.325125,1.6932379,0.8021441,0.4926848
1613,A,178479594897216,-0.2621651,7.1742253,8.097789,3.1244206,0.6852314,0.3257046
1613,A,178479634791435,-6.2422824,19.612701,4.423288,0.28495824,0.06924219,0.13129385
1613,A,178479674652268,-4.586692,9.615712,12.821548,-2.031992,0.37710363,0.2796319
1613,A,178479714574247,-6.118981,6.3619924,-3.0214825,1.5496935,-0.567786,-0.4460795
1613,A,178479755559404,-2.5366566,19.612701,1.216853,-1.2442288,-0.30360037,-0.6085323
1613,A,178479795655602,-1.3922282,4.334702,-2.9017725,2.034655,-1.1334413,0.78962725
1613,A,178479834847581,0.6907272,11.079767,-1.1085154,2.31695,-0.76592517,0.24394555
1613,A,178479874635654,-1.7202339,9.886856,0.6739678,1.7587516,0.49321744,-0.083090626
1613,A,178479916692997,-3.5122938,5.704784,1.9883845,2.0655477,-0.15446335,0.070307456
1613,A,178479956578726,-0.22146365,8.451532,-0.7493851,2.1108215,-0.59761333,-0.055926383
1613,A,178479996455758,-1.477821,8.16363,-0.46148238,1.9742013,-0.4261058,0.23462449
1613,A,178480036696329,-1.0528502,8.158841,1.3670892,1.526524,-0.0958738,-0.175236
1613,A,178480074356018,0.45010993,9.958682,2.1152773,1.2303804,-0.28868666,-0.36565202
1613,A,178480116200184,-1.1623849,10.441712,-1.3605051,0.7616641,-0.64581656,-0.22104238
1613,A,178480156135132,-0.1316811,13.263279,-1.8327614,0.038615838,-0.49854377,-0.34115094
1613,A,178480193575445,-1.0522517,16.369158,1.7178397,-0.94568855,0.059388492,-0.06924219
1613,A,178480235420549,-4.853047,11.016919,3.1549592,-3.3321471,-0.78536624,-0.15313177
1613,A,178480275847945,-2.7988217,8.353969,-1.8842367,-3.6794233,-1.6964337,-0.386691
1613,A,178480315707060,-3.9426517,13.612234,-0.7685388,-3.3920684,-0.19201392,0.15499598
1613,A,178480355635185,-1.827973,16.212337,3.719991,-2.8951225,0.07669904,1.3326459
1613,A,178480395573256,-2.5629928,7.501034,1.2114661,-2.5260084,1.0077401,1.5235945
1613,A,178480433180393,-0.83856916,2.307412,0.9379285,-1.7350495,1.6634104,0.97418433
1613,A,178480473026279,-0.2208651,1.9788077,1.9913772,-1.0644655,1.6839168,0.4079963
1613,A,178480512667320,-2.1978772,3.091513,2.0949266,0.07057377,1.3448963,0.2647182
1613,A,178480552748258,-2.918532,3.3913867,3.8510735,1.5470303,1.1680624,0.49215218
1613,A,178480592940393,-1.9949685,4.8159366,6.7384806,2.9952574,0.74461985,0.3339604
1613,A,178480632890966,-4.868609,19.612701,1.7106571,1.397627,0.13688648,-0.22077605
1613,A,178480672668727,-1.8686744,6.8641763,14.111424,-3.029612,0.8359663,0.60240704
1613,A,178480712491591,-7.1059904,1.1755531,-1.8195933,1.0018812,-1.2253205,-0.3768373
1613,A,178480752122008,-2.8909986,15.334264,4.0258503,1.5134745,-0.11584751,-0.51665324
1613,A,178480792014247,-1.7184383,12.309788,-5.6724625,-0.22743396,-0.45593318,0.4993427
1613,A,178480832048466,-3.6529531,2.7730842,4.7363296,1.2980248,-0.5360943,0.3651194
1613,A,178480871755914,-0.45789108,12.94485,-2.5611973,2.2809975,-0.9259811,0.105993815
1613,A,178480911959716,-1.2126632,9.960478,2.546832,1.6341157,-0.24554345,0.18455707
1613,A,178480951967425,-2.505532,6.5744777,0.6075287,2.0106866,-0.7954862,0.040213734
1613,A,178480992083518,0.15203181,7.681796,1.0001777,1.8290591,-0.7094661,-0.09640643
1613,A,178481031688674,-1.1767502,9.04709,1.0546459,1.5883093,-0.59574914,-0.10359697
1613,A,178481071578257,-0.36511576,8.459911,-0.060453594,1.3001553,-0.7305051,-0.096939065
1613,A,178481112086278,0.95708215,8.757391,1.4532804,1.2650015,-0.1717739,-0.18855181
1613,A,178481151538309,-0.10534488,10.012551,-0.53929394,1.0335728,-0.42876893,-0.36565202
1613,A,178481191593570,-0.24600422,12.037448,-1.3676877,0.5608617,-0.45220476,-0.38962048
1613,A,178481232326851,-0.97025025,16.134525,0.06823475,-0.25193503,0.25060347,-0.34274885
1613,A,178481272559299,-2.7527335,13.166314,1.2282255,-2.0104203,-0.27856666,-0.27856666
1613,A,178481311242477,-4.361637,7.833828,2.7144263,-3.7055223,-1.7012273,-0.32144356
1613,A,178481350759820,-2.9759927,10.666168,-3.3955765,-2.962767,-1.3097427,-0.0777643
1613,A,178481390517998,-4.3927617,18.123508,2.235586,-3.7105825,-0.56885123,0.5850965
1613,A,178481431530080,-2.083554,10.773309,4.384382,-3.235208,0.46339005,0.90307796
1613,A,178481472813777,-2.2589293,5.4791307,1.769315,-2.0423782,0.6426208,0.76246303
1613,A,178481510829455,-0.3824737,3.5889084,0.8912416,-1.4660702,1.3720607,0.5091964
1613,A,178481551666330,-0.8750807,1.8626889,1.5131354,-0.5613944,1.3611417,0.42797
1613,A,178481591597320,-1.4903905,2.790442,1.8734628,0.35073832,1.3113406,0.4543353
1613,A,178481631336122,-1.9728222,2.8760347,4.4478283,1.8482338,1.0354371,0.47004795
1613,A,178481670016538,-1.567005,8.734048,7.0952168,2.7087011,0.22264028,-0.09347696
1613,A,178481710011122,-5.493496,19.612701,6.4589577,-0.3603257,0.28229508,-0.004261058
1613,A,178481749671434,-4.648941,7.9128366,7.8062944,-1.7291905,0.30146983,-0.15126756
1613,A,178481789960497,-2.7581203,8.170214,1.5167267,1.9971045,-0.5787049,-0.20453078
1613,A,178481830553361,-1.8303672,17.758991,2.147599,-0.41385525,-0.25300032,-0.36112466
1613,A,178481869877684,-1.8656816,4.152743,1.1875241,0.35926044,0.808802,0.18881813
1613,A,178481909750132,0.09876082,9.083601,-0.5494693,1.9542277,-1.015197,0.09321064
1613,A,178481950960392,0.13946225,11.426328,2.5318682,1.7494305,-0.59867865,0.304133
1613,A,178481990470758,-2.3062148,7.6488757,0.41359833,1.6690031,0.02743056,0.3784352
1613,A,178482030729454,-0.6434417,7.0706763,1.3311762,1.6690031,-0.18961707,-0.10279802
1613,A,178482069363466,-0.64463884,9.44752,0.8810662,1.3424995,-0.068176925,0.013315806
1613,A,178482110534350,-1.7411832,8.438364,1.6172832,1.2410331,-0.11105382,0.018642128
1613,A,178482150126956,0.011372458,8.057087,0.5189432,1.4937671,-0.011451593,-0.18109496
1613,A,178482189995654,-0.6572084,8.25401,1.1647792,1.4138722,0.24154872,-0.53769225
1613,A,178482228962997,-0.90500826,11.452065,-0.9588778,0.76912093,-0.2841593,-0.4958806
1613,A,178482270191797,-1.1288661,13.393165,-1.7711107,-0.16777915,-0.5472796,-0.43888897
1613,A,178482308883622,-0.8810662,15.318701,1.7340006,-1.2631373,-0.11451593,-0.06924219
1613,A,178482348679716,-5.009867,9.306861,3.4171243,-3.714311,-1.2705942,-0.21411815
1613,A,178482388629039,-2.7114334,9.408614,-2.8078,-3.4767568,-1.6160061,-0.24900557
1613,A,178482430644976,-4.6405616,16.934189,4.3819876,-3.3481262,-0.5320996,0.5448828
1613,A,178482469507058,-0.11611878,13.529036,1.6753427,-2.5017736,0.34328148,1.5153387
1613,A,178482508121746,-2.8233624,5.9663506,1.3904326,-1.732919,0.9235843,1.5227956
1613,A,178482549525236,-0.5883751,3.0148985,0.5907693,-1.2048141,1.77766,1.1408982
1613,A,178482591067163,-0.24839842,2.220622,1.8016368,-0.4111921,1.5534219,0.7880294
1613,A,178482631218153,-1.6699557,2.7736826,2.6952724,0.39281628,1.1190603,0.5765744
1613,A,178482668885392,-2.492364,2.8951883,4.1503487,2.018676,0.6175871,0.30626354
1613,A,178482707644089,-2.9741971,9.343372,4.3394904,2.9473205,0.24208134,-0.27537087
1613,A,178482748542631,-2.255338,19.612701,8.779537,-0.49534798,1.4668691,-0.04474111
1613,A,178482788943674,-1.4287399,10.4010105,8.347384,-1.7108147,-0.43089947,0.23276028
1613,A,178482828810965,-5.701193,6.6744356,-1.3299791,1.7627463,-0.15792546,-0.19094865
1613,A,178482868715338,0.18734628,19.612701,7.8248496,-0.3187804,0.0015978967,-0.17257284
1613,A,178482908720031,-3.3542767,3.0304608,-4.4167037,0.5502091,0.25166872,0.3520699
1613,A,178482948522575,-1.9081788,8.2115135,1.6112977,1.5603461,-1.1552793,-0.3155846
1613,A,178482988062217,0.23463176,13.165116,0.961272,1.628523,-0.96379805,0.1041296
1613,A,178483028325183,-1.1887212,7.289746,0.5518635,1.6426378,-0.799481,0.4013384
1613,A,178483067053777,0.38606504,7.855974,-0.18435353,1.7696706,-0.018642128,-0.24900557
1613,A,178483108178151,-1.0468647,9.155427,0.4830302,1.485245,0.104928546,-0.23702134
1613,A,178483148043361,-0.9331401,8.929773,0.28311434,1.3273195,-0.063116916,-0.056991648
1613,A,178483187580080,-0.7410054,8.253412,1.7501614,1.2865732,-0.10066749,-0.10892329
1613,A,178483226431329,-0.107140526,9.108142,0.55605334,1.170193,-0.43223104,-0.4045342
1613,A,178483266557787,-0.17238252,11.034277,-1.0055647,0.71798825,-0.46578687,-0.376571
1613,A,178483308591798,-1.8171991,13.259687,-1.8746599,0.105993815,-0.41731736,-0.24341293
1613,A,178483346342423,-1.5119383,14.323312,0.8936358,-0.8229168,-0.22423817,-0.17603496
1613,A,178483388281017,-3.5978866,10.538078,3.5110967,-2.7840686,-1.0804445,-0.34115094
1613,A,178483428203880,-2.694674,8.692149,-1.0354922,-3.789412,-2.0847225,-0.48469532
1613,A,178483468106643,-3.0579941,12.108076,-1.287482,-2.9465215,-0.6860303,0.1768339
1613,A,178483505749767,-0.8559271,16.583439,2.2397757,-3.090066,-0.016511599,1.1110709
1613,A,178483547246485,-2.7766755,8.754997,3.1142578,-2.5707495,0.6844324,1.2538162
1613,A,178483586987110,-2.034473,4.284424,2.0009542,-1.8911108,1.4202639,0.83942837
1613,A,178483626519454,-0.5033809,3.5889084,1.6555905,-1.0849719,1.444765,0.48948902
1613,A,178483665515183,-1.7310078,2.2158337,2.207454,-0.29374668,1.2687299,0.2660498
1613,A,178483706739298,-2.0590134,3.347094,2.6366146,0.9254485,0.89508843,0.27217507
1613,A,178483746599507,-2.2601264,3.954024,5.0224366,2.3297334,0.5544701,0.20799288
1613,A,178483786550601,-0.6751649,12.023083,6.178836,2.711098,0.4213121,-0.22929817
1613,A,178483826575548,-3.417723,19.29966,6.7426705,-0.98430437,0.23382555,0.36964676
1613,A,178483866354141,-5.6467247,5.737106,7.427412,-0.6777745,-1.128115,0.41278997
1613,A,178483906214767,-3.9336734,9.348161,0.47644615,1.7659421,-0.11265171,-0.3158509
1613,A,178483946162892,-2.6503813,16.86356,4.1814733,0.041545313,-0.65194184,-0.44501424
1613,A,178483984788933,-1.5951369,3.9510314,-3.1866825,0.84422207,-0.040746365,0.043409526
1613,A,178484026306484,-0.62488663,9.246407,-1.3102269,2.0961742,-0.41039312,-0.20532973
1613,A,178484064731434,0.60094464,12.262503,1.7046716,1.5986956,-0.6263755,0.47324374
1613,A,178484104658776,-3.448249,5.300164,0.20111294,1.6974989,-0.51665324,0.23435818
1613,A,178484145960652,0.6488287,8.859743,-0.10115502,1.7289242,-0.5616607,-0.22610238
1613,A,178484184157839,-0.002992752,8.611943,-0.079008654,1.5704662,0.2727077,0.018375812
1613,A,178484224071746,-1.1372458,10.368091,2.405574,1.0034791,0.19467708,0.08229168
1613,A,178484265625443,-0.6619968,8.12233,0.8619126,0.6609966,-0.22929817,-0.02956109
1613,A,178484305575807,0.24181437,9.002797,0.11133038,0.80107886,-0.49721217,-0.16751283
1613,A,178484345367267,0.0676362,10.170568,-0.581791,0.7275756,-0.20293288,-0.20266657
1613,A,178484385379871,-1.6448165,11.811794,-1.1073183,0.299073,-0.2873551,-0.34940675
1613,A,178484425245600,-2.223615,16.035166,0.12928689,-0.6623282,-0.17763285,-0.24474451
1613,A,178484465185859,-3.6727054,11.739968,0.9636662,-2.6421223,-1.005876,-0.22663501
1613,A,178484505050183,-4.1742907,7.8344264,1.632247,-3.8219025,-2.4008398,-0.4825648
1613,A,178484545002528,-2.2744915,10.8229885,-4.4657845,-3.2075112,-1.0793792,-0.299073
1613,A,178484584616224,-0.6655881,18.747198,4.0467997,-3.195527,-0.19201392,0.84874946
1613,A,178484624918047,-2.4953568,9.355942,3.4811692,-2.5867283,0.9060074,1.1992215
1613,A,178484664705599,-2.5671828,4.601057,1.8579005,-1.6186694,1.1555456,0.87165266
1613,A,178484704572944,-0.88525605,3.733159,2.007538,-1.180313,1.442368,0.44661212
1613,A,178484744534037,-1.2198458,2.2936451,1.6472107,-0.32037827,1.2136025,0.26045716
1613,A,178484784429504,-1.9919758,3.448249,2.6437972,0.56938386,0.8929579,0.23355924
1613,A,178484824291642,-2.778471,3.7511156,5.4581814,2.1110878,0.38935417,0.18722023
1613,A,178484864184767,-0.5279215,10.639234,6.497265,2.7537086,0.2181129,-0.1768339
1613,A,178484904302733,-2.1332338,19.612701,6.405687,-0.83010733,0.39388153,0.49694586
1613,A,178484944179924,-4.4023385,3.5104983,5.0481744,-1.2298478,-0.582167,0.566987
1613,A,178484982440860,-4.404134,11.108498,2.7509377,1.412807,-0.0314253,-0.17576863
1613,A,178485023802682,-4.080917,15.264233,-0.03172317,-0.72171664,-0.3289004,-0.29481193
1613,A,178485063266224,-1.2306197,1.9925743,-2.8574798,1.1688614,0.024234766,-0.0031957934
1613,A,178485103614037,0.44651863,12.761694,0.26874915,1.9145465,-0.8364989,-0.039414786
1613,A,178485143513464,-1.9393034,10.47164,3.1316159,1.3025521,0.0974717,0.34194988
1613,A,178485182046798,-2.4917655,5.9029045,1.0881647,1.794438,-0.8029431,0.1784318
1613,A,178485223315338,0.4381389,9.087791,-0.31483752,2.0676782,-0.8793758,-0.1419465
1613,A,178485263226328,0.24420857,8.556877,0.094570965,1.5198661,0.30040458,-0.019441076
1613,A,178485303238411,-1.5640123,8.151658,0.92296475,1.3619406,0.28016454,-0.16484967
1613,A,178485341389037,-0.60333884,8.350976,0.7170634,1.346228,0.015978966,-0.10546118
1613,A,178485383181641,-1.0564415,8.690353,0.9103952,1.2828447,-0.083090626,-0.37470677
1613,A,178485422843828,-0.33399114,10.500969,-1.5891514,0.80081254,-0.47404268,-0.44368264
1613,A,178485462842786,-0.9624691,13.145963,-2.0015526,0.33129725,-0.3853594,-0.3355583
1613,A,178485502656224,-1.0474633,15.002068,0.7703344,-0.4079963,-0.13768543,-0.05566007
1613,A,178485542515965,-3.4201171,12.277467,3.5248635,-2.4940505,-0.6402239,-0.16058862
1613,A,178485582460338,-2.7084408,7.5189905,-1.6915035,-3.9079227,-1.8690065,-0.6109292
1613,A,178485621809401,-3.911527,12.186486,-0.42197806,-3.6000612,-0.80560625,-0.21864553
1613,A,178485660944403,-1.6968905,17.228077,1.9249382,-3.2354746,-0.06551377,0.928378
1613,A,178485700337996,-2.991555,8.33242,4.208408,-2.6634274,0.17283916,1.2897689
1613,A,178485741784035,-1.8118122,4.1401734,0.7086837,-1.6764599,1.3701965,0.9600696
1613,A,178485781972943,-0.50996494,2.5486276,2.6431987,-1.169394,1.6327841,0.5792375
1613,A,178485821932733,-1.721431,1.9015948,2.3612814,-0.07190535,1.1206582,0.3888215
1613,A,178485861784402,-1.9351135,2.8909986,3.0903158,1.0562097,0.82158524,0.42690474
1613,A,178485901743048,-2.0620062,3.3608606,5.055357,2.525742,0.38908786,0.3289004
1613,A,178485941597995,-1.09834,11.86686,5.2474914,3.1864724,0.11424961,-0.24474451
1613,A,178485983317474,-2.72939,19.612701,5.5707088,-1.8144116,0.7193198,0.68336713
1613,A,178486021402890,-4.541202,8.279748,10.032304,-1.5899072,0.052996907,0.31451932
1613,A,178486062693359,-3.989937,6.4260373,1.2791022,1.1422298,-0.43356264,-0.252734
1613,A,178486101212891,0.7332243,18.619108,5.204396,0.09427591,-0.19627498,-0.09534117
1613,A,178486141160443,-3.7786489,3.3363202,-3.0639796,0.34274885,0.5475459,0.2972088
1613,A,178486182368724,-1.9662381,7.9708962,2.983774,1.5009576,-0.39468047,-0.35260254
1613,A,178486220455911,-0.76195467,13.120824,1.0881647,1.751561,-1.0548781,0.3520699
1613,A,178486260891953,-1.4628572,6.693589,2.508525,1.4530207,-0.5057343,0.4596616
1613,A,178486300776640,-0.97743285,8.051102,-1.2802993,1.8551581,-0.98750013,-0.08282431
1613,A,178486338872735,0.65660983,8.527548,-0.02813187,1.4655375,-0.23169503,-0.030360037
1613,A,178486378949245,-1.5209166,9.306861,1.2479776,1.226652,0.07483483,-0.05486112
1613,A,178486420327162,0.0700304,8.514978,0.9720459,1.1334413,-0.23888555,-0.021038974
1613,A,178486460145338,0.50757074,8.617929,1.584363,1.1012172,-0.21225394,-0.12916331
1613,A,178486500011484,-0.23702596,9.183559,0.12629414,0.92305166,-0.26365295,-0.2974751
1613,A,178486539957943,-0.4866215,10.30225,-1.2593501,0.5110606,-0.55580175,-0.25859293
1613,A,178486580189974,-1.110311,13.502699,-2.3864205,-0.017044231,-0.180296,-0.2463424
1613,A,178486618583567,-1.5406688,14.305355,0.4842273,-0.6514092,-0.29827404,-0.15659387
1613,A,178486658495703,-3.019687,11.04146,3.365649,-2.4021714,-1.133175,-0.4111921
1613,A,178486699812318,-1.5837644,8.3312235,-0.91099375,-3.1734228,-2.0908477,-0.3304983
1613,A,178486739679244,-2.7449522,11.74715,-0.12509704,-3.2783513,-0.1073254,0.13662016
1613,A,178486779635912,-1.6256629,15.282189,2.8652608,-2.8698225,-0.15393071,1.0684602
1613,A,178486819496277,-2.4540567,9.309255,2.111686,-2.4082966,0.5089301,1.4564828
1613,A,178486859437787,-0.9487024,5.2965727,2.4666264,-2.1630194,1.4679344,0.97471696
1613,A,178486899291277,-0.37469256,4.4639893,1.7501614,-1.3603427,1.3627396,0.6844324
1613,A,178486939433463,-1.8004397,3.390788,3.3129766,-0.48682585,1.1973573,0.52437645
1613,A,178486978618725,-2.3882163,4.7159786,3.0029275,0.633566,0.91852427,0.32650355
1613,A,178487018986797,-2.023699,3.9875429,4.1701007,1.5893745,0.39601207,0.037550572
1613,A,178487058950024,-1.1174936,6.5505357,6.362591,2.4311998,0.34248254,-0.3552657
1613,A,178487098817214,-1.8219875,19.612701,4.007295,0.75394094,0.32437304,-0.4181163
1613,A,178487138716222,0.49799395,10.222643,11.142614,-1.0934939,-0.1272991,0.65487134
1613,A,178487178672580,-6.0381765,4.6136265,1.4634558,0.4247742,-0.4135889,0.12650016
1613,A,178487218521534,-1.0929531,11.22282,4.8482585,1.0700581,0.28842035,-0.45886266
1613,A,178487257931850,-2.8419175,7.2508397,-3.3423057,0.8785769,-0.63196814,0.14966966
1613,A,178487298372890,-3.8259344,12.408549,4.3275194,0.3749731,-0.006924219,-0.60533655
1613,A,178487341616173,-0.82719666,10.593744,-2.4378958,1.7931064,-0.93423694,0.6247776
1613,A,178487378137681,-1.050456,7.4525514,3.6074634,1.3187973,-0.30945933,0.39521313
1613,A,178487418089766,-1.352724,8.2169,-0.5686229,1.6247946,-0.9712549,-0.07057377
1613,A,178487457941068,0.94570965,8.662222,-0.50158525,1.4759239,-0.32730252,0.031158986
1613,A,178487497855754,-1.435324,8.733449,1.5885528,1.2144015,-0.046339005,-0.01917476
1613,A,178487537803306,-0.4902128,8.608353,1.0905589,1.0607371,-0.26312032,-0.06524745
1613,A,178487577636798,-0.14784196,8.374918,0.37948096,0.995756,-0.21758026,-0.18668759
1613,A,178487616082315,-0.7254431,8.378509,0.74519527,0.8969527,-0.4045342,-0.36005938
1613,A,178487657469662,-0.51235914,9.964667,-0.6913257,0.70627034,-0.75633776,-0.31931302
1613,A,178487695704557,-0.36391866,10.766725,-0.85054016,0.4564658,-0.6245113,-0.29001826
1613,A,178487737319244,-0.12150574,15.519216,-0.8194155,-0.07962852,-0.3616573,-0.23888555
1613,A,178487777180181,-1.1330559,13.062166,0.2825158,-1.1840415,-0.5185175,-0.47830373
1613,A,178487817087890,-3.0418332,10.17416,2.3780408,-2.8133633,-1.4066817,-0.6372945
1613,A,178487857033932,-2.846706,9.363124,-1.2539631,-3.3212283,-1.0226538,-0.21438447
1613,A,178487896956796,-3.093907,13.369821,2.1859062,-2.8016455,-0.8825716,0.5749765
1613,A,178487936844192,-0.9379285,14.091673,1.6071079,-2.5031052,-0.44794372,1.4588797
1613,A,178487976702838,-2.6473885,7.2191167,1.8722657,-2.1470406,1.2045478,1.2926984
1613,A,178488016606483,-1.5155296,5.4474072,2.2439656,-1.9704729,1.7968348,0.6676545
1613,A,178488056732366,-1.0348936,4.634576,2.3056161,-1.1278487,1.3291837,0.3187804
1613,A,178488096411694,-2.1027076,4.0037036,3.016694,-0.26764768,1.0913634,0.21411815
1613,A,178488136362055,-2.022502,4.188656,3.0556,0.7299725,0.70653665,0.1933455
1613,A,178488174851067,-2.0799627,3.4051533,4.753089,2.0240026,0.42876893,0.018109497
1613,A,178488215653880,-0.15263036,10.086772,5.024831,2.756638,0.5174522,-0.3086604
1613,A,178488254245911,-0.7978677,19.009962,6.2871737,-0.48815745,0.12197278,0.5028048
1613,A,178488293980703,-3.5835214,10.6637745,6.7761893,-1.0990866,-0.0743022,0.6564692
1613,A,178488334167525,-3.5571852,7.019201,2.4624364,0.7949536,-0.22690132,0.006924219
1613,A,178488374110962,-1.8255788,15.1139965,6.591836,0.11504856,0.16325177,-0.43888897
1613,A,178488415606066,-5.094861,6.4152637,-2.5318682,-0.008522116,-0.87538105,-0.18295917
1613,A,178488455553410,-0.23283611,7.656657,-0.5177461,1.8783276,-0.026365295,-0.14993598
1613,A,178488495451067,-0.39863458,15.468937,-1.0163386,1.2817794,-0.5888249,0.43809
1613,A,178488535397055,-2.5210943,6.405088,4.2341456,1.2596753,-0.37417415,0.4314321
1613,A,178488575261275,-1.5741876,7.4226236,-0.7799112,1.8277274,-1.4908376,-0.2905509
1613,A,178488615205337,1.7872716,10.258555,-0.18974048,1.4197313,-0.8807074,-0.076166406
1613,A,178488654987994,-1.6053122,8.483853,0.8230068,1.0940266,-0.01784318,-0.042077947
1613,A,178488693519243,-0.7589619,9.469068,1.5759833,0.95900434,-0.20985709,-0.1536644
1613,A,178488734877734,0.24959552,8.46889,0.8439561,0.9568738,-0.36325517,-0.03834952
1613,A,178488774879139,0.095768064,8.8806925,2.0494366,1.1193266,-0.066046394,-0.23995082
1613,A,178488814730127,-0.18195933,9.6767645,-0.79128367,0.88203895,-0.2031992,-0.3289004
1613,A,178488854591900,-0.6147113,9.734225,-1.7172412,0.4854943,-0.19600865,-0.15845808
1613,A,178488894537681,-2.285864,12.932281,-1.9746178,0.3110572,-0.1041296,-0.18056233
1613,A,178488934397055,-0.34476504,13.295002,-1.3096284,-0.3581952,-0.23622239,-0.31345406
1613,A,178488974338670,-2.9532478,11.88781,1.8513165,-1.7204021,-0.8245147,-0.25220135
1613,A,178489013597474,-2.7521348,8.5700445,0.97264445,-3.530819,-1.7156084,-0.48975533
1613,A,178489054149034,-3.5470097,10.55005,-1.4269443,-3.5944686,-1.0551444,-0.17736652
1613,A,178489094007942,-2.0536265,17.238253,2.0590134,-3.1656997,-0.14647387,0.20639499
1613,A,178489133961275,-1.3688848,11.64001,4.1934443,-2.8146951,0.7374293,1.1938951
1613,A,178489173998305,-2.9137435,5.103241,1.2258313,-1.9821908,1.4503576,0.9406285
1613,A,178489213721015,-0.8714894,2.541445,3.235165,-1.5089471,1.4080133,0.59228706
1613,A,178489252612784,-1.7340006,3.9893386,2.3505075,-0.4892227,1.1765846,0.545948
1613,A,178489293538151,-2.1296425,4.0384197,2.9634233,0.3502057,1.0077401,0.49774483
1613,A,178489333475389,-2.3259668,4.1784806,4.770447,1.4801849,0.62717444,0.36724994
1613,A,178489373347107,-2.2278047,5.599439,6.3739634,2.484463,-0.2644519,-0.07403588
1613,A,178489413296378,-2.0278888,16.80969,4.1641154,1.0942929,-0.0974717,-0.40772998
1613,A,178489453154557,-1.7525556,11.267113,9.797672,-1.7702032,0.5592638,0.22743396
1613,A,178489493105078,-4.8626237,3.750517,3.0346506,0.170176,-0.39441416,0.11318435
1613,A,178489532961951,-4.1335893,13.587693,4.8021703,1.2096078,0.076166406,-0.16618125
1613,A,178489572904972,-4.1760864,11.662156,-4.526837,-0.056459017,-0.7520767,0.18322548
1613,A,178489612765182,-2.3397336,3.3865983,1.9668367,0.8516789,-0.37364152,-0.252734
1613,A,178489652248777,1.3760674,15.1295595,-3.0885203,2.2389195,-1.052215,0.04580637
1613,A,178489691251849,-1.8794483,9.224859,3.192668,1.1275824,-0.07350325,0.3603257
1613,A,178489732391430,-2.8568811,5.787384,0.46447513,1.6833842,-0.8745821,-0.011451593
1613,A,178489772387160,-0.02932897,9.088389,0.5955577,1.6642094,-0.75820196,-0.20373182
1613,A,178489812278462,-0.6769605,8.996812,0.53450555,1.4152038,-0.34248254,0.075101145
1613,A,178489852235389,-0.46986207,9.083601,1.1025299,1.3438311,-0.046339005,0.058589544
1613,A,178489892101953,-0.004189853,8.537125,0.88944596,1.2697952,-0.008255799,-0.11824436
1613,A,178489932224348,-1.1953052,8.516175,0.84575176,1.2205267,-0.20932446,-0.34434673
1613,A,178489971898149,0.12808979,10.227431,-0.63206923,0.706004,-0.37044573,-0.33955306
1613,A,178490011992422,-0.260968,10.881647,-2.0219033,0.37763625,-0.4348942,-0.17736652
1613,A,178490051756639,-1.5089456,14.3574295,0.044891283,0.011717909,-0.016511599,-0.23435818
1613,A,178490090240285,-1.448492,14.236522,1.7405846,-1.4519554,-0.17976338,-0.14940333
1613,A,178490131563773,-3.2106245,8.408437,1.8142064,-3.3617084,-1.123854,-0.37710363
1613,A,178490171423202,-4.772841,10.079589,-1.1414356,-3.7278929,-1.32439,-0.33129725
1613,A,178490210849713,-4.068946,16.509218,2.0506337,-3.086071,-0.716923,0.40080574
1613,A,178490250798514,-2.2301989,12.160749,4.361038,-2.9441247,0.5901565,1.0349044
1613,A,178490291134921,-3.1268275,6.18961,1.287482,-1.9763318,0.55793226,0.93610114
1613,A,178490331333669,-1.4544775,3.9522285,0.9475053,-1.6735305,1.1520835,0.41971418
1613,A,178490369518463,-0.24720132,2.554613,2.7665,-0.82158524,1.3483585,0.2695119
1613,A,178490409009504,-1.8471266,2.60549,2.9005754,0.1206412,1.2556804,0.27004454
1613,A,178490450921534,-1.8375498,3.7259765,3.9366663,1.412008,0.9864349,0.31345406
1613,A,178490490636798,-2.1021092,4.927267,7.551312,2.5196168,0.37337518,0.4777711
1613,A,178490530580805,-3.2615013,18.19713,5.081693,1.118794,-0.48842376,-0.16591494
1613,A,178490570447418,-4.6519337,12.116456,8.2169,-2.1068268,1.0634003,0.2657835
1613,A,178490608991431,-5.469554,1.9339164,5.781997,0.114782244,-0.2511361,-0.13102753
1613,A,178490648974139,-5.486912,18.415602,5.4521956,0.7259777,-0.39254996,-0.24527714
1613,A,178490690945596,-1.6106992,6.5325794,1.1456255,-0.52437645,-0.7241135,0.12543489
1613,A,178490730654816,-1.3377602,1.0402806,-3.539827,2.0999026,-0.81918836,-0.03195793
1613,A,178490770559608,1.7040731,16.215929,1.0175357,2.6972497,-1.113734,-0.14807177
1613,A,178490810511898,-2.6755204,8.544906,4.0001125,1.295628,0.25513083,0.36218992
1613,A,178490848127577,-2.260725,4.730344,1.0977415,2.049569,-1.2279836,-0.03435478
1613,A,178490887939035,0.63087213,10.119692,-1.1192893,1.9190739,-0.93929696,-0.1419465
1613,A,178490927773827,-0.6691794,7.94037,0.23104046,1.4282533,0.103064336,0.061252706
1613,A,178490967486118,-1.1988965,8.367735,1.1258733,1.6002935,0.38615838,-0.13981596
1613,A,178491007382368,0.06404489,9.461885,0.8098387,1.6879115,0.28975195,-0.101999074
1613,A,178491047279972,-1.4227544,9.482835,1.6998832,1.0428939,-0.07669904,-0.12037488
1613,A,178491087834399,-0.49919105,10.439917,-1.0301052,0.33662358,-0.8447547,-0.1470065
1613,A,178491129259973,0.17058687,10.967838,-1.371279,0.18109496,-0.42850262,-0.170176
1613,A,178491167641847,-2.6276364,17.089811,-2.3301568,-0.2545982,-0.041545313,-0.29348037
1613,A,178491207373305,-1.7962499,12.6778965,-0.94092125,-1.6144083,-0.53476274,-0.25086978
1613,A,178491248827107,-4.1623197,7.7787614,3.525462,-3.5790222,-1.6676716,-0.5952165
1613,A,178491288712472,-1.5664065,8.25401,-3.4063504,-3.4064493,-1.0828413,-0.27537087
1613,A,178491326978982,-1.9416976,14.376583,2.1625626,-3.427222,0.50786483,0.3683152
1613,A,178491371411691,-0.16819267,15.376162,2.7150247,-3.1356058,0.60933125,1.3291837
1613,A,178491408551639,-3.3560722,6.4062853,2.0506337,-2.21069,0.9110674,1.6458336
1613,A,178491453144503,-0.30885202,3.1381998,1.6166847,-1.5198661,1.5278555,1.1709919
1613,A,178491486518148,-0.84335756,2.8658595,1.8734628,-0.6940198,1.4876418,0.86472845
1613,A,178491526493776,-2.086547,3.2561142,2.4947581,0.34914044,1.0599382,0.5952165
1613,A,178491566654452,-1.8806454,3.3662477,3.8624458,1.7688717,0.68336713,0.2396845
1613,A,178491608116586,-2.8963854,6.297349,5.2804117,2.543319,0.50387007,-0.11717909
1613,A,178491647395911,-2.7629087,19.612701,6.6056023,0.7747136,0.98563594,-0.3123888
1613,A,178491687823877,0.06943185,11.951257,10.237008,-2.1587584,0.50813115,0.6831008
1613,A,178491726123983,-5.33069,2.4384944,-1.1240777,1.944374,-0.51319116,0.4034689
1613,A,178491767078929,-2.1452048,16.187199,7.65127,0.96299905,-0.283893,-0.42876893
1613,A,178491807481327,-5.6760535,7.976283,-6.0088477,-0.56645435,-0.056991648,-0.12010857
1613,A,178491847390180,-3.7403417,5.607819,4.4484267,1.3576796,-0.9443569,-0.47031426
1613,A,178491887341951,3.1268275,14.455591,-3.3261447,1.8261296,-1.4106765,0.63436496
1613,A,178491926718409,-1.4251486,8.281544,3.316568,1.2460932,0.6356966,0.46898267
1613,A,178491967104502,-2.693477,5.6670756,-1.1593921,1.6173377,-0.75793564,-0.077231675
1613,A,178492006999139,0.801459,9.320028,0.9463082,1.6338494,-0.50626695,-0.257794
1613,A,178492046907055,-1.6723499,8.582016,0.58897364,1.3448963,0.088150635,-0.07643273
1613,A,178492087327263,-0.6805518,8.735245,0.50637364,1.3571469,-0.23276028,-0.11371698
1613,A,178492126724398,-0.093972415,8.46051,2.2062569,1.2610068,-0.21438447,-0.2591256
1613,A,178492166621847,-0.49081135,10.237008,-0.6655881,0.8527442,-0.6261092,-0.30493194
1613,A,178492205144608,-0.492607,11.702858,-0.97982705,0.27696875,-0.69055766,-0.39574575
1613,A,178492245994399,-0.7787141,16.801908,0.95827925,-0.5888249,-0.047404267,-0.2612561
1613,A,178492284500128,-3.1555579,12.085332,2.0811598,-2.4615598,-0.61226076,-0.18082865
1613,A,178492326279971,-3.5272577,7.925406,1.9416976,-3.8293593,-1.7563548,-0.56272596
1613,A,178492366151170,-2.7850552,10.840945,-2.3301568,-3.2543828,-1.2096078,-0.1571265
1613,A,178492406042732,-2.31639,18.166603,2.343325,-2.9222867,-0.14833808,0.7952199
1613,A,178492444885023,-2.1146786,10.779295,4.1718965,-2.2011027,0.33475935,1.6421051
1613,A,178492484082367,-1.9871874,4.7644615,0.19153613,-1.4322481,1.3707291,1.4032196
1613,A,178492525718200,0.31902736,4.1521444,1.2354081,-1.2588763,1.8618159,1.0306433
1613,A,178492565663513,-0.5315128,3.958214,1.8118122,-0.5882923,1.6945695,0.83889574
1613,A,178492605526014,-2.9203274,3.7948096,3.572149,0.48203218,1.2215921,0.7254451
1613,A,178492643949243,-2.7742813,3.6577415,3.928885,2.1132183,0.4631237,0.34168357
1613,A,178492685425544,-2.8874073,8.574833,3.8127663,2.680738,-0.3107909,-0.27164245
1613,A,178492724796900,-1.5460558,18.591576,10.090961,0.10439592,0.6135923,0.05672533
1613,A,178492766327211,5.430648,7.359776,5.453393,-0.96406436,-0.8633968,1.0021476
1613,A,178492805127833,-4.365228,5.0122614,3.4326868,1.3283848,0.072171666,0.16005598
1613,A,178492843326066,-3.9641995,16.150686,5.019444,0.4250405,-0.082025364,-0.48389637
1613,A,178492884937212,-3.764882,4.0521865,-3.2441432,0.41944787,-0.017044231,0.019973708
1613,A,178492923547888,-0.87089086,13.047801,2.813187,1.7765948,-0.7057377,-0.37017938
1613,A,178492964706013,0.6356605,11.590929,0.8523358,1.3118732,-0.12543489,0.6580671
1613,A,178493004125493,-3.1316159,5.811326,1.1480197,1.514806,-0.8127968,0.34780884
1613,A,178493042962783,0.8182184,9.269152,-1.0803835,1.6181368,-0.23089607,-0.3190467
1613,A,178493084409814,-0.7026982,8.167819,-0.20290859,1.2202604,0.26525086,-0.052464273
1613,A,178493124316535,-1.8070238,8.520366,1.6160861,1.0428939,0.109988555,-0.21331921
1613,A,178493164221586,-0.50996494,8.292916,0.47524905,1.0436928,-0.48389637,-0.32384038
1613,A,178493203539240,0.49679685,8.548497,0.53330845,1.1523498,-0.41971418,-0.51052797
1613,A,178493242362784,0.4297592,10.216059,-1.0319009,0.80107886,-0.4495416,-0.50387007
1613,A,178493282574816,-0.7990648,11.733384,-2.4809916,0.3289004,-0.4577974,-0.21278657
1613,A,178493323883513,-1.0456676,14.053366,-0.6901286,-0.07563378,-0.040746365,-0.15153387
1613,A,178493363890544,-2.6874914,13.904925,2.1272483,-1.7614148,-0.44474792,-0.31691617
1613,A,178493403690960,-3.156755,8.341399,2.1440077,-3.4711642,-1.6519588,-0.25539714
1613,A,178493443552471,-4.213795,11.346721,-1.8776526,-3.4104443,-1.3273195,-0.20479709
1613,A,178493483493513,-2.4642322,16.281769,3.685275,-3.3276198,-0.43675843,0.38029942
1613,A,178493523356794,-1.8770541,10.399215,3.639785,-2.7712855,0.21331921,0.8386294
1613,A,178493563303929,-1.654992,5.85502,1.3772645,-2.005094,0.777643,0.7318367
1613,A,178493602680075,-0.56323594,3.8139634,1.8327614,-1.6085494,1.3337111,0.35739622
1613,A,178493641252002,-1.2294226,2.4947581,1.7753005,-0.62051654,1.3483585,0.21917816
1613,A,178493682976377,-2.396596,3.317765,3.0998926,0.45193845,0.9387643,0.3336941
1613,A,178493722870701,-2.1051018,3.6936548,4.7800236,1.9507655,0.304133,0.36645097
1613,A,178493762826064,-1.5173253,6.5511346,5.5862713,2.448244,0.35979307,0.02396845
1613,A,178493802690336,-2.6862943,19.612701,7.929596,0.41598576,0.49534798,-0.16138756
1613,A,178493842638565,-3.9414546,12.849082,8.772355,-1.0165286,0.09347696,0.17603496
1613,A,178493882490335,-4.635773,4.823119,2.1799207,1.4993597,-1.107875,0.10519487
1613,A,178493922394295,-4.204817,14.394539,4.489128,1.7608821,-1.1334413,-0.41891524
1613,A,178493962346585,-1.9494787,9.030929,-1.6364368,0.35420042,-0.4002731,-0.26818034
1613,A,178494002198149,-4.56275,5.37199,-1.9949685,1.897236,-0.57124805,-0.39494678
1613,A,178494042148461,0.80684596,13.5930805,0.92176765,2.536661,-0.2657835,-0.26365295
1613,A,178494082013460,-0.2717419,10.7751045,-0.961272,2.0053604,-0.7259777,0.8863
1613,A,178494121917262,-2.6593595,5.8562174,1.3772645,0.74967986,0.48309743,0.26178873
1613,A,178494161867053,0.009576807,8.522759,0.10175357,0.752343,-1.1049455,-0.03435478
1613,A,178494200366013,-0.24361002,9.693524,0.15023616,0.80747044,-0.31025827,-0.109988555
1613,A,178494241620440,-0.08738836,8.592192,-0.08439561,0.93610114,0.15899073,0.041012682
1613,A,178494281059397,-0.29209262,8.324639,1.5251064,0.82877576,0.036751624,-0.13954964
1613,A,178494321483149,-0.664391,9.127894,-0.054468088,0.7350325,-0.33795515,-0.15472966
1613,A,178494361352368,-0.5835867,9.662399,-2.8389246,0.43089947,-0.515588,-0.21172132
1613,A,178494401281949,-1.1677719,14.360422,-3.3836055,0.10466223,-0.12330436,-0.340352
1613,A,178494441145855,-0.6805518,13.699023,-1.0899603,-0.8514126,-0.12463594,-0.19520971
1613,A,178494481095805,-4.143166,10.160394,3.5883098,-2.7875307,-0.6492787,-0.36085832
1613,A,178494520958564,-3.7708676,7.433398,-0.35673606,-4.0799627,-1.9129486,-0.7006777
1613,A,178494560901843,-3.822343,13.22557,-0.9636662,-3.2626388,-0.46205845,-0.24554345
1613,A,178494601338726,-0.705691,16.423027,2.1332338,-3.1345406,0.56432384,0.7073356
1613,A,178494640192159,-2.8951883,8.160038,3.6894648,-2.275405,0.15819177,1.2415657
1613,A,178494680623249,-1.5652094,3.942053,1.204882,-1.6255935,1.1488878,0.8974853
1613,A,178494720477682,-0.34117374,3.25372,1.9309237,-1.2285162,1.4176006,0.40719733
1613,A,178494760424186,-2.0326772,3.2794578,2.3385365,-0.2197108,1.1400993,0.32277513
1613,A,178494798914766,-2.2930467,3.8193502,3.9671922,0.89801794,0.73157036,0.5273059
1613,A,178494840230387,-2.35769,3.6014779,5.886145,2.4346619,0.00958738,0.45460162
1613,A,178494880092106,-1.3132197,11.307815,5.5282116,2.6948528,-0.15100123,-0.18269286
1613,A,178494920045752,-1.6645688,18.575415,6.487688,-1.0279802,0.3358246,0.55979645
1613,A,178494958225804,-5.647922,7.2502413,6.0381765,-0.64102286,-0.20293288,0.23435818
1613,A,178494999505439,-3.7002387,10.062231,3.1232362,1.4277207,0.01784318,-0.29001826
1613,A,178495039749657,-2.3463178,14.9308405,4.1060557,-0.29694247,-0.257794,-0.5278385
1613,A,178495079619294,-1.2988545,3.342904,-2.966416,0.4924185,0.26977822,0.011451593
1613,A,178495119527576,-0.25258827,10.035296,0.12749124,2.1100225,-0.7166567,0.07084008
1613,A,178495159544919,-0.7224504,12.752117,1.0929531,1.2120047,-0.63889235,0.47723848
1613,A,178495199334138,-2.4929626,5.4246626,2.3331497,1.5760587,-0.47963533,0.3289004
1613,A,178495239238513,-0.81402856,8.733449,-1.5412674,2.0082898,-0.96965694,-0.15792546
1613,A,178495278815595,0.724246,8.740033,-0.16160862,1.5683357,-0.1419465,-0.004261058
1613,A,178495318553773,-1.5275006,8.850166,0.53809685,1.366468,0.120907515,-0.1206412
1613,A,178495360679918,-0.17298107,8.739435,1.1563994,1.2761868,-0.035952676,-0.01571265
1613,A,178495399646273,-0.5093664,8.933365,1.4921862,1.0836402,-0.35260254,-0.22024342
1613,A,178495438801325,-0.55964464,9.8042555,-0.25079262,0.7142598,-0.69029135,-0.36432046
1613,A,178495478649397,0.25079262,11.204266,-2.3133974,0.36112466,-0.6197176,-0.20905815
1613,A,178495518619605,-1.3491327,15.22832,0.26635495,-0.30306774,-0.0777643,-0.1123854
1613,A,178495557654867,-2.8299465,12.634801,2.2272062,-2.14491,-0.6676545,-0.13422333
1613,A,178495596372575,-3.891775,8.199542,1.7543513,-3.8405447,-1.9499665,-0.57417756
1613,A,178495636577784,-3.2435448,10.436924,-3.8271315,-3.6248286,-0.9685917,-0.60054284
1613,A,178495677470856,-2.7617116,17.374722,5.8029466,-3.4671695,0.08628642,0.30652985
1613,A,178495716407470,-2.0530279,10.468048,3.9282866,-2.4596956,-0.34248254,0.99442434
1613,A,178495756149241,-2.2625206,5.650316,1.7603368,-1.751561,1.020257,0.87351686
1613,A,178495797914709,-0.59495914,3.9869444,1.0696096,-1.3821807,1.5760587,0.54435015
1613,A,178495837312730,-1.3922282,2.813187,2.231396,-0.5009406,1.2357068,0.43516052
1613,A,178495875957470,-2.2870612,3.7696705,2.759916,0.46552056,0.9419601,0.4825648
1613,A,178495915687678,-2.0416555,3.5063083,4.36044,1.8362496,0.46951532,0.40107206
1613,A,178495957322938,-1.6478093,5.542577,6.0363812,2.9449236,0.25300032,0.17204021
1613,A,178495996101949,-2.219425,19.612701,3.1842883,1.1203918,0.05486112,0.055127434
1613,A,178496037312886,-1.774702,11.183915,12.667123,-2.4572988,0.64075655,0.89828426
1613,A,178496077211897,-5.0200424,4.134786,0.18315643,0.8098673,-0.34674358,0.021837922
1613,A,178496117097678,-3.028665,16.409859,6.3206925,0.51319116,0.018375812,-0.4066647
1613,A,178496157065855,-3.9504328,5.9962783,-3.7343562,-0.34621096,-0.2066613,-0.08362326
1613,A,178496196923511,-1.1049241,8.078036,0.47644615,1.763279,-0.6508766,0.04234426
1613,A,178496236811584,0.19991584,13.785214,-0.8619126,1.5595472,-1.0684602,0.52464277
1613,A,178496276354814,-1.7830818,6.721721,4.1539397,1.2969595,-0.030626353,0.41252366
1613,A,178496316140907,-1.851915,7.3909006,-0.56682724,1.7976338,-1.0599382,-0.03888215
1613,A,178496356071325,1.7938557,9.633669,-0.0712275,1.531584,-0.51771855,0.047404267
1613,A,178496396365751,-1.3892355,8.3072815,1.0977415,1.2138689,0.08628642,-0.052996907
1613,A,178496436101635,-0.50397944,8.483255,1.2797008,1.1488878,-0.42424157,-0.12117383
1613,A,178496476206637,0.39264908,8.456321,1.6172832,1.1781825,-0.386691,-0.21012342
1613,A,178496515906377,-0.2633622,8.851962,0.4405331,0.90041476,-0.39601207,-0.3749731
1613,A,178496555854971,0.27234045,10.766127,-2.0039468,0.5022722,-0.6468818,-0.23329292
1613,A,178496594461793,-1.2312182,14.325108,-2.2697031,0.016245283,-0.08468852,-0.29454562
1613,A,178496635239345,-1.584363,13.858238,0.43155485,-1.1214571,-0.17710021,-0.25726137
1613,A,178496675494136,-2.9747956,10.430939,2.6599581,-2.667156,-0.92757905,-0.40293628
1613,A,178496714079917,-1.8106151,8.599374,-0.6254852,-3.3651705,-1.593902,-0.39601207
1613,A,178496755307209,-3.5805287,12.963405,0.32680854,-2.9683595,-0.23915187,0.33449304
1613,A,178496795371584,-1.1587936,13.351864,2.5743654,-2.57794,-0.06977482,0.99948436
1613,A,178496835153667,-2.5462334,8.249821,1.5616181,-1.7965685,0.27563718,1.2913668
1613,A,178496875025699,-1.5634137,5.683236,1.9267339,-1.9395802,1.768339,0.81039995
1613,A,178496913458877,-0.7104794,4.997896,2.7377696,-1.3443637,1.5962988,0.49667954
1613,A,178496953259241,-2.134431,4.0940847,3.0190883,-0.43702474,1.2034825,0.39734364
1613,A,178496997160231,-2.8616695,4.0821137,3.8265328,0.8277105,0.5320996,0.27057716
1613,A,178497033224033,-1.6466122,3.5523968,3.8307228,1.959554,0.30652985,-0.017044231
1613,A,178497073084345,0.51355624,8.199542,6.293159,2.5100293,0.46019423,-0.25007084
1613,A,178497112906220,-0.6368576,19.612701,6.417658,0.07856325,-0.16378441,0.4316984
1613,A,178497153096846,-1.9357121,11.461642,8.5299425,-1.2428973,-0.25699505,0.6583334
1613,A,178497192977835,-4.484938,8.013393,0.5554548,1.4687333,0.3291667,-0.18162759
1613,A,178497232901012,-0.8403648,17.525557,8.469488,0.068176925,-0.16964336,-0.39947417
1613,A,178497272774709,-2.349909,3.2022448,-6.0824695,0.9603359,-0.016777916,0.15286545
1613,A,178497312395334,-0.98341835,11.426927,2.0991163,1.3864417,-0.11052119,-0.1603223
1613,A,178497352633772,-1.2378023,10.794857,0.6452374,1.5241271,-0.11851067,0.6079997
1613,A,178497392492730,-2.7162218,6.3009405,1.2988545,1.4391723,-0.7233146,0.29640985
1613,A,178497432529032,-1.06123,9.703699,-1.4036007,1.5614114,-0.9550096,-0.15606125
1613,A,178497473616584,-0.37469256,8.722076,0.45250413,1.284709,-0.38136467,-0.03488741
1613,A,178497512020907,-0.9271546,9.103952,1.1623849,1.1337076,-0.17949706,-0.1304949
1613,A,178497553391115,0.50278234,8.587403,0.6607997,0.9733854,-0.22929817,0.06364955
1613,A,178497593328406,-0.16220717,9.061455,1.5406688,0.75101143,-0.14940333,0.0039947415
1613,A,178497632844137,0.320823,9.413403,0.682946,0.45726478,-0.5070659,-0.09454222
1613,A,178497673094136,0.7374141,9.498995,-1.3425486,0.20639499,-0.5185175,2.663161E-4
1613,A,178497713039293,-1.4808137,11.853693,-2.9724014,0.099069595,-0.07084008,-0.2146508
1613,A,178497752909553,-0.878672,13.393165,-0.41000703,-0.45353633,-0.06870956,-0.14567491
1613,A,178497792518823,-3.0053217,11.265916,2.7742813,-1.9006981,-0.6609966,-0.40533313
1613,A,178497832757104,-3.2848446,8.548497,1.9494787,-3.3830135,-1.9345202,-0.7203851
1613,A,178497872678303,-2.7024553,10.033501,-3.6062663,-3.2735577,-1.0500845,-0.38376153
1613,A,178497912559501,-1.8273745,16.443377,4.623802,-2.9678268,0.014114754,0.19787288
1613,A,178497952653614,-2.123657,11.461043,4.644751,-2.4740767,0.5174522,1.0338391
1613,A,178497991293355,-3.417723,5.309142,0.30526072,-1.7656758,0.5723133,0.5797702
1613,A,178498032277469,-0.92895025,4.88058,1.9069817,-1.5108113,1.2564794,0.27537087
1613,A,178498072215802,-1.1976994,4.553173,2.8395233,-0.6990798,1.180313,0.19707392
1613,A,178498110906325,-2.3145945,3.5984852,3.34051,0.28708878,0.9534117,0.21598236
1613,A,178498151990177,-1.9422961,4.5513773,4.225766,1.335309,0.51691955,0.18588865
1613,A,178498191728407,-2.4061728,4.455011,6.051345,2.5294704,0.28043085,0.24767399
1613,A,178498230349502,-0.78888947,17.509396,4.007295,1.6149409,-0.35446674,-0.12756541
1613,A,178498271700071,-1.9668367,11.230601,8.504803,-1.490305,0.73583144,0.72198296
1613,A,178498311598878,-6.634333,6.403891,4.8201265,-0.21891184,-0.6101302,0.0018642128
1613,A,178498351524552,-2.4612393,9.442133,2.0739772,1.4093449,-0.10892329,-0.13129385
1613,A,178498391451269,-2.3702598,14.387955,6.964134,0.4463458,-0.23062976,-0.5211806
1613,A,178498431317157,-3.3387144,7.7440453,-0.39983168,1.1776499,-1.0191917,-0.27989823
1613,A,178498471261011,-0.7517793,5.911284,-3.8121676,1.7385116,0.16644756,-0.27643612
1613,A,178498511124292,-0.17956513,12.725182,-0.7445967,2.0461068,-0.22024342,-0.170176
1613,A,178498551069865,-1.7657237,9.098565,2.2649148,1.8184065,0.10679276,0.47271112
1613,A,178498590926221,-2.3864205,8.74542,1.3515269,0.9158611,-0.49694586,0.15472966
1613,A,178498630667678,0.4758476,9.44752,0.5554548,0.6306366,-1.0607371,0.267914
1613,A,178498670770073,-0.42317516,8.401254,-0.12210429,0.690824,-0.27031085,0.07350325
1613,A,178498710775854,-0.24480712,8.7849245,-0.10354923,0.8498147,0.24980451,-0.028229509
1613,A,178498750545491,-0.3842694,7.671621,0.81642276,0.90920323,0.25060347,0.043675844
1613,A,178498790451271,-0.2885013,9.35235,0.99299514,0.98110855,-0.050333746,-0.07163903
1613,A,178498830395646,-0.7212533,9.859921,0.18195933,0.54621434,-0.39840892,-0.18242654
1613,A,178498870259449,0.641646,10.030508,-1.9800048,0.19307919,-0.39521313,-0.10679276
1613,A,178498910378511,-1.9500773,14.499884,-0.92895025,-0.05352954,0.17390442,-0.15925704
1613,A,178498950071479,-2.0590134,13.338098,0.16579847,-1.3915017,-0.09267801,-0.1818939
1613,A,178498989985698,-4.279037,9.3661175,2.1763294,-3.0586405,-1.2895026,-0.53130066
1613,A,178499029874500,-3.1184478,8.654441,-1.1887212,-3.7790256,-1.3989586,-0.45060685
1613,A,178499069820697,-4.1718965,14.435241,1.2695254,-3.0831416,-0.4016047,0.0974717
1613,A,178499109669293,-0.84096336,13.157934,3.3686419,-2.8996499,0.4082626,0.9507485
1613,A,178499149596897,-2.8245595,7.2101383,2.223615,-2.030394,0.39840892,1.0271813
1613,A,178499189598511,-1.3215994,4.044405,1.1546037,-1.7467674,1.2767195,0.46871635
1613,A,178499228202416,-0.7218518,4.3448777,3.210026,-0.98137486,1.3712617,0.33662358
1613,A,178499269313928,-1.9716251,3.430891,3.2788591,0.07536746,1.1472899,0.4561995
1613,A,178499308905802,-1.7645266,3.684078,3.3836055,1.2516857,0.7928231,0.46898267
1613,A,178499349232261,-1.8166006,3.776853,5.509058,2.3510387,0.32437304,0.4181163
1613,A,178499388999968,-0.4938041,11.56579,6.473323,2.417884,-0.18562233,-0.17470337
1613,A,178499428938823,-3.2998085,17.172411,5.9005103,-1.1132014,0.5523396,0.23648871
1613,A,178499468817990,-4.483143,7.809886,7.9864583,-0.97924435,-0.19867182,0.07483483
1613,A,178499508783823,-3.1597476,10.045472,2.9472623,1.2761868,-0.66579026,-0.3153183
1613,A,178499548667938,-0.82240826,17.944542,3.7415388,0.0037284256,0.12250541,-0.31318775
1613,A,178499588532365,-2.1703439,3.1094694,-1.3652935,0.26045716,0.71985245,0.44528055
1613,A,178499626944188,-2.1039047,7.153875,-0.56323594,1.9499665,-0.42690474,-0.13475595
1613,A,178499666990646,0.1400608,14.834474,0.8218097,1.8772622,-0.8708537,0.34674358
1613,A,178499708003511,-2.0027497,5.7658362,2.03148,1.6679379,-0.63889235,0.36485308
1613,A,178499748181531,-1.4401124,8.218098,-1.2186487,1.7915086,-1.160073,-0.21411815
1613,A,178499788133250,0.7751228,9.275137,-0.06703765,1.5361114,-0.4394216,0.03435478
1613,A,178499827942103,-0.8643068,9.416395,1.2324153,1.2205267,-0.09960223,0.06737798
1613,A,178499867889814,0.2681506,9.727043,1.1115081,1.046356,0.14567491,0.04181163
1613,A,178499907547417,-0.37469256,8.197148,1.0378864,0.84076,-0.26818034,-0.0061252704
1613,A,178499947730436,0.24899697,9.12131,0.3226187,0.74967986,-0.49747851,-0.14833808
1613,A,178499988422052,-0.02932897,10.027515,-1.7166426,0.39468047,-0.36645097,-0.061519023
1613,A,178500027473718,-1.7980455,14.592061,-0.931943,0.06524745,0.018908445,-0.21118867
1613,A,178500067536634,-1.0779893,14.068928,-1.0474633,-1.0812434,-0.008522116,-0.13795175
1613,A,178500106091843,-3.6804867,10.4967785,2.3319526,-2.7931235,-1.0511497,-0.3784352
1613,A,178500147168355,-2.747945,9.025542,-2.473809,-3.7031255,-1.5760587,-0.44661212
1613,A,178500187130123,-4.1144357,15.235502,3.357868,-3.0975227,0.09347696,0.09187906
1613,A,178500225772261,-1.2282255,12.40795,1.7298107,-3.1419976,0.21278657,0.81545997
1613,A,178500266900281,-2.2643163,6.201581,2.066196,-2.616556,0.60080916,0.5882923
1613,A,178500306801479,-1.073201,4.8225207,1.8261774,-2.2487733,1.4373081,0.107858025
1613,A,178500346507104,-0.6027403,3.6056678,2.782661,-1.23837,1.3467606,7.9894834E-4
1613,A,178500386649915,-1.8058267,2.8245595,2.7856536,-0.20719394,1.2663331,0.12783173
1613,A,178500426515906,-2.4492683,3.90614,3.4422636,1.0349044,1.034638,0.25859293
1613,A,178500466458407,-2.4594438,4.577115,8.397064,2.133991,0.51718587,0.535828
1613,A,178500506324708,-2.2176294,15.570691,7.144298,1.1853731,-0.4924185,-0.13262543
1613,A,178500546226583,-4.048595,7.358579,7.0329676,-1.2330436,0.8945558,0.1438107
1613,A,178500586164863,-4.9745526,8.104971,5.7562594,0.49055427,-0.28522456,-0.25885928
1613,A,178500624546167,-3.1256304,11.341932,5.1241903,1.6594157,-0.42583945,0.07084008
1613,A,178500666095802,-0.46926352,13.198037,-0.20590134,0.008522116,-0.44554687,0.20692763
1613,A,178500705887988,-4.2173862,4.12102,1.3605051,0.43249738,0.59787965,-0.1736381
1613,A,178500745747574,0.33638534,12.008718,-1.99437,2.2634206,-1.2112057,0.2330266
1613,A,178500787664135,-0.44951138,9.935339,2.1918917,1.3414342,-1.0277139,0.50999534
1613,A,178500825549865,-2.095525,6.701969,2.1470003,1.372327,-0.5339638,0.30280143
1613,A,178500865670177,-0.6907272,8.703522,0.6745663,1.6564863,-0.94994956,0.053263225
1613,A,178500905363041,0.2184709,9.494805,0.7787141,1.2532836,-0.17949706,0.021038974
1613,A,178500945313197,-1.1456255,8.670602,0.9947908,1.2495552,-0.38376153,0.009853696
1613,A,178500986823563,0.1448492,8.7538,0.6290765,1.3542174,-0.09720538,0.081226416
1613,A,178501048487833,-0.019153614,8.359954,1.1623849,1.3992249,-0.030626353,-0.15899073
1613,A,178501063197677,-1.0911574,8.2995,1.0247183,1.2522184,-0.21438447,-0.4245079
1613,A,178501104281218,0.58418524,10.1460285,-1.7345991,0.6103965,-0.4213121,-0.3323625
1613,A,178501143457834,-1.5652094,13.429676,-1.9393034,0.20293288,-0.21065605,-0.1536644
1613,A,178501186547729,-0.7338228,13.835493,0.026934769,-0.50999534,-0.1736381,-0.21997711
1613,A,178501224403352,-2.6605566,11.842918,2.0009542,-2.1430457,-0.57391125,-0.4892227
1613,A,178501264499658,-2.8921957,8.429385,0.7661445,-3.5143075,-1.478587,-0.603206
1613,A,178501304397833,-3.3482912,11.328165,-1.3365631,-3.1923313,-0.4181163,0.08522116
1613,A,178501342989290,-2.9622262,15.440207,4.061165,-2.854376,-0.5603291,0.819721
1613,A,178501384330229,-1.9285295,9.904813,3.752911,-2.2857912,0.21038973,1.2082762
1613,A,178501424454655,-1.6244658,6.5325794,0.27353755,-1.8849854,0.9651296,1.026915
1613,A,178501463981062,-0.7386112,5.5641246,2.4851813,-1.478587,1.5667377,0.90920323
1613,A,178501503924707,-1.5867572,3.3201592,2.259528,-0.49827746,1.5883093,0.8671253
1613,A,178501543784655,-1.6244658,3.5966895,3.371036,0.5792375,0.994158,0.5944176
1613,A,178501584430228,-2.0045455,3.7253778,4.326921,1.944374,0.3054646,0.22397186
1613,A,178501623803352,-1.3784616,7.8769236,4.8781857,2.5795379,0.54914385,-0.2314287
1613,A,178501662270229,-1.5765818,19.612701,6.777985,-0.037550572,0.57763964,-0.033023197
1613,A,178501703498144,0.19871874,8.180388,8.355764,-1.5614114,0.18801917,0.608266
1613,A,178501743351115,-4.69084,3.2902317,-1.3341689,1.7520937,-0.87298423,0.4114584
1613,A,178501782124186,-0.88765025,16.469114,6.757634,1.510545,-0.13129385,-0.19734024
1613,A,178501823139602,-3.9097314,7.2526355,-0.7733272,0.20213392,-0.86179894,0.44315
1613,A,178501863104083,-3.5553896,4.5783124,1.4437037,0.22796659,1.617604,-0.99442434
1613,A,178501902958875,1.6825253,15.841834,-3.4931402,1.8474349,-0.7795073,0.29933932
1613,A,178501941390333,-1.6101006,8.136096,3.3375173,1.2077435,0.44022053,0.8333031
1613,A,178501981213094,-3.0651767,6.3787518,-1.5759833,1.4825819,-0.93157375,0.07882957
1613,A,178502021731583,1.0354922,9.603143,-0.52253455,1.464206,-0.5238438,-0.083090626
1613,A,178502060814292,-0.93134445,8.097789,0.5746084,1.1984226,0.016511599,0.100933805
1613,A,178502100701948,-0.1376666,10.119692,1.1252748,1.1140003,0.18801917,0.06737798
1613,A,178502140606427,-0.07182605,8.337209,1.9835961,0.81545997,-0.07190535,-0.06338324
1613,A,178502181056635,0.53929394,8.8328085,0.587178,0.732103,-0.3685815,-0.17283916
1613,A,178502220396687,0.19153613,9.661202,-1.4251486,0.51718587,-0.24048345,-0.10279802
1613,A,178502260332156,-1.4490906,10.959458,-2.0045455,0.18508969,-0.13342437,-0.14354439
1613,A,178502300220229,-1.5460558,14.135965,0.9600749,-0.24820662,-0.047670584,-0.042876896
1613,A,178502340441843,-2.5258827,12.261306,2.475006,-1.973935,-0.58429754,-0.38376153
1613,A,178502382279915,-3.3387144,8.470087,2.622848,-3.57556,-2.1435783,-0.6346313
1613,A,178502422002417,-2.2158337,10.900202,-4.4047327,-3.4716969,-1.1590078,-0.49135324
1613,A,178502460093978,-1.887828,18.32522,6.6546836,-3.3340113,-0.2974751,0.40852892
1613,A,178502502684030,-2.27928,10.593744,4.5160627,-2.6610305,0.30599722,1.0207896
1613,A,178502539915281,-2.540248,5.6389437,0.85293436,-1.8255969,0.9470201,0.5403554
1613,A,178502579989187,-0.51714754,4.7494974,1.9722236,-1.6319852,1.4261228,0.2146508
1613,A,178502620061530,-1.5610195,3.6032736,2.203264,-0.6695187,1.2676647,0.21571605
1613,A,178502659813718,-2.1212628,3.2321723,3.305794,0.44075316,0.98563594,0.314253
1613,A,178502701082779,-2.0644004,3.9564183,4.417302,1.7702032,0.3768373,0.27137613
1613,A,178502742384083,-1.1366472,4.751293,6.997653,2.8772793,0.049534798,0.09374327
1613,A,178502781494082,-2.9747956,18.813637,2.8520927,1.824798,-0.64741445,-0.27696875
1613,A,178502820754447,-1.5304934,9.709685,9.084799,-1.9361181,1.1073424,0.567786
1613,A,178502860698405,-5.113416,3.7463272,3.7966053,0.09534117,-0.5400891,0.06391586
1613,A,178502900566010,-2.8341362,12.625823,4.073136,1.4524881,0.15792546,-0.11504856
1613,A,178502940386374,-2.142212,10.329783,1.7393875,-0.11052119,-1.0199907,0.14434333
1613,A,178502980766060,-2.8712463,4.847061,-0.676362,0.5403554,1.0250508,-0.38029942
1613,A,178503020277625,0.9828198,13.043611,-2.1386206,1.6833842,-0.63223445,0.11797804
1613,A,178503058981999,-1.6053122,9.7719345,2.979584,1.3118732,-0.4079963,0.62104917
1613,A,178503100117206,-2.0260932,7.1245456,1.3862427,1.5630093,-0.67537767,0.29507825
1613,A,178503138777936,-0.9163807,8.893262,-0.29987377,1.6716663,-1.3140037,-0.06471482
1613,A,178503180828352,0.676362,8.787319,0.095169514,1.3057479,-0.3784352,0.014647386
1613,A,178503219790957,-0.7679402,8.825027,1.0642227,1.2104068,-0.13768543,0.0031957934
1613,A,178503259698196,0.18914193,8.996812,0.9864111,1.0865698,-0.20905815,-0.013848438
1613,A,178503299773352,0.20290859,8.082825,1.4036007,1.0543455,-0.070041135,-0.08628642
1613,A,178503341094550,-0.130484,8.89446,1.3916297,0.9635317,-0.216515,-0.28442562
1613,A,178503379411688,0.10354923,10.083779,-1.0049661,0.6114618,-0.48469532,-0.13582122
1613,A,178503419366842,-1.1665748,11.525088,-2.6060886,0.32197618,-0.1073254,-0.2724414
1613,A,178503459226999,-1.0869676,14.135965,-0.5386954,-0.21278657,-0.09933591,-0.10679276
1613,A,178503499194551,-2.9867666,12.968792,1.8022354,-1.8716697,-0.7350325,-0.29614353
1613,A,178503537537624,-1.9261353,8.704719,0.008379706,-3.6296222,-1.9640813,-0.54142064
1613,A,178503578916842,-3.781043,12.389994,-2.7575219,-3.3981936,-0.76086515,-0.17257284
1613,A,178503618873197,-1.2743138,14.289194,3.6104562,-3.0980554,0.09241169,0.79442096
1613,A,178503658736842,-1.7735049,8.662222,2.5103204,-2.4988441,0.17390442,0.95234644
1613,A,178503698648144,-2.111686,5.9747305,1.3557167,-2.1193435,1.1707256,0.484429
1613,A,178503738685801,-0.87328506,5.4354362,2.2547395,-1.4807175,1.1875036,0.36938044
1613,A,178503778447467,-1.7836803,3.1501708,2.8724434,-0.47723848,1.3401027,0.44528055
1613,A,178503818020228,-1.6837224,3.4955344,3.032855,0.6961503,0.8162589,0.35926044
1613,A,178503858431946,-1.4514848,3.8367083,4.7417164,1.8506306,0.33129725,0.17257284
1613,A,178503898202831,-1.0061632,6.4326215,6.488885,2.612561,0.43888897,5.326322E-4
1613,A,178503938660384,-3.5122938,19.612701,3.3369186,0.41438788,0.10892329,-0.036751624
1613,A,178503978031946,-1.8154035,11.662755,9.5385,-1.6407735,0.66152924,0.474309
1613,A,178504017913769,-4.5860934,4.4179006,3.1591492,0.6745787,-0.6689861,-0.0396811
1613,A,178504057487520,-3.283049,14.663288,5.9370217,0.7866978,0.4612595,-0.43436158
1613,A,178504097678248,-4.0898952,11.019313,-0.7146692,0.13635385,-0.6213155,-0.007456851
1613,A,178504136217676,-0.20649989,3.027468,-3.2225955,1.237571,-0.08282431,0.02396845
1613,A,178504177489602,0.16160862,11.909956,0.59735334,1.3643374,-0.4013384,-0.15180019
1613,A,178504217389967,-1.8782512,9.636064,2.6144683,1.1877699,-0.26818034,0.5504754
1613,A,178504257291842,-1.9590555,5.9052987,2.3648727,1.2884374,-0.62317973,0.20293288
1613,A,178504298649602,0.017357962,10.052056,-1.661576,1.5654061,-0.9443569,-0.051132694
1613,A,178504337095905,-0.65660983,8.9998045,1.4736311,1.1046792,0.13422333,-0.022903185
1613,A,178504376997154,-0.81761986,8.634688,0.64823014,1.1669972,-0.0396811,-0.070307456
1613,A,178504416950748,-0.05686229,8.598177,0.7200562,1.1478225,0.012516857,-0.009853696
1613,A,178504456805332,-0.24480712,8.72088,1.6394296,1.1616709,0.026631612,-0.14780544
1613,A,178504496758768,-0.599149,8.983644,1.1133038,0.9323727,-0.33156356,-0.41092578
1613,A,178504536619706,0.623091,10.267534,-2.0512323,0.48070058,-0.49881008,-0.29694247
1613,A,178504576570853,-1.4065934,13.888165,-2.2906525,0.023702133,0.0058589545,-0.15686019
1613,A,178504616427624,-1.292869,13.402741,-0.7086837,-0.8657937,-0.017576864,-0.23009712
1613,A,178504656333197,-3.435081,11.021109,2.4049757,-2.4274714,-0.73343456,-0.44900897
1613,A,178504696282830,-3.067571,7.9673047,0.22505496,-3.445598,-1.7427727,-0.63250077
1613,A,178504734669445,-3.7062242,11.422736,-0.8984242,-3.0519826,-0.9060074,0.06711166
1613,A,178504776137576,-1.9297266,14.224551,0.52073884,-2.6045716,-0.2974751,0.69029135
1613,A,178504815873976,-1.4335283,9.797672,4.59567,-2.0168118,0.5057343,1.27379
1613,A,178504855811528,-2.3157916,6.467337,1.6765398,-1.6373115,1.3206617,0.9986854
1613,A,178504895679395,-0.91937345,5.985504,2.0895395,-1.3432984,1.5025555,0.79708415
1613,A,178504935619759,-2.2786815,4.525041,2.7096379,-0.43436158,1.3904364,0.76086515
1613,A,178504975567258,-2.5210943,3.9624038,4.0839095,0.5057343,0.70813453,0.4596616
1613,A,178505015129498,-2.0769699,4.420295,3.787627,1.5733956,0.055127434,0.02743056
1613,A,178505054758613,-1.75076,4.996699,4.140772,2.2740734,0.12703279,-0.36884782
1613,A,178505095250175,-0.56563014,15.945982,4.8398786,1.5563514,0.034088463,-0.4314321
1613,A,178505135225956,0.56802434,11.340137,9.752781,-1.117995,0.7102651,0.97924435
1613,A,178505175088197,-4.0043025,9.110536,2.7407625,-0.3834952,-1.1875036,0.39920786
1613,A,178505215026842,-3.4105403,9.683948,2.6342204,1.2250541,0.78936094,-0.19973709
1613,A,178505254889185,-1.8441339,16.498444,5.433641,-0.391751,-0.58243334,-0.24740767
1613,A,178505294849445,-2.168548,2.0536265,-1.9093759,0.40400153,0.669785,-0.1669802
1613,A,178505334721426,0.16280572,11.847707,-1.5358804,1.5917714,-0.360592,-0.2580603
1613,A,178505373137415,-0.3465607,12.593501,3.0148985,1.3001553,-0.06338324,0.56272596
1613,A,178505414551581,-2.3235726,5.33069,2.8874073,1.3267869,-0.37071204,0.31292143
1613,A,178505454413715,-0.10534488,8.765771,-1.2737153,1.71694,-0.78776306,-0.28495824
1613,A,178505494696946,0.52732295,9.865907,0.6823475,1.1704593,0.2330266,-0.013848438
1613,A,178505534817206,-1.401805,8.718486,1.596334,0.93663377,0.37390783,-0.10519487
1613,A,178505574163663,0.10235212,8.78672,0.65182143,0.93157375,0.087618,-0.0777643
1613,A,178505614024759,0.027533319,8.917204,0.8607155,1.0162623,0.10918961,-0.18908444
1613,A,178505653995905,-0.6631939,8.8088665,0.50757074,0.94542223,0.019707393,-0.36325517
1613,A,178505694706372,-0.089184016,9.8754835,-1.3132197,0.5158543,-0.15259913,-0.28842035
1613,A,178505734646684,-2.0578163,11.748946,-3.1022868,0.22343922,-0.05219796,-0.28575718
1613,A,178505772441373,-1.1665748,12.972981,-0.5021838,-0.3400857,-0.20213392,-0.17630127
1613,A,178505813548300,-2.7539306,11.35091,2.801216,-1.8194717,-0.5470133,-0.22343922
1613,A,178505853496111,-2.5923219,8.79929,1.8614918,-3.256247,-1.4548849,-0.500408
1613,A,178505893360436,-3.269881,10.805631,-1.1779473,-3.4714305,-1.2359731,-0.170176
1613,A,178505933902623,-2.610877,16.401478,2.4959552,-2.791792,-0.2479403,0.41705105
1613,A,178505974385069,-2.1278467,10.855909,5.2361193,-2.3321302,0.16005598,1.2149341
1613,A,178506013109029,-2.0919337,6.319495,1.4490906,-1.8716697,0.6924219,0.9920275
1613,A,178506052963144,-0.1364695,5.4671597,1.8806454,-1.7046895,1.4958977,0.65913236
1613,A,178506092873977,-1.5394717,4.3143516,2.379238,-0.7576693,1.2836437,0.45140582
1613,A,178506132883819,-2.1559787,3.3973722,3.6332011,0.31771514,1.0894992,0.3581952
1613,A,178506172675905,-1.5652094,4.160524,4.2940006,1.3464943,0.4809669,0.23009712
1613,A,178506212702415,-2.2756886,3.6373909,5.391742,2.6405244,0.19228023,0.15153387
1613,A,178506252494446,0.14185645,16.8055,5.065532,2.7265444,0.20905815,-0.24474451
1613,A,178506292437361,-1.9452889,15.54615,9.605537,-1.3574133,0.73316824,0.96273273
1613,A,178506332296895,-5.16968,1.690905,2.2284033,0.008788432,-0.5832323,0.4791027
1613,A,178506372213403,-3.1094694,11.485584,4.1838675,0.8114652,0.48735848,-0.5792375
1613,A,178506411779237,-3.7152026,12.641385,-0.44232875,0.29214877,-1.2575446,-0.27324033
1613,A,178506452052205,-0.42556936,6.091448,-3.6613328,1.2229236,0.32597092,0.22290659
1613,A,178506491915591,-0.5093664,11.399393,-0.18136078,1.2713932,-0.19441076,0.19893813
1613,A,178506531858247,-2.3397336,8.658031,3.084929,1.2210594,0.18642128,0.16644756
1613,A,178506571715851,-1.9500773,7.4645224,0.12090719,1.5377092,-1.3161342,-0.23808661
1613,A,178506611832622,1.6723499,10.551846,-0.75477207,1.3534185,-0.7070693,-0.08841695
1613,A,178506651195330,-0.7284359,8.511387,1.0462662,1.0796455,0.19627498,0.08894958
1613,A,178506691436632,-0.5117606,9.128492,1.567005,0.97072226,-0.04580637,-0.079095885
1613,A,178506731376528,0.035913024,8.576629,0.7338228,0.85301054,-0.14966966,-0.083090626
1613,A,178506771240488,0.24839842,8.625112,1.055843,0.92065483,-0.08442221,-0.12436963
1613,A,178506811318507,-0.002992752,9.248202,0.5057751,0.7259777,-0.2790993,-0.23036344
1613,A,178506851087258,-0.5793968,10.391434,-0.8924387,0.2615224,-0.45486793,-0.15659387
1613,A,178506890930173,-1.5693992,13.817536,-1.0702082,-0.13315806,-0.16804546,-0.25246766
1613,A,178506930491946,-1.4550761,13.174095,0.7589619,-1.293231,-0.2263687,-0.24048345
1613,A,178506969280226,-3.4440591,9.797672,2.2290018,-3.0266826,-1.0250508,-0.5299691
1613,A,178507009446372,-3.2387564,10.169372,-1.039682,-3.5774243,-1.7022926,-0.45087317
1613,A,178507048802153,-4.6920366,14.951191,2.6018987,-2.8788772,-0.5629923,0.14141385
1613,A,178507090659966,-0.16220717,11.716026,2.5133133,-2.6202843,0.69135666,0.86366314
1613,A,178507129865330,-1.8890251,6.903082,1.9165585,-1.9387813,0.8186557,0.7278419
1613,A,178507168985070,-1.7202339,5.7059813,1.6795325,-1.6535567,1.4410365,0.58243334
1613,A,178507210203560,-1.4119805,4.4101195,2.9107506,-0.78057253,1.1989552,0.608266
1613,A,178507248897205,-2.180519,3.4967315,3.441665,0.23222765,0.96779275,0.5747102
1613,A,178507289997153,-1.9428947,4.131195,3.8337154,1.3273195,0.33795515,0.3784352
1613,A,178507329992883,-2.2278047,4.3622355,4.8458643,2.4639566,0.23062976,0.1454086
1613,A,178507369809237,-0.6805518,13.905523,6.409278,2.3398533,0.14993598,-0.304133
1613,A,178507409702518,-0.4189853,14.024635,9.038112,-1.0998856,0.43303,0.5022722
1613,A,178507449610174,-4.6321816,8.449138,3.3560722,-0.022104237,-0.9568738,0.26658243
1613,A,178507490450225,-3.0137014,8.706514,0.92775315,2.065015,0.4114584,-0.43303
1613,A,178507529427259,0.80564886,16.130335,10.084976,-0.42770368,0.272974,-0.38109836
1613,A,178507569327569,-4.0426097,2.72939,-7.07726,0.96299905,-0.2591256,-0.037284255
1613,A,178507609278351,0.32621,13.716381,-2.259528,1.9904467,0.15286545,-0.2213087
1613,A,178507649149602,-1.3012487,10.7433815,0.82599956,1.9451729,0.3720436,0.7390272
1613,A,178507689032778,-4.88058,7.1580644,-0.7433996,1.6303873,0.1555286,0.23542345
1613,A,178507728978767,-0.06703765,10.646417,1.7615339,0.88230526,-0.98590225,0.0077231675
1613,A,178507768838195,0.08020575,8.167819,-0.5327099,0.545948,-0.86020106,0.1323591
1613,A,178507807380278,0.82001406,9.808446,-0.08559271,0.6154565,-0.06897587,0.007456851
1613,A,178507848685486,-0.5955577,8.376713,0.17298107,0.6575345,0.32117724,0.090014845
1613,A,178507888557153,-0.8798691,7.8853035,1.4640543,0.6354303,-0.041545313,-0.06391586
1613,A,178507928520799,-0.007182605,8.836999,0.15322891,0.7347662,-0.34807515,-0.15153387
1613,A,178507968355539,-0.06584055,10.320207,-0.9660604,0.4812332,-0.37950045,-0.11930962
1613,A,178508008293038,-1.4903905,13.210008,-3.116652,0.022903185,-0.22184132,-0.12516858
1613,A,178508047801632,-0.7673417,13.008895,-0.8038532,-0.8631305,-0.13795175,-0.047670584
1613,A,178508088063872,-3.6876693,10.776301,3.2740707,-2.5640914,-0.7821704,-0.35766253
1613,A,178508128010225,-3.0508115,8.669404,-0.17298107,-3.4655716,-2.2381206,-0.5041364
1613,A,178508167867101,-3.9971197,13.224373,-1.8842367,-3.0618365,-0.34647727,-0.12783173
1613,A,178508207770174,-0.5662287,13.793594,3.0711622,-2.9766152,-0.022370555,0.7930894
1613,A,178508246498299,-2.983774,7.9008656,3.12982,-2.3611586,0.2282329,0.7848336
1613,A,178508287705382,-1.6795325,5.5503583,0.9103952,-1.871137,0.577107,0.18881813
1613,A,178508327122622,-0.85413146,5.770026,2.6641479,-1.3078785,1.0042781,0.083090626
1613,A,178508367367466,-1.9818004,3.2213984,3.3141737,-0.23462449,1.0873687,0.14966966
1613,A,178508406154913,-1.8596961,3.6367924,3.494936,0.92944324,0.61705446,0.11424961
1613,A,178508447187256,-1.8483237,4.189853,4.8177323,2.083391,0.38615838,0.050600063
1613,A,178508485547518,-1.18094,9.113529,7.5447283,2.5465147,0.27856666,0.1635181
1613,A,178508526172779,-3.578733,18.884266,3.6337996,-0.21891184,-0.32650355,0.30280143
1613,A,178508565165487,-2.0296845,8.693346,7.9876556,-1.5598135,0.41039312,0.4295679
1613,A,178508605030695,-4.4723687,5.0320134,3.2549171,0.56219333,-0.1635181,-0.2809635
1613,A,178508644941320,-2.8808231,14.700997,6.237494,0.63010395,0.6402239,-0.3075951
1613,A,178508684906425,-3.6493618,8.6334915,-1.9375077,0.7337009,-1.0335728,0.41305628
1613,A,178508724872310,-1.7890673,4.9679685,0.39324763,0.87058735,0.25166872,-0.07829694
1613,A,178508764871685,-0.35673606,13.660716,-2.0961237,1.6775252,-0.63862604,0.07882957
1613,A,178508804916216,-1.5514427,9.182362,3.8235402,1.0748519,-0.25699505,0.56006277
1613,A,178508845743247,-1.7645266,7.1724296,1.7824832,1.4050838,-1.0388992,0.23435818
1613,A,178508884895955,0.32202014,9.294889,-0.46387658,1.5363777,-1.2695289,0.06178534
1613,A,178508925613820,0.02932897,9.102755,0.717662,1.252751,-0.27031085,0.047670584
1613,A,178508964460069,-0.5770026,8.572439,0.52373165,1.1544803,-0.28362668,-0.08841695
1613,A,178509004384496,0.1412579,9.137471,0.82121116,1.1661983,-0.20932446,-0.016777916
1613,A,178509044538299,-0.57640404,8.04751,1.1671734,1.2106731,-0.340352,-0.19813919
1613,A,178509084354809,0.492607,9.578603,0.51235914,0.89642006,-0.5454154,-0.31451932
1613,A,178509124412205,5.985504E-4,10.158598,-1.4185646,0.36618465,-0.5294364,0.0
1613,A,178509166292621,-1.5143325,12.055404,-2.3523033,-0.038083203,-0.26418558,-0.10705908
1613,A,178509206169652,0.077213004,13.573927,0.32022446,-0.5113269,-0.18375812,-0.081226416
1613,A,178509244743454,-2.1547816,11.186908,2.996942,-1.9598203,-0.7773767,-0.25513083
1613,A,178509285187413,-2.0512323,8.32404,0.3597288,-3.2264197,-1.9763318,-0.40719733
1613,A,178509325811164,-3.3626564,11.686098,-2.9514523,-3.6187034,-0.99469066,-0.30040458
1613,A,178509365657048,-1.3754689,16.260818,4.26527,-3.268764,0.35926044,0.57098174
1613,A,178509403800330,-1.8106151,10.107721,4.209605,-2.410427,0.4359595,1.1496867
1613,A,178509445613924,-1.7136499,6.5188127,1.0265139,-1.7997643,1.267931,0.8492821
1613,A,178509485513871,-0.60573304,5.41329,2.2828712,-1.4524881,1.4876418,0.60533655
1613,A,178509525475591,-1.9195513,4.526837,2.802413,-0.65460503,1.4727281,0.63196814
1613,A,178509563394341,-2.505532,3.6284127,4.1413703,0.45833004,0.74648404,0.38802257
1613,A,178509605227985,-1.8818425,4.472967,3.4979286,1.4226607,0.041012682,0.016511599
1613,A,178509645139600,-2.1098902,4.784812,4.3819876,2.1089573,-0.111852765,-0.39468047
1613,A,178509685166997,-1.1067197,11.068993,5.439028,2.5108283,-0.18375812,-0.608266
1613,A,178509724936317,0.94211835,17.753006,4.6621094,-0.5765744,0.7592673,0.28016454
1613,A,178509764854758,-1.4856021,10.287885,5.547365,-0.85540736,-0.08548747,0.7432883
1613,A,178509804799548,-3.8121676,7.3106947,4.255095,0.26498455,0.0010652645,0.23329292
1613,A,178509844666266,-1.2641385,13.948619,7.401076,-0.1555286,1.7811222,-0.057790596
1613,A,178509884661007,-4.5645456,7.793725,0.13467385,0.05752428,-1.7555559,0.19600865
1613,A,178509924460695,-2.9622262,3.3375173,-1.1306617,1.091896,0.43755737,-0.5203817
1613,A,178509964405329,0.58119243,14.769232,0.5542577,1.2306467,-0.81705785,-0.2495382
1613,A,178510004280954,-1.3251907,9.432556,4.0659533,1.1206582,-0.24154872,0.52597433
1613,A,178510044183976,-1.5747862,6.0740895,1.9135658,1.4442323,-1.1688614,0.14114754
1613,A,178510082936423,0.5919664,10.280702,-0.38965634,1.5848472,-1.1640677,-0.21731395
1613,A,178510123987256,0.48482585,9.064447,0.17477672,1.1883025,-0.09134643,0.11771172
1613,A,178510161622779,-0.99299514,8.4108305,0.6596026,1.1190603,0.4394216,-0.072970614
1613,A,178510203799494,-0.51116204,8.978855,0.3788824,1.1917646,0.2330266,-0.034621093
1613,A,178510241759810,-0.6206968,8.3408,0.5129577,1.1254519,0.294013,-0.09161274
1613,A,178510283643974,-0.4357447,9.007586,1.1540052,1.2876384,-0.09960223,-0.30040458
1613,A,178510323503923,-0.96546185,10.208278,-0.7745243,0.8974853,-0.32490566,-0.33742252
1613,A,178510363428247,-0.48482585,12.6354,-1.9764135,0.17923075,-0.12330436,-0.13928333
1613,A,178510403365849,-1.2503718,13.166314,-0.39743748,-0.47484162,-0.054594804,-0.103064336
1613,A,178510443223611,-3.093907,12.483368,1.3617022,-1.7038904,-0.6130597,-0.23542345
1613,A,178510483126526,-1.6783354,9.9928,-1.1186907,-2.9395974,-1.5195998,-0.49135324
1613,A,178510522256839,-3.2872388,11.435306,-1.4137762,-3.3105757,-0.44101948,-0.015446335
1613,A,178510561072464,-3.9630024,12.116456,3.2800562,-2.9883332,-0.35553202,0.3289004
1613,A,178510602064860,-1.7836803,10.653001,2.7994204,-2.377404,-0.3584615,0.67537767
1613,A,178510641914651,-2.8365304,7.45315,0.43275195,-2.2825954,0.9398296,0.49401638
1613,A,178510681821736,-1.2354081,5.412093,2.0644004,-1.8852518,1.2634037,0.20692763
1613,A,178510721773454,-1.882441,3.650559,4.270657,-0.71985245,0.93796533,0.15819177
1613,A,178510761616736,-2.156577,4.048595,3.6206315,0.4644553,0.5230448,0.09614012
1613,A,178510802470849,-2.0021513,4.4520183,4.224569,1.4152038,0.36005938,-0.018642128
1613,A,178510842264808,-1.6106992,4.7614684,6.0890536,2.3089607,0.10333065,-0.066312715
1613,A,178510882272776,-1.7310078,14.171879,5.5377884,1.8775285,-0.6362292,-0.33156356
1613,A,178510922073142,-1.7717092,12.178705,7.511808,-1.1422298,0.49801114,0.4101268
1613,A,178510962007100,-2.8814218,9.139865,5.063138,-0.88709897,-0.099069595,0.22343922
1613,A,178511001876109,-3.091513,8.571242,4.2425256,0.7488809,-0.24341293,-0.111852765
1613,A,178511041811840,-1.3515269,15.279796,5.7095723,0.20373182,-0.018109497,-0.010386328
1613,A,178511081945694,-3.9396589,6.4404025,-2.1625626,0.5547365,-0.042876896,0.24607609
1613,A,178511121803296,-0.5351041,6.4739213,0.01316811,1.2785836,-0.16777915,-0.27510455
1613,A,178511161711945,0.3878607,15.397111,-0.5422867,1.4146712,-0.24767399,0.19973709
1613,A,178511201443040,-2.4827871,7.506421,3.693056,1.135572,-0.39601207,0.572047
1613,A,178511241293453,-1.7040731,7.5848308,1.0564415,1.620001,-1.2341089,0.023169503
1613,A,178511281209756,0.57041854,9.7324295,-0.6691794,1.4439659,-0.9736517,-0.014114754
1613,A,178511320116736,-0.5315128,8.607754,0.79966336,1.1848404,-0.19094865,-0.007989483
1613,A,178511361063506,-0.3453636,9.268554,0.4961983,1.0988203,-0.038083203,-0.051665325
1613,A,178511400906630,-0.22864626,9.010578,0.45010993,1.0602045,0.021571605,0.015180019
1613,A,178511440822518,-1.049259,8.255806,1.6358383,0.9086706,-0.06897587,-0.18216023
1613,A,178511480772934,0.53091425,9.874885,0.25139117,0.7099988,-0.5073322,-0.18722023
1613,A,178511520629599,0.05805939,9.829993,-0.9115923,0.3834952,-0.18961707,0.012516857
1613,A,178511560576109,-1.5807717,11.418547,-2.178125,0.08868326,-0.0958738,-0.122771725
1613,A,178511600438871,-1.0462662,12.645575,0.59136784,-0.12250541,-0.041545313,-0.06338324
1613,A,178511638228923,-2.0207062,12.2241955,1.5143325,-1.1885688,-0.5898902,-0.262854
1613,A,178511680247205,-2.0320787,9.771336,0.62009823,-2.5608957,-1.2777847,-0.47271112
1613,A,178511720259599,-2.7629087,10.588956,-0.43035775,-3.3206956,-0.7073356,-0.18695392
1613,A,178511759599550,-3.180697,14.07192,1.5741876,-2.852512,-0.36804888,0.16058862
1613,A,178511799192672,-1.2467805,11.473015,3.2160115,-2.6064358,-0.008788432,0.917459
1613,A,178511839039078,-1.738789,8.207922,0.7350199,-2.1451764,0.79894835,0.84555364
1613,A,178511878991996,-1.2970588,5.7538652,3.1495724,-1.9286613,1.4122744,0.5472796
1613,A,178511918816058,-1.5586253,4.933253,2.4361002,-0.9893644,1.3217269,0.29800773
1613,A,178511957288454,-1.5717934,3.764882,3.6900635,0.05885586,0.989897,0.26498455
1613,A,178511998614964,-1.5831659,4.425083,4.0623617,1.0431602,0.35579833,0.1073254
1613,A,178512038506630,-2.0560207,4.0934863,4.799177,2.0583572,0.2548645,-0.064182185
1613,A,178512078030070,-0.20171149,9.355942,5.953781,2.2405174,-0.041012682,-0.40559945
1613,A,178512118273765,-1.0869676,16.461933,5.6120086,-0.09187906,0.31638354,0.3653857
1613,A,178512158222725,0.58418524,7.897873,9.130887,-1.3630059,0.1685781,0.5773733
1613,A,178512198062464,-3.6433764,4.5513773,2.095525,0.99042964,-0.76778936,0.17976338
1613,A,178512237632673,-1.7004818,14.896723,5.90889,0.89136004,0.93184006,-0.29214877
1613,A,178512277555537,-6.131551,10.988788,-5.079299,-0.013848438,-0.71825457,0.28202876
1613,A,178512319749443,-2.1452048,6.135142,2.2667105,0.4149205,0.48283112,-0.44687843
1613,A,178512357707568,0.90620536,15.087062,-1.690905,1.5592809,-0.5566007,0.165116
1613,A,178512397657829,-2.070386,8.653243,2.9179332,0.9912286,-0.3139867,0.5302354
1613,A,178512436091735,-1.6897079,6.8809357,0.9959879,1.5158713,-0.80747044,0.05006743
1613,A,178512477411995,0.8535329,9.742605,0.38726214,1.4570155,-0.66179556,-0.01784318
1613,A,178512515947881,-0.9816227,8.820838,0.31783026,1.2551478,0.27084348,0.009321064
1613,A,178512557418452,-0.75836337,8.940548,0.7930793,1.0905645,0.09427591,-0.1536644
1613,A,178512597201475,-0.4321534,9.019556,0.5590461,1.0154634,0.0029294773,-0.088150635
1613,A,178512635930015,-0.60333884,8.487445,1.2970588,1.0040118,-0.06391586,-0.19441076
1613,A,178512675990433,0.52492875,9.968858,-0.19033903,0.7731157,-0.29294774,-0.2050634
1613,A,178512716930328,-0.39205053,9.87668,-1.1198878,0.36139098,-0.1587244,-0.0018642128
1613,A,178512755626161,-1.4209588,11.332953,-2.0266917,0.0958738,-0.120907515,-0.09827065
1613,A,178512796738037,-0.27473465,12.424709,0.6356605,-0.180296,-0.1603223,0.075101145
1613,A,178512836812412,-1.3467385,11.414955,1.3251907,-1.1025487,-0.39734364,-0.28442562
1613,A,178512876591838,-1.9716251,10.1382475,1.1713632,-2.4666197,-0.8788432,-0.5400891
1613,A,178512916449652,-2.1751323,10.257359,-0.5374983,-3.1409323,-0.7307714,-0.26764768
1613,A,178512956390953,-3.068768,13.624205,0.27952304,-2.8477182,-0.45673212,0.15659387
1613,A,178512996237567,-1.95307,12.218808,4.848857,-2.6269422,-0.2000034,0.82371575
1613,A,178513037009286,-1.6765398,9.529521,-0.7679402,-2.0170782,0.48629323,0.8050736
1613,A,178513075733714,-0.80325466,7.025785,2.8963854,-2.091114,1.6636767,0.5797702
1613,A,178513115958869,-1.5855601,4.4184995,2.19249,-1.2333099,1.3417006,0.43382895
1613,A,178513154817203,-1.8537107,3.5871127,3.8235402,-0.19041602,1.0388992,0.31718248
1613,A,178513195766995,-1.4191631,4.3580456,3.3632548,0.81918836,0.5400891,0.01304949
1613,A,178513235720482,-1.0941502,4.3089647,3.8540661,1.6311862,0.3022688,-0.15073492
1613,A,178513275565432,-1.186327,5.3899465,5.98311,2.3965788,0.24580978,-0.29640985
1613,A,178513315529910,-1.4820108,19.612701,3.5541923,1.0932276,-0.04873585,-0.2775014
1613,A,178513355404809,-0.6691794,9.244013,9.92636,-1.4130733,0.8367652,0.83063996
1613,A,178513395394338,-4.9787426,5.871181,4.0743327,-0.15233281,-0.30679616,0.15259913
1613,A,178513436286108,-2.2619221,10.936713,3.3692403,1.1086739,0.7664578,-0.19707392
1613,A,178513474771788,-1.5975311,12.997522,3.8133647,-0.10865697,-0.5363607,0.00958738
1613,A,178513513486057,-3.283049,5.2301335,0.65660983,0.42903525,0.85034734,-0.06578008
1613,A,178513553234078,-0.7158663,10.189124,-1.3006501,1.3936322,-0.5432849,-0.0396811
1613,A,178513596177828,-0.18016368,11.84232,1.6005238,1.2263857,-0.28336033,0.314253
1613,A,178513635519441,-2.2068555,6.9623384,2.292448,1.2341089,-0.4082626,0.21891184
1613,A,178513673459599,-0.18315643,8.978855,0.40761283,1.5962988,-0.8583368,-0.14168017
1613,A,178513714527620,0.2837129,9.015367,0.25977087,1.3164005,-0.24154872,-0.0063915867
1613,A,178513756367671,-1.0462662,9.321226,1.1300632,1.2194614,0.19014971,-0.01917476
1613,A,178513794339860,-0.5129577,8.8364,0.8487445,1.1867046,0.2050634,-0.046072688
1613,A,178513834237204,-0.31064767,8.669404,0.61411273,1.1968247,0.1536644,-0.13608754
1613,A,178513874189181,-0.7966706,8.876503,0.9995792,1.0700581,0.0010652645,-0.25992453
1613,A,178513914198556,0.01616086,10.159795,0.06464344,0.58030283,-0.2412824,-0.21358553
1613,A,178513953186006,-0.5530606,9.943718,-2.0655975,0.30120352,-0.28522456,-0.16085494
1613,A,178513993892515,-2.5246856,14.006679,-0.073023155,0.005060006,0.013315806,-0.19787288
1613,A,178514033755692,-0.84934306,12.958018,0.3866636,-1.1305119,-0.36325517,-0.13182648
1613,A,178514073331631,-3.2136173,10.131064,1.5717934,-2.5515747,-1.1241204,-0.39760995
1613,A,178514114416576,-2.7341783,9.035717,-0.16340427,-3.751595,-1.8279938,-0.36298886
1613,A,178514154290014,-4.1359835,13.273455,-0.53689975,-2.8858013,-0.5406217,0.025832662
1613,A,178514194257100,-0.6242881,13.03583,3.5452142,-2.8535771,0.5134575,0.8127968
1613,A,178514231842775,-2.6743233,8.409634,2.4091654,-1.8375812,0.17869811,1.0924287
1613,A,178514272062466,-1.5041572,6.23091,1.4598645,-1.7473,1.2599416,1.0221212
1613,A,178514313910118,-1.1510124,3.9217024,2.9825768,-1.0407634,1.2676647,0.7214503
1613,A,178514353820171,-2.0452468,3.7858315,3.2740707,-0.15126756,1.0924287,0.44181845
1613,A,178514392896734,-2.1757307,5.026028,4.268862,0.84635264,0.67697555,0.15233281
1613,A,178514432761420,-2.1751323,4.855441,4.911705,1.8793929,0.13741912,0.05139901
1613,A,178514472658141,-1.2366052,8.9279785,6.0740895,1.9297266,0.20746025,-0.3584615
1613,A,178514512611629,-0.19632454,15.224729,7.5171947,-0.40187103,0.35127094,0.22450449
1613,A,178514552694547,-0.47165772,11.161768,6.4230447,-1.2335763,0.5091964,0.46392268
1613,A,178514593372984,-4.336498,6.120178,2.698864,1.2644689,-0.5225122,0.14061491
1613,A,178514633182410,-4.771045,18.204313,7.65546,0.50626695,-0.06391586,-0.32810146
1613,A,178514671091683,-4.465186,6.5762734,-3.0095115,-0.12436963,-0.9006811,-0.107858025
1613,A,178514713044181,-0.9995792,5.3941364,1.2132617,1.2381036,-0.566987,-0.32011196
1613,A,178514752854390,2.3409307,15.030798,-1.6825253,1.758219,-1.0902982,0.38402784
1613,A,178514792818297,-2.3463178,8.395866,3.1974564,1.135572,0.34621096,0.593086
1613,A,178514832977307,-2.5755625,5.595848,1.3215994,1.6077504,-1.3377059,-0.077231675
1613,A,178514872601837,1.2216414,10.314221,-1.0073603,1.7779263,-1.2234563,-0.12010857
1613,A,178514912453036,-0.22924481,8.917204,1.0402806,1.2314457,0.06737798,0.05352954
1613,A,178514952416369,-0.4405331,8.328231,0.5710171,1.2514194,0.122771725,-0.1536644
1613,A,178514992258140,0.108337626,8.53892,1.8507179,1.2673984,0.13848437,-0.12942964
1613,A,178515032178088,-0.75596917,8.626308,1.2545617,1.0125339,-0.386691,-0.43702474
1613,A,178515072683974,0.52732295,10.849325,-0.61890113,0.47271112,-1.0889666,-0.22343922
1613,A,178515112025952,-0.020350715,12.914923,-3.2429461,-0.04660532,-0.53742594,-0.07856325
1613,A,178515151873503,-0.65660983,12.579136,-0.3585317,-0.67670923,-0.05006743,-0.041279
1613,A,178515190122569,-2.973,11.246164,1.2641385,-2.138252,-0.49321744,-0.30013826
1613,A,178515231737669,-2.2774844,8.730456,-0.08140286,-3.2802155,-1.0660634,-0.4346279
1613,A,178515269738245,-3.281852,12.03625,-0.44472298,-3.1902008,-0.17923075,0.03834952
1613,A,178515311536578,-3.122039,13.940239,2.8101943,-2.8138962,-0.7209177,0.5203817
1613,A,178515351420536,-2.3720553,10.562021,1.1701661,-2.0953753,0.011984225,0.92065483
1613,A,178515391407774,-2.0685902,6.8282633,0.5201403,-2.1611552,1.5036207,0.7653925
1613,A,178515431217255,-0.42317516,4.92607,2.4558525,-1.6809874,1.8700718,0.49028796
1613,A,178515471120432,-1.3144168,4.023456,2.9963434,-0.6783071,1.3153353,0.6641924
1613,A,178515511136212,-2.1320367,3.6870706,3.3889925,0.6463492,1.0167949,0.61838603
1613,A,178515550932046,-1.4496891,4.759673,3.8905778,1.690841,0.52411014,0.32650355
1613,A,178515590824912,-1.5047557,4.2820296,6.4421983,2.6485138,0.17869811,-0.011451593
1613,A,178515630772410,-2.8353333,17.088017,2.7605145,2.108691,-0.67537767,-0.629305
1613,A,178515669820327,-0.6739678,13.994109,12.258911,-1.9185413,1.063134,0.57417756
1613,A,178515710587671,-3.7642837,1.7124528,1.9818004,-0.17923075,-0.8969527,0.2247708
1613,A,178515750629181,-1.8489223,11.8261595,1.9722236,1.1776499,1.2093415,-0.40240365
1613,A,178515790344598,-4.10845,14.116213,2.5378537,0.52863747,-0.94302535,0.020240024
1613,A,178515828114859,-2.6683378,3.7738605,-0.99658644,0.8002799,0.4063984,-0.09374327
1613,A,178515870373817,-1.1569979,9.430161,-2.7712884,1.6780578,-0.48336375,-0.35233623
1613,A,178515910065846,-0.09816227,13.017275,2.7964275,1.5443672,-0.5877597,0.32490566
1613,A,178515950017412,-1.4790181,6.142923,0.62967503,1.6663399,-0.84022737,0.3637878
1613,A,178515989875121,0.93613285,8.576629,-1.091756,1.5528892,-0.3158509,-0.08868326
1613,A,178516029875171,-0.6619968,9.406818,1.3269863,1.0591391,0.45034054,-0.05885586
1613,A,178516068601316,-1.1707647,9.985617,1.246182,0.66552395,0.03781689,-0.039414786
1613,A,178516109595953,-0.6560113,8.244433,0.29867667,0.50786483,-0.18269286,-0.03169162
1613,A,178516149542775,0.7751228,8.574235,0.46088383,0.58296597,-0.07882957,-0.07057377
1613,A,178516187306942,0.712275,9.193734,0.093972415,0.8364989,-0.05539375,0.008788432
1613,A,178516231125013,-0.99179804,9.689933,-0.41120413,0.50600064,-0.14780544,-0.31611723
1613,A,178516266959805,-0.1316811,12.891579,-2.5270798,0.11611383,-0.15100123,-0.40400153
1613,A,178516309237569,-0.9127894,13.554174,0.18914193,-0.6351639,0.11984225,-0.15819177
1613,A,178516349001784,-3.1519666,11.288661,2.3624785,-2.4426515,-0.50813115,-0.13741912
1613,A,178516388952307,-4.124611,8.75799,0.24839842,-3.91751,-1.5558188,-0.5435512
1613,A,178516428803348,-4.626795,13.657125,0.7344214,-3.304983,-1.2290488,0.00958738
1613,A,178516466481159,-1.1264719,14.586674,0.93134445,-2.9593046,0.14327806,0.7850999
1613,A,178516508661889,-1.151611,8.164826,3.1387985,-2.2090921,0.845021,1.2197278
1613,A,178516548578244,-2.0739772,4.9188876,2.0248961,-1.7614148,1.5970978,0.9254485
1613,A,178516588418556,-1.7878702,3.5715504,2.8550856,-1.3113406,1.5534219,0.5683186
1613,A,178516628260796,-2.5354595,4.672883,3.2615013,-0.19441076,1.0045444,0.5475459
1613,A,178516666274754,-2.1691468,4.8506527,3.630807,0.8700547,0.6282397,0.49827746
1613,A,178516708149597,-2.2780828,4.011485,4.748899,2.0229373,-0.004527374,0.37950045
1613,A,178516748090952,-1.702876,4.537611,4.3957543,2.9752836,-0.23808661,-0.10066749
1613,A,178516788120432,-1.2401965,17.396868,2.4486697,1.6903083,-0.23009712,-0.5422196
1613,A,178516827857512,-1.3120226,12.835914,10.585364,-1.2524847,0.7155914,0.43063316
1613,A,178516867800226,-5.0403934,3.5356374,1.240795,0.6580671,-1.4791197,0.35952675
1613,A,178516907651625,-2.4899697,12.785636,2.8712463,1.5126755,0.7850999,-0.31052458
1613,A,178516945582256,-0.83737206,11.405977,4.2610803,0.545948,-0.87990844,0.13901702
1613,A,178516987578658,-3.4201171,3.7606924,-5.310938,1.5132082,-0.38695732,-0.23835292
1613,A,178517027364546,-0.13347675,10.67395,-0.62129533,1.251952,1.1928298,-0.65061027
1613,A,178517066253556,-2.2038627,10.521319,2.432509,1.7542243,0.092944324,0.4777711
1613,A,178517107184076,-2.0608091,8.7292595,0.25737667,1.0277139,-0.8165252,0.23542345
1613,A,178517147118138,0.9780314,8.89805,0.21308395,0.60427123,-0.9712549,0.14114754
1613,A,178517186986422,0.66618663,7.8829093,-0.6087258,0.5344964,-0.06897587,0.022370555
1613,A,178517226893815,-0.42197806,9.611523,0.53929394,0.6777745,0.46818373,0.010386328
1613,A,178517269181577,-1.1923125,8.5622635,0.95827925,0.7241135,0.36298886,-0.039414786
1613,A,178517306832827,-0.2160767,8.772954,0.36032736,0.7768441,0.15765914,-0.18588865
1613,A,178517346600066,-0.5255273,9.019556,0.30226797,0.80773675,-0.1387507,-0.24900557
1613,A,178517386509442,-0.1388637,10.140042,-1.091756,0.34780884,-0.34621096,-0.18455707
1613,A,178517426511941,-1.5454572,10.433931,-1.9758149,0.20213392,-0.4250405,-0.26764768
1613,A,178517466316367,-0.7368156,14.0629425,0.47884035,-0.16325177,0.047404267,-0.16618125
1613,A,178517506220692,-2.2272062,12.100295,1.5035586,-1.6751283,-0.14780544,-0.108124346
1613,A,178517546170638,-3.8540661,9.126099,1.9991584,-3.1193607,-1.2381036,-0.5110606
1613,A,178517586019702,-3.3530796,9.203311,-0.04189853,-3.687413,-1.5225292,-0.29214877
1613,A,178517625968088,-2.5905263,15.045163,-0.24899697,-2.624279,-0.37364152,0.18508969
1613,A,178517665838140,-1.8740613,12.61445,5.803545,-2.4301345,0.6447513,1.1566108
1613,A,178517705745638,-2.743755,7.45315,1.3844471,-1.4319818,0.87511474,1.3845775
1613,A,178517745679439,-0.40761283,5.6964045,2.223615,-1.3342438,1.407747,1.2026836
1613,A,178517785547411,-0.5069722,4.490924,2.4420857,-0.7454188,1.3885722,0.84688526
1613,A,178517825500119,-2.1799207,4.3329067,3.5631707,0.1222391,0.8833706,0.54807854
1613,A,178517865350378,-3.1118636,4.607043,3.5122938,1.1534151,0.36911413,0.1717739
1613,A,178517905308608,-1.9937714,4.595072,3.7020345,2.2314627,0.02876214,-0.37603834
1613,A,178517945169858,-0.110731825,12.9005575,5.0320134,2.0857878,0.2977414,-0.56459016
1613,A,178517984111108,2.2397757,12.748526,8.747216,-0.31478566,-0.28895298,0.90148
1613,A,178518025017826,-4.2173862,9.926959,1.0660183,0.4396879,-1.380849,0.59601545
1613,A,178518064876784,-3.3482912,9.658808,1.797447,2.218946,0.8434231,-0.32197618
1613,A,178518104782567,-1.869273,14.519636,7.0275807,-0.56672066,-0.017576864,-0.4759069
1613,A,178518144731939,-3.7726634,3.6284127,-6.9545574,-0.021038974,0.33662358,-0.7187872
1613,A,178518184657463,-1.0893618,13.846267,-1.2773066,1.902296,0.3920173,-0.44501424
1613,A,178518223693659,0.5267244,12.220604,1.127669,1.8775285,-0.41998053,0.9158611
1613,A,178518263622148,-3.5715504,4.662708,-0.32920274,1.3616743,0.101999074,0.36112466
1613,A,178518304301004,0.34237084,9.816826,1.4909891,1.0082728,-0.48948902,-0.24074976
1613,A,178518342645743,-0.99179804,8.62152,-0.20290859,0.71612406,-0.4854943,-0.09880328
1613,A,178518384154648,0.23463176,9.898229,0.74998367,0.71612406,-0.20426446,-0.07403588
1613,A,178518424007879,0.45370123,8.916007,0.47465047,0.6692524,0.14088123,0.04873585
1613,A,178518463961316,-0.20530279,8.432379,1.2940661,0.5044027,0.01438107,-0.11851067
1613,A,178518503807253,0.010773907,8.998607,0.12868834,0.51265854,-0.3965447,-0.1555286
1613,A,178518543760898,-0.62847793,9.603742,-1.8273745,0.31824777,-0.46711847,-0.16777915
1613,A,178518583145379,-1.2354081,13.405734,-3.0364463,0.15499598,-0.15286545,-0.20612867
1613,A,178518621287410,-1.4065934,12.80838,-1.2108675,-0.83516735,-0.10279802,-0.21092236
1613,A,178518663469076,-3.558981,10.940305,2.3612814,-2.3750072,-0.5182512,-0.500408
1613,A,178518701095326,-3.7846344,8.261791,0.86370826,-3.7188382,-1.7867148,-0.5946839
1613,A,178518743235013,-4.1760864,12.539632,-0.30466217,-3.1798143,-1.0354371,-0.267914
1613,A,178518782444181,-0.53091425,14.062344,2.4654293,-2.8099012,-0.12170646,0.4575311
1613,A,178518823089129,-1.9578584,9.214684,3.5410242,-1.9624834,-0.096939065,0.9781791
1613,A,178518862956628,-1.4903905,4.920683,1.1402385,-1.7233316,0.8314389,0.660464
1613,A,178518902862513,-0.42078096,4.144363,2.331354,-1.1627362,1.1118698,0.36139098
1613,A,178518942793815,-2.0404584,3.9558198,2.5959132,-0.24900557,1.099353,0.37124467
1613,A,178518980739597,-2.4420857,4.261679,3.6481647,0.81013364,0.8093347,0.42797
1613,A,178519022615378,-1.9297266,3.8420951,5.1559134,2.0546288,0.1488707,0.33662358
1613,A,178519062463867,-0.19153613,6.509236,5.8903346,3.032009,-0.11132014,-0.029827405
1613,A,178519102371628,-1.9524715,19.612701,3.8367083,0.46365637,-0.022104237,-0.022370555
1613,A,178519142329961,-3.2668881,8.391677,9.518148,-1.4234596,0.4359595,0.65380603
1613,A,178519182184805,-4.8656163,5.1439424,-0.78050977,0.9337043,-1.107875,-0.054594804
1613,A,178519222093867,-2.7485435,15.234305,4.748899,1.4849787,-0.19920446,-0.39521313
1613,A,178519262031419,-2.9897594,9.882666,-1.4921862,0.38908786,-0.7305051,0.14008227
1613,A,178519301899128,-3.2064347,4.956596,-5.4114943,1.4964303,0.10519487,-0.45886266
1613,A,178519340118919,1.3862427,15.833454,0.9235633,1.902296,0.5123922,-0.13608754
1613,A,178519381125586,-3.37762,8.165425,3.347094,1.6793894,-0.9254485,1.0199907
1613,A,178519420915066,-1.508347,7.762002,0.439336,0.7504788,-0.63383234,0.07190535
1613,A,178519462778971,0.91458505,9.095572,-0.75477207,0.77444726,-1.5555524,0.1818939
1613,A,178519499185118,0.39624038,9.14585,0.33159694,0.72278196,-0.14301175,-0.080960095
1613,A,178519540508294,-0.4890157,9.010578,0.18255788,0.8357,0.13209279,0.03701794
1613,A,178519580976057,-0.82360536,8.4826565,1.0402806,0.7187872,-0.057790596,0.0055926386
1613,A,178519621088139,-0.05626374,8.960898,1.3066356,0.69055766,-0.44235107,-0.13209279
1613,A,178519660820377,0.31483752,9.626487,-0.4285621,0.5451491,-0.5134575,-0.062051654
1613,A,178519700709545,-0.3645172,9.292496,-2.7551277,0.3536678,-0.3752394,-0.07856325
1613,A,178519740657356,-1.7824832,14.074315,-1.4520833,0.22343922,-0.034088463,-0.19121496
1613,A,178519779550691,-0.84096336,13.585897,-0.16819267,-0.7768441,-0.109988555,-0.10066749
1613,A,178519820479024,-2.9628246,10.524911,2.5845408,-2.4208136,-0.9257148,-0.36245623
1613,A,178519860345691,-2.665345,8.3390045,-0.7374141,-3.9960732,-1.9481024,-0.6154565
1613,A,178519900281575,-4.349067,13.687651,-0.073621705,-3.4629085,-0.056991648,-0.386691
1613,A,178519940144075,-0.4938041,13.804368,3.799598,-3.1859398,0.087618,0.6087986
1613,A,178519980101576,-2.5809495,7.2861543,2.9251158,-2.3675501,0.37151098,0.90946954
1613,A,178520019951472,-1.7525556,4.2969937,1.3383588,-1.8346517,1.0319749,0.515588
1613,A,178520059914491,-0.61411273,4.175488,3.252523,-1.1171961,0.95234644,0.17044231
1613,A,178520100336942,-1.7471687,3.6409822,2.7862523,-0.17044231,1.0404971,0.18961707
1613,A,178520139674075,-1.9692309,3.750517,3.5972881,0.98403805,0.7057377,0.21784659
1613,A,178520179615116,-2.2577322,4.073136,5.7682304,2.1675467,-0.019441076,0.2314287
1613,A,178520219554286,-1.0295067,6.4505777,6.5206084,2.615757,-0.2876214,-0.1206412
1613,A,178520259376420,-2.5480292,18.48204,2.9233203,0.22343922,-0.04261058,-0.1571265
1613,A,178520297237513,-2.815581,12.367847,9.810242,-1.3329122,0.8181231,0.3089267
1613,A,178520336828034,-4.64535,4.69084,4.8883615,0.47137952,-0.50120693,0.04234426
1613,A,178520377312826,-3.5565867,16.797121,5.789778,0.34328148,0.60507023,-0.2298308
1613,A,178520416928346,-4.496909,7.6506715,-2.018312,0.20453078,-0.7022756,0.18775286
1613,A,178520458873503,-0.062249243,2.8449101,-1.0588357,1.1201255,-0.15286545,-0.33742252
1613,A,178520500339232,-0.004189853,14.448409,-1.1234791,1.9190739,-0.7342335,-0.11584751
1613,A,178520538704857,-2.1493945,8.950723,3.9348705,0.9882991,-0.19387813,0.70840085
1613,A,178520578656315,-2.099715,6.1650696,1.7603368,1.2631373,-1.0234529,0.26312032
1613,A,178520618507982,0.18136078,9.502586,-1.079785,1.7174727,-1.5768577,-0.015180019
1613,A,178520658403503,0.12749124,9.485229,0.94930094,1.1555456,0.04234426,0.064182185
1613,A,178520698281940,-0.6739678,8.22947,0.78769237,1.1712582,0.03009372,0.041545313
1613,A,178520737531106,-0.11552023,9.329007,0.95468795,1.114533,0.03009372,-0.05832323
1613,A,178520777397825,-0.33279404,8.520964,1.3449428,1.1302456,-0.03888215,-0.0727043
1613,A,178520817304908,-0.4866215,8.500613,0.5823896,1.1174624,-0.2298308,-0.27563718
1613,A,178520857205898,0.16400282,10.150817,-1.1893197,0.5632586,-0.45327002,-0.17949706
1613,A,178520897230950,-1.459266,10.7769,-0.36870706,0.14780544,-0.2942793,-0.16005598
1613,A,178520937014232,-0.52971715,15.215152,1.0360907,-0.18508969,-0.12676647,-0.10226539
1613,A,178520977011211,-1.7884687,12.545018,1.0714053,-1.6969663,-0.5267733,-0.3864247
1613,A,178521016820846,-3.5649664,8.945934,2.6755204,-3.5734296,-1.6064188,-0.7299725
1613,A,178521056824491,-2.3570917,9.877279,-2.882619,-3.5025895,-1.5001587,-0.45380265
1613,A,178521095726160,-2.6731262,18.69273,4.817134,-3.1156323,-0.18695392,0.22050974
1613,A,178521136532720,-2.2296004,11.68131,6.0681043,-2.7379959,1.0663297,1.0373013
1613,A,178521176475169,-3.4919431,5.535394,0.9708488,-1.6311862,1.1214571,0.84555364
1613,A,178521215004128,-0.9696517,4.9464207,1.91596,-1.4823155,1.3552827,0.46845004
1613,A,178521256283762,-1.0241197,4.4915223,2.2744915,-0.7637946,1.201352,0.40772998
1613,A,178521296259180,-2.0895395,3.104681,3.1747115,0.30599722,1.2229236,0.41705105
1613,A,178521336093815,-1.9063832,4.2317514,3.9055414,1.5121429,0.67670923,0.38109836
1613,A,178521375973970,-2.3810337,4.5513773,6.1303535,2.7443876,0.13502227,0.25992453
1613,A,178521415896627,-1.2491747,16.64808,4.420295,1.9528961,0.0013315806,-0.26391926
1613,A,178521456719179,-2.6013002,13.281236,9.227852,-1.3869743,0.47643954,0.46525425
1613,A,178521496656106,-5.505467,4.1946416,3.5751417,0.24767399,-1.1747204,0.3336941
1613,A,178521536507147,-1.9542671,10.509348,3.526659,1.6269251,-0.04234426,-0.07403588
1613,A,178521576428293,-3.9354692,15.693993,3.1998506,0.4098605,-0.69721556,-0.33848777
1613,A,178521616320064,-0.64703304,4.4885297,-0.7182605,0.43809,-0.19760656,-0.20453078
1613,A,178521654159023,-1.733402,6.817489,-4.2544966,2.032791,0.525708,-0.360592
1613,A,178521696412825,1.8082209,15.853207,2.8179753,1.9299929,0.13741912,0.35952675
1613,A,178521736033865,-4.494515,6.997653,0.20051439,1.8042917,-0.44661212,0.6823019
1613,A,178521773904232,-0.7134721,8.698733,1.4664485,0.9555422,0.018908445,-0.050333746
1613,A,178521814986054,0.30286652,9.144653,-0.20350714,0.6061355,-0.7635283,0.13342437
1613,A,178521854796106,-0.16819267,8.796297,0.16699557,0.62238073,0.02743056,0.015180019
1613,A,178521893412824,0.14844051,8.79091,0.3196259,0.74941355,0.2394182,0.096939065
1613,A,178521933218293,-0.39444473,8.439561,1.3628993,0.8231831,0.23036344,0.0010652645
1613,A,178521972927147,-0.7386112,8.707113,0.46746787,0.871919,-0.15126756,-0.20559604
1613,A,178522012771574,-0.8631097,9.7324295,-2.0171149,0.5110606,-0.33529198,-0.35127094
1613,A,178522052860689,-1.3940239,14.50587,-2.2762873,0.12357068,-0.08069378,-0.21225394
1613,A,178522092902460,-0.6973112,14.180857,-0.6398504,-0.7864315,-0.13022858,-0.023702133
1613,A,178522132520481,-3.7870286,10.326192,3.0681696,-2.8818066,-0.67990506,-0.28149614
1613,A,178522172382876,-3.7421372,8.341399,-0.6721721,-4.0658484,-1.9792614,-0.52331114
1613,A,178522212296001,-4.4657845,13.974357,-0.0712275,-3.556119,-0.37444046,-0.22343922
1613,A,178522252193658,0.33159694,14.590864,1.678934,-3.035471,0.4165184,0.8876316
1613,A,178522292229595,-2.8993783,7.467515,3.015497,-2.2498386,0.61625546,1.1310445
1613,A,178522332241418,-1.7764976,3.8361096,0.98102415,-1.7920412,1.360609,0.7054714
1613,A,178522372276054,-0.48961425,3.1244333,2.8634653,-1.259409,1.4421017,0.13635385
1613,A,178522412244595,-1.8064252,3.9498343,2.385822,-0.2647182,1.0575413,0.14567491
1613,A,178522452161001,-2.1853075,3.9145198,3.5757403,0.94515586,0.80800307,0.4215784
1613,A,178522493985064,-2.979584,4.198831,5.9304376,2.219745,0.049534798,0.5651228
1613,A,178522531818137,-0.84096336,6.8545995,6.4427967,2.8365328,-0.32783514,0.009853696
1613,A,178522572049752,-3.1465795,19.065626,3.3650506,0.07536746,0.01784318,-0.07084008
1613,A,178522611910741,-3.6948519,10.870275,10.018537,-1.3052152,0.49481535,0.1736381
1613,A,178522651701626,-4.220978,7.9810715,1.8674773,1.0021476,-1.1211908,-0.07536746
1613,A,178522693720376,-4.160524,15.557523,5.843049,0.3640541,0.45513424,-0.5611281
1613,A,178522733633137,-0.92057055,6.0399723,-2.211644,0.72464615,-0.41571945,-0.048203215
1613,A,178522773577146,-1.7806876,7.001843,-6.2285156,2.3896544,-0.5997439,-0.021837922
1613,A,178522813439544,0.7727286,14.018051,1.834557,2.3214777,0.31345406,0.29614353
1613,A,178522851015690,-4.1916485,7.7009497,3.2680852,1.944374,-0.4428837,0.6372945
1613,A,178522892550168,-2.0093338,7.6710224,-0.49081135,1.0029465,-0.5970807,-0.10972224
1613,A,178522932365324,0.79607207,9.955689,0.016759412,0.7621967,-1.4644723,0.18801917
1613,A,178522972234283,-0.272939,8.388684,-0.047884032,0.732103,-0.37097836,0.03089267
1613,A,178523014293033,0.3728969,8.395866,-0.3357868,0.86898947,-0.047670584,0.15925704
1613,A,178523050985116,-0.7493851,8.656237,1.5562311,0.9259811,0.08841695,0.12809806
1613,A,178523092905741,-1.002572,8.407239,1.1599907,0.995756,-0.4910869,-0.1419465
1613,A,178523132724126,-0.61890113,10.149619,-1.9405005,0.7102651,-0.7619304,-0.36964676
1613,A,178523172578710,0.034117375,13.372813,-2.630629,0.30466563,-0.16724652,-0.31798145
1613,A,178523213996002,-1.6801311,14.356831,0.51834464,-0.68203557,0.062051654,-0.10519487
1613,A,178523252397146,-4.012682,11.055226,2.6078842,-2.8075044,-0.77125144,-0.19041602
1613,A,178523290050012,-4.0641575,7.965509,0.6183026,-3.9990027,-2.1462417,-0.45833004
