Subject-Id,Activity Label,Time stamp,Accel_x,Accel_y,Accel_z,Gyro_x,Gyro_y,Gyro_z
1644,A,1819410008602000,7.4509063,-11.718831,-0.06945557,-1.526524,2.2764702,0.23329292
1644,A,1819410028698000,5.007986,-11.266172,-0.6682105,-1.3731259,1.9728698,0.06498113
1644,A,1819410048826000,-0.9364527,-11.785892,-0.7927515,-0.4165184,0.30679616,-0.25033715
1644,A,1819410069560000,-6.231841,-12.1379595,-2.1004322,0.6689861,-1.627724,0.6679208
1644,A,1819410089720000,-8.988508,-11.160791,-3.772156,0.99708754,-1.933455,1.1941614
1644,A,1819410109996000,-4.869075,-9.881851,-0.22273682,0.41438788,-0.17470337,0.25246766
1644,A,1819410130207000,0.09101075,-9.845925,4.82357,-0.3057309,1.4945661,-0.36112466
1644,A,1819410150367000,1.5376027,-10.260264,6.6198344,-0.41545314,1.3677995,-0.058589544
1644,A,1819410169752000,0.5843848,-10.796748,6.5120583,-0.15446335,0.6018744,0.221575
1644,A,1819410189752000,-0.78556645,-10.126143,4.2511597,-0.0479369,0.19281286,0.22370553
1644,A,1819410209822000,0.05748047,-8.947793,1.3986914,-0.18535602,0.3834952,-0.03834952
1644,A,1819410229822000,0.68737066,-8.792117,-1.2478052,-0.15126756,0.7030745,-0.29827404
1644,A,1819410250311000,1.2358302,-8.600515,-3.271597,0.2545982,1.2016183,-0.6775082
1644,A,1819410270375000,2.5818312,-7.92033,-3.66438,0.87032104,1.2314457,-1.1483551
1644,A,1819410290488000,2.435735,-7.101233,-3.523074,0.97258645,0.3653857,-1.0247844
1644,A,1819410310552000,0.7783814,-7.209009,-2.3447242,0.43569317,-1.7470337,-0.010652645
1644,A,1819410330687000,0.3281177,-7.220984,-0.5125342,0.6593987,-2.0122845,1.1952267
1644,A,1819410350751000,0.36164796,-6.806646,0.8933423,0.41545314,-0.8213189,0.39095205
1644,A,1819410371112000,0.40954837,-7.089258,1.5136524,-0.1555286,-0.3057309,-0.660464
1644,A,1819410391176000,0.8334668,-7.5012016,1.6860938,-0.12250541,-0.4016047,-0.20240025
1644,A,1819410411342000,1.3699512,-7.774234,1.7339942,0.1107875,-0.84688526,-0.017044231
1644,A,1819410431406000,1.7124391,-8.298743,1.2454102,0.13102753,-0.9938917,0.06391586
1644,A,1819410451723000,2.3902297,-8.947793,0.9651929,0.14913702,-0.55287224,0.17896444
1644,A,1819410471819000,3.051255,-9.376502,0.8430469,0.094808534,0.41971418,-0.11717909
1644,A,1819410492315000,3.3793726,-9.627979,0.50774413,0.13209279,0.6870956,-0.3717773
1644,A,1819410512411000,3.6452198,-10.1189575,0.60354495,0.294013,0.28655612,-0.10652645
1644,A,1819410532587000,3.7697608,-10.638678,1.0562036,0.15446335,-0.3920173,0.34940675
1644,A,1819410552683000,3.908672,-11.472144,1.5543678,0.15659387,-1.8279938,0.051132694
1644,A,1819410572967000,3.5637891,-12.334352,2.3902297,-0.19387813,-1.6724652,0.55074173
1644,A,1819410593063000,2.0070264,-13.598922,3.412903,-0.049002163,0.24927188,1.6128104
1644,A,1819410613234000,-0.9388477,-15.011983,3.0105398,0.6956177,-1.8556907,0.3717773
1644,A,1819410633330000,-3.8368216,-14.513819,1.3388159,0.9470201,-2.3105586,-0.71159667
1644,A,1819410653595000,-5.5061502,-11.8002615,0.4766089,1.6895094,-1.1813782,-0.9108011
1644,A,1819410673691000,-4.749324,-7.814949,0.37122804,1.067395,-0.34940675,-0.71479243
1644,A,1819410693866000,-3.319497,-5.1157618,-0.17723145,-0.017044231,1.051416,-0.7073356
1644,A,1819410713962000,-1.3795313,-7.606582,-1.2334352,-0.46552056,2.0133498,-0.660464
1644,A,1819410734133000,3.1326857,-11.57992,-1.5280225,-0.5496765,1.8258632,-0.22370553
1644,A,1819410754229000,7.414981,-13.37858,-1.0154883,-0.85753787,0.56245965,0.06498113
1644,A,1819410774481000,5.5061502,-12.022999,-0.7927515,-1.2229236,-0.62744075,0.27377295
1644,A,1819410794577000,1.9016455,-8.737032,-0.6825806,-0.026631612,-0.85540736,0.165116
1644,A,1819410814806000,0.6849756,-6.344407,0.47900394,0.3898868,-1.144094,-0.03834952
1644,A,1819410834902000,0.45026368,-6.241421,1.3196558,0.08735169,1.0215886,-0.8767126
1644,A,1819410855127000,1.2406201,-7.0341725,1.6262183,1.1057445,2.082592,-1.1068097
1644,A,1819410875223000,2.1195924,-7.237749,1.8010547,1.1632688,1.2239889,-0.28016454
1644,A,1819410895351000,2.2489235,-6.9719024,0.73527104,-0.34408042,-0.88843054,0.32277513
1644,A,1819410915511000,2.335144,-7.182664,1.1400293,-0.2790993,-1.2687299,0.0777643
1644,A,1819410935639000,2.0022364,-6.9958525,0.0,0.26418558,-1.071656,-0.19813919
1644,A,1819410955855000,3.0728102,-6.847361,-0.84065187,0.101200126,-0.91825795,-0.22050974
1644,A,1819410975988000,4.3206153,-7.060518,-1.2981006,-0.26525086,-0.3174488,-0.2396845
1644,A,1819410996084000,4.655918,-7.5203614,-1.2693604,-0.3717773,0.11504856,-0.20559604
1644,A,1819411016252000,4.4571314,-8.078402,-0.59156984,-0.24394555,-0.07243799,-0.007456851
1644,A,1819411036348000,4.648733,-8.2125225,0.21315674,0.06924219,-0.37923414,0.0958738
1644,A,1819411056611000,3.9302273,-8.401729,0.80712163,0.19813919,-0.7339672,-0.05219796
1644,A,1819411076707000,3.159031,-8.947793,1.1951149,-0.10333065,-0.9406285,-0.6583334
1644,A,1819411096913000,1.8920655,-9.75252,0.91010743,-0.29933932,-0.12676647,-0.53476274
1644,A,1819411117009000,1.4226416,-10.41594,0.75203615,-0.2695119,0.1257012,-0.43036684
1644,A,1819411137223000,3.2045362,-10.796748,2.430945,-0.049002163,1.1227888,-0.47723848
1644,A,1819411157319000,4.840335,-11.129656,3.8440065,0.31851408,1.4498249,1.3763217
1644,A,1819411177508000,1.81782,-11.335628,2.2656887,0.68816084,1.4945661,2.167813
1644,A,1819411197604000,-3.4368532,-11.931988,-0.84065187,-0.10439592,-1.0929613,-0.16724652
1644,A,1819411217799000,-7.0509377,-12.937896,-1.6070582,-0.33981937,0.8905611,-0.7190535
1644,A,1819411237895000,-6.9790874,-12.427757,0.8095166,-0.5219796,1.6522251,0.128897
1644,A,1819411258085000,-0.51013917,-10.059082,9.860296,-0.45912898,-0.21198763,0.6849651
1644,A,1819411278181000,-3.032095,-11.314073,2.299219,0.09374327,-0.60720074,0.84581995
1644,A,1819411298380000,0.48139894,-11.247012,2.6512868,0.257794,-0.28229508,0.60507023
1644,A,1819411318476000,0.7711963,-10.001602,2.3974147,0.027696876,0.13741912,0.44421527
1644,A,1819411338768000,1.6429834,-9.857901,3.3147073,-0.165116,-0.4165184,0.36645097
1644,A,1819411358864000,2.0261867,-9.517808,2.8788135,-0.11717909,-0.58909124,0.10013486
1644,A,1819411379061000,1.9854712,-8.392149,0.84544194,-0.32810146,0.28122982,-0.5294364
1644,A,1819411399157000,2.076482,-7.110813,-1.0753639,-0.72651035,1.5414376,-1.1611383
1644,A,1819411419350000,2.914739,-5.975574,-1.341211,-0.30466563,1.5446335,-1.3571469
1644,A,1819411439446000,3.7146754,-5.376819,-0.07185059,1.2697952,1.2133362,-0.6178534
1644,A,1819411459673000,3.7098854,-5.5780005,0.5963599,1.2037488,-0.5965481,0.43675843
1644,A,1819411479769000,2.9817994,-6.0186844,1.2406201,-0.002130529,-1.7587516,0.51026165
1644,A,1819411499956000,2.6656568,-6.7635355,2.3327491,-0.13635385,-0.8926916,0.04261058
1644,A,1819411520052000,2.9051588,-7.27128,3.3865578,-0.22903186,-0.74781567,-0.15978967
1644,A,1819411540265000,3.3865578,-7.1635036,4.3301954,-0.44101948,-0.6466155,-0.054328486
1644,A,1819411560361000,3.290757,-7.0221977,4.3182206,-0.23648871,-0.19920446,-0.05752428
1644,A,1819411580551000,2.6608667,-6.8425713,4.8594947,-0.022370555,-0.046871636,0.024501082
1644,A,1819411600647000,2.7662477,-7.053333,6.327642,0.011717909,-0.294013,0.12783173
1644,A,1819411620844000,3.0057497,-7.8700347,5.973179,-0.010652645,-0.49960902,0.013848438
1644,A,1819411640940000,3.1925611,-7.9945755,4.89542,-0.3834952,-0.5091964,-0.62531024
1644,A,1819411661152000,3.7482057,-8.52148,3.06802,-0.9150622,0.8032094,-1.0428939
1644,A,1819411681248000,6.167176,-9.584868,0.23710695,-0.5858955,0.8202536,-0.44421527
1644,A,1819411701445000,8.183782,-9.965676,-1.7866846,0.13102753,0.43569317,-0.34514567
1644,A,1819411721541000,7.8820095,-10.650652,-0.32093263,0.5944176,1.123854,0.8213189
1644,A,1819411741805000,5.3241286,-11.884088,3.0201197,0.5635249,1.8503643,2.038916
1644,A,1819411761901000,2.692002,-13.536651,5.5684204,-0.2695119,-0.7052051,0.33768883
1644,A,1819411782108000,0.58677983,-14.418018,5.934859,-0.51026165,0.69029135,-0.6348976
1644,A,1819411802204000,-1.9279908,-12.997771,3.65959,-0.45593318,0.84368944,0.101200126
1644,A,1819411822402000,-2.208208,-12.250525,1.6334034,-0.06498113,-1.212271,0.77870834
1644,A,1819411842498000,-0.69216067,-10.856624,1.1567944,0.6487461,-1.5776566,0.94808537
1644,A,1819411862691000,-0.35685793,-8.923843,0.6849756,0.49641323,-0.8767126,1.0098706
1644,A,1819411882787000,2.198628,-8.581355,1.8274,-0.037284255,-0.9086706,0.6530071
1644,A,1819411902981000,3.5542092,-8.243657,1.7531544,-0.30146983,0.046871636,0.18642128
1644,A,1819411923077000,3.8104763,-8.104747,1.1951149,-0.41758367,0.77444726,-0.24607609
1644,A,1819411943268000,3.8128712,-8.301138,0.7759864,-0.45486793,1.0791129,-0.69029135
1644,A,1819411963364000,3.8104763,-8.169412,0.6466553,-0.29827404,1.0610034,-0.9044095
1644,A,1819411983563000,3.295547,-7.678433,0.20357667,0.36112466,0.7584683,-0.9821738
1644,A,1819412003659000,2.7566676,-7.2281694,0.16286133,1.1675298,1.2442288,-0.61678815
1644,A,1819412023854000,2.4189699,-6.943162,0.4622388,0.46019423,0.406931,-0.04261058
1644,A,1819412043950000,2.1195924,-6.7707205,0.7448511,-0.608266,-1.0620687,0.27164245
1644,A,1819412064177000,1.9040406,-6.6509695,1.1520045,-0.039414786,-0.8852348,-0.09374327
1644,A,1819412084273000,1.7244141,-6.758745,1.5591577,0.46019423,-0.5581986,-0.23648871
1644,A,1819412104468000,1.9447559,-6.919212,2.069297,0.027696876,-1.0258497,-0.010652645
1644,A,1819412124564000,2.4884255,-6.952742,2.2585034,-0.10546118,-0.9502159,0.03089267
1644,A,1819412144768000,3.06323,-7.0054326,2.074087,0.26525086,-0.624245,-0.0031957934
1644,A,1819412164864000,3.8296363,-7.2569094,2.0357666,0.3089267,-0.75633776,0.10333065
1644,A,1819412185065000,5.4486694,-7.549102,1.5711329,-0.06391586,-0.7819041,-0.07456851
1644,A,1819412205161000,8.176597,-8.073611,0.31853762,-0.7190535,-0.20559604,-0.9395633
1644,A,1819412225366000,9.280701,-8.672366,-0.3520679,-0.90973586,0.87032104,-0.9033443
1644,A,1819412245462000,6.672525,-8.638836,0.5460645,-0.406931,0.44741106,-0.34088463
1644,A,1819412265660000,5.7983427,-8.653206,0.8765772,0.02876214,0.65194184,-0.47510794
1644,A,1819412285756000,8.998089,-9.529783,0.16046631,0.2695119,1.2474247,0.77444726
1644,A,1819412305957000,9.7740755,-9.168135,-0.9508228,0.3717773,2.2125542,1.969674
1644,A,1819412326053000,4.9169755,-8.255632,1.84177,-0.32810146,-0.91825795,-0.0063915867
1644,A,1819412346250000,0.40954837,-8.461604,2.9219239,-0.32597092,-0.33449304,-1.0343717
1644,A,1819412366346000,-4.0859036,-9.453142,1.8944606,-0.13315806,2.347843,-0.098004326
1644,A,1819412386547000,-6.191126,-11.869718,2.7159522,-0.28336033,0.28655612,0.4889564
1644,A,1819412406643000,-5.733677,-15.27304,5.130132,0.28975195,-1.567004,1.0982877
1644,A,1819412426845000,1.0801538,-15.977176,7.676038,0.61891866,-1.5158713,1.1813782
1644,A,1819412446941000,2.6560767,-11.431429,3.319497,0.12037488,-1.1547467,0.87990844
1644,A,1819412467134000,1.7555494,-10.327325,2.9722195,-0.4016047,-0.18002969,0.47723848
1644,A,1819412487230000,2.7015822,-11.019485,4.679868,-0.6199839,0.58483016,0.013848438
1644,A,1819412507427000,3.2692018,-9.299861,3.9374123,-0.624245,0.6423545,-0.314253
1644,A,1819412527523000,3.7529957,-6.935977,3.5494192,-0.41864893,0.6860303,-0.46658584
1644,A,1819412547723000,3.652405,-5.575606,3.527864,-0.07989483,0.4282363,-0.62531024
1644,A,1819412567819000,3.0033545,-4.5577226,3.032095,0.59867865,0.6583334,-0.87032104
1644,A,1819412588020000,3.4440382,-4.7062135,3.0847852,1.2112057,0.9012137,-0.41545314
1644,A,1819412608116000,3.7625759,-5.46304,2.818938,0.58269966,-0.809601,0.50813115
1644,A,1819412628317000,3.5877395,-6.1552005,2.2920337,-0.21092236,-1.4998924,0.083090626
1644,A,1819412648413000,3.1422658,-6.6749196,1.7531544,0.12144015,-0.74248934,-0.43569317
1644,A,1819412668613000,2.802173,-7.048543,1.343606,0.13209279,-0.72651035,-0.07669904
1644,A,1819412688709000,2.1315675,-7.2521195,1.2765454,-0.165116,-0.7254451,0.10652645
1644,A,1819412708910000,1.7363893,-7.568262,1.4753321,-0.11717909,-0.28122982,-0.053263225
1644,A,1819412729006000,2.3064039,-7.800579,2.0046315,-0.036218993,-0.2727077,-0.06391586
1644,A,1819412749211000,3.032095,-7.9778104,2.078877,0.083090626,-0.024501082,-0.10546118
1644,A,1819412769307000,3.8655617,-8.667576,1.9734962,-0.17576863,0.0063915867,-0.32490566
1644,A,1819412789507000,5.2019825,-9.616004,1.8633252,-0.60933125,0.0777643,-0.75420725
1644,A,1819412809603000,6.5407987,-10.193204,1.5184424,-0.34940675,0.34194988,-0.30466563
1644,A,1819412829797000,6.6821046,-10.485396,1.4298267,0.084155895,-0.41758367,-0.113983296
1644,A,1819412849893000,5.7983427,-10.3440895,1.8824854,-0.11717909,-0.083090626,-0.111852765
1644,A,1819412870105000,5.3049684,-10.073453,2.7351124,0.30999196,2.1869879,1.4732608
1644,A,1819412890201000,4.639153,-10.133328,3.9709425,0.25566345,1.5680692,1.9217371
1644,A,1819412910399000,2.5004005,-10.071057,5.886958,-0.47510794,-0.10865697,-0.479369
1644,A,1819412930495000,-0.7783814,-9.855506,6.4330225,-0.11717909,2.0208068,-0.7520767
1644,A,1819412950721000,-1.6477735,-10.91171,5.0654664,-0.13102753,-0.49215218,0.69987875
1644,A,1819412970817000,-1.4897022,-13.007352,2.0980372,0.44101948,-3.1169639,1.3496901
1644,A,1819412991004000,-0.7209009,-14.02763,0.5724097,0.25246766,-2.5225463,1.019458
1644,A,1819413011100000,1.1927198,-11.908037,0.37122804,-0.39947417,-0.20772657,0.29507825
1644,A,1819413031302000,2.4261549,-9.532178,0.46463382,-0.39947417,1.4072144,-0.02130529
1644,A,1819413051398000,2.3495142,-8.602911,0.13891114,-0.4048005,0.9534117,-0.056459017
1644,A,1819413071594000,3.3697927,-8.490345,0.25147706,-0.4016047,0.27164245,-0.21092236
1644,A,1819413091690000,3.276387,-7.7407036,0.040715333,0.03834952,0.19600865,-0.32277513
1644,A,1819413111897000,2.9602442,-7.1203933,-0.12454102,0.49534798,0.23755397,-0.33129725
1644,A,1819413131993000,2.3926246,-7.1084185,-0.021555176,0.99069595,0.49960902,-0.60720074
1644,A,1819413152191000,2.4045997,-7.2593045,0.5963599,0.8852348,0.8607337,-0.5049353
1644,A,1819413172287000,2.3878345,-6.983877,0.8885523,-0.23542345,0.29933932,-0.10652645
1644,A,1819413192493000,1.8369801,-6.8832865,0.9651929,-0.97045594,0.040480047,0.27803403
1644,A,1819413212589000,1.7459693,-7.1132083,1.3891114,-0.40586576,-0.9395633,-0.37603834
1644,A,1819413232790000,1.7507594,-7.194639,1.6836988,0.40906155,-1.365669,-0.49960902
1644,A,1819413252886000,2.047742,-7.34313,1.8130299,0.28975195,-1.1685951,0.0958738
1644,A,1819413273080000,2.5004005,-7.4652762,1.7771046,-0.11717909,-0.77125144,0.1470065
1644,A,1819413293176000,3.1566358,-7.8269243,1.8992506,-0.053263225,-0.67963874,-0.11717909
1644,A,1819413313365000,4.148174,-7.810159,1.5280225,0.15126756,-1.0120013,-0.21624869
1644,A,1819413333461000,6.943162,-8.167017,0.021555176,-0.05539375,-0.5997439,-0.2609898
1644,A,1819413353662000,9.78605,-9.11784,-1.6789087,-0.8127968,-0.03834952,-0.6306366
1644,A,1819413373758000,8.044871,-9.347761,-1.2358302,-0.8671253,0.7701862,-0.6295713
1644,A,1819413393943000,6.342012,-9.292676,0.33769777,-0.18216023,0.5070659,-0.33981937
1644,A,1819413414039000,6.0019193,-8.856783,1.8130299,0.112918034,0.16298546,-0.18322548
1644,A,1819413434239000,8.176597,-9.807606,1.3483961,0.44315,1.7406421,1.4349113
1644,A,1819413454335000,6.840176,-10.3872,1.9232007,0.26844665,2.437325,2.347843
1644,A,1819413474550000,2.6081765,-9.77168,2.6656568,-0.37603834,-0.3898868,-0.37284255
1644,A,1819413494646000,-1.5376027,-9.405242,2.4501052,0.2545982,0.96619487,-0.75101143
1644,A,1819413514849000,-4.6199927,-10.9069195,2.1698878,0.020240024,0.43356264,0.34194988
1644,A,1819413534945000,-7.1299734,-13.364209,3.537444,0.054328486,-1.3443637,0.66579026
1644,A,1819413555180000,-1.9591261,-14.350958,6.128855,0.45060685,-1.6053536,0.9406285
1644,A,1819413575276000,3.03928,-11.01709,3.8392165,0.3121225,-1.0162623,0.84368944
1644,A,1819413595480000,3.1614258,-9.026829,2.8476784,-0.13635385,-0.23648871,0.37390783
1644,A,1819413615576000,3.046465,-10.41594,4.4212065,-0.31638354,0.5219796,0.13102753
1644,A,1819413635794000,3.2404616,-9.481883,4.512217,-0.3153183,0.5795039,-0.12996227
1644,A,1819413655890000,4.248765,-6.950347,4.0691385,-0.32170987,0.5368933,-0.39521313
1644,A,1819413676084000,3.3171022,-5.50136,3.4751735,-0.18109496,0.6764429,-0.6263755
1644,A,1819413696180000,2.567461,-5.1804276,4.232,0.35579833,0.42184472,-0.82877576
1644,A,1819413716383000,2.8093581,-5.829478,3.9565725,1.5393071,0.47404268,-0.59228706
1644,A,1819413736479000,2.6033864,-6.3923073,2.4812403,0.7957525,-0.28442562,0.35579833
1644,A,1819413756670000,0.9364527,-6.595884,0.5005591,-0.8969527,-0.94275904,0.73822826
1644,A,1819413776766000,-0.05269043,-7.29523,-0.25866213,-0.716923,-1.0013486,-0.25672874
1644,A,1819413796965000,1.0705738,-8.3250885,0.009580079,-0.017044231,-0.7350325,-0.38562572
1644,A,1819413817061000,2.2872438,-8.349038,-0.5029541,-0.20879184,-0.8852348,-0.010652645
1644,A,1819413837266000,3.532654,-7.8987746,-0.63707525,-0.4048005,-0.43249738,-0.03834952
1644,A,1819413857362000,4.3158255,-8.013736,-0.39996827,-0.23542345,-0.06711166,-0.23542345
1644,A,1819413877553000,4.471502,-8.3179035,0.27542725,-0.083090626,-0.4079963,-0.29933932
1644,A,1819413897649000,4.5816727,-8.370594,1.1424243,-0.22264028,-0.21624869,-0.40373522
1644,A,1819413917852000,4.7157936,-8.669971,1.8729054,-0.7307714,0.31957933,-0.6359629
1644,A,1819413937948000,4.6271777,-9.484278,2.5339308,-0.5251754,0.4878911,-0.24607609
1644,A,1819413958150000,4.2511597,-9.896221,2.8764186,-0.34834146,-0.39521313,-0.12357068
1644,A,1819413978246000,4.27032,-10.123748,3.4536183,-0.08735169,0.007456851,-0.15765914
1644,A,1819413998447000,4.7636943,-10.693763,4.0882983,0.5954828,1.9089539,0.95128113
1644,A,1819414018543000,5.2355127,-12.456497,5.029541,0.664725,2.489523,1.5456988
1644,A,1819414038758000,4.152964,-14.228811,5.611531,-0.19813919,0.2247708,-0.29188246
1644,A,1819414058854000,1.6262183,-13.002562,4.3182206,0.06924219,0.20453078,-0.50173956
1644,A,1819414079037000,0.122146,-10.243499,2.339934,0.28975195,-0.25566345,0.60720074
1644,A,1819414099133000,-0.8669971,-9.474698,0.033530276,0.41225734,-1.7246631,0.82344943
1644,A,1819414119293000,-2.198628,-9.520203,-0.94603276,0.7680557,-2.2615564,0.753142
1644,A,1819414139421000,-2.1291726,-9.980047,-0.77359134,0.777643,-1.8940402,0.6317018
1644,A,1819414159581000,0.8143067,-10.30577,1.0226734,0.40373522,-1.2399678,0.4708469
1644,A,1819414179780000,2.0405567,-9.601634,1.2645704,-0.056459017,-0.45593318,0.35899413
1644,A,1819414199871000,2.3662794,-8.717872,0.7424561,-0.28975195,0.3568636,-0.21411815
1644,A,1819414219967000,2.794988,-7.8891945,0.7089258,-0.19068234,1.6085494,-0.51026165
1644,A,1819414240154000,2.548301,-6.9719024,0.4143384,0.0,2.0772657,-0.62317973
1644,A,1819414260250000,2.1004322,-6.3899126,0.035925295,0.67324716,1.5648735,-0.737163
1644,A,1819414280427000,2.1219873,-6.480923,0.34009278,0.3323625,0.50600064,-0.34834146
1644,A,1819414300523000,2.3255641,-7.199429,1.1543995,-1.0428939,-0.056459017,0.4346279
1644,A,1819414320725000,2.335144,-7.8724294,1.6621436,-1.0812434,-0.42290998,0.56672066
1644,A,1819414340821000,2.2752686,-7.8269243,1.8920655,-0.022370555,-1.3709954,-0.1587244
1644,A,1819414361009000,2.4956105,-7.6113725,2.0309765,0.23648871,-1.546764,0.039414786
1644,A,1819414381105000,2.9961696,-7.6233473,1.8824854,-0.2130529,-0.8767126,0.12357068
1644,A,1819414401307000,3.5063088,-7.2976246,1.3699512,-0.22370553,-0.32810146,-0.1438107
1644,A,1819414421403000,4.3062453,-7.1371584,0.6227051,-0.14061491,-0.757403,-0.39414784
1644,A,1819414441608000,5.985154,-7.3958206,-0.13891114,-0.2695119,-0.700944,-0.5411543
1644,A,1819414461704000,8.4376545,-7.783814,-1.4992822,-0.52624065,0.16085494,-0.5635249
1644,A,1819414481889000,8.037686,-7.8604546,-1.8154249,-0.6018744,0.6466155,-0.60507023
1644,A,1819414501985000,6.1791506,-8.090376,-0.2802173,-0.10013486,0.45060685,-0.24501082
1644,A,1819414522185000,5.101392,-9.1130495,1.5615528,0.026631612,-0.35579833,-0.11611383
1644,A,1819414542281000,5.719307,-9.905801,1.2430152,0.257794,0.13848437,0.05752428
1644,A,1819414562484000,7.951465,-10.44468,0.28740236,0.67005134,1.639442,1.4370418
1644,A,1819414582580000,7.201824,-10.703342,0.88376224,0.43675843,1.4157364,1.4764565
1644,A,1819414602781000,3.9014869,-11.438614,2.2273684,-0.25353295,0.098004326,-0.43888897
1644,A,1819414622877000,-1.0202783,-11.06978,2.0453467,0.23329292,0.1257012,-0.4857606
1644,A,1819414643078000,-5.0822315,-11.441009,1.7411792,0.45699844,-1.0162623,0.48149952
1644,A,1819414663174000,-6.3970976,-13.012141,3.3147073,0.7105314,-1.8940402,0.67324716
1644,A,1819414683384000,-0.41194338,-13.876743,5.5708156,0.5571333,-2.2551649,0.6199839
1644,A,1819414703480000,3.427273,-10.41115,4.0044727,0.32277513,-1.5190672,0.38775626
1644,A,1819414723684000,2.5818312,-8.626861,3.032095,-0.06924219,-0.28122982,0.12144015
1644,A,1819414743780000,4.045188,-10.380015,4.8139896,-0.34408042,0.41225734,-0.09054748
1644,A,1819414763999000,3.4847536,-9.041199,3.5973196,-0.12037488,0.63915867,-0.34621096
1644,A,1819414784095000,3.4488282,-6.6461797,2.919529,0.036218993,0.6327671,-0.47191215
1644,A,1819414804361000,3.1231055,-6.1935205,3.417693,0.38029942,0.9267801,-0.7286409
1644,A,1819414824457000,1.2765454,-5.9540186,3.1949563,1.0982877,1.470065,-0.5763081
1644,A,1819414844652000,0.50534916,-6.06419,3.1542408,-0.17257284,1.144094,0.10013486
1644,A,1819414864748000,0.5748047,-6.564749,3.1470559,-1.6479641,0.7637946,0.44528055
1644,A,1819414884957000,0.71371585,-7.32876,1.9351759,-0.8522116,-0.6562029,-0.011717909
1644,A,1819414905053000,1.1424243,-7.800579,0.9244776,0.42184472,-1.3113406,-0.18109496
1644,A,1819414925256000,2.1483326,-7.92033,0.12693603,0.09374327,-1.2282499,0.112918034
1644,A,1819414945352000,2.9650342,-7.563472,-0.5484595,-0.5592638,-0.21944448,0.0479369
1644,A,1819414965547000,3.8200562,-7.30481,-0.9436377,-0.7339672,0.3323625,-0.51984906
1644,A,1819414985643000,4.5553274,-7.8484793,-1.0346485,-0.39521313,0.34834146,-0.5113269
1644,A,1819415005846000,4.5553274,-8.052056,-0.4622388,-0.17044231,0.29188246,-0.14061491
1644,A,1819415025942000,4.7636943,-7.5970025,0.21555176,-0.30253512,-0.101200126,-0.40906155
1644,A,1819415046141000,5.0415163,-7.455696,1.0346485,-0.27803403,-0.25353295,-0.8181231
1644,A,1819415066237000,4.670288,-8.416099,2.1195924,-0.21731395,-0.5400891,-0.4111921
1644,A,1819415086435000,4.3158255,-9.711804,2.9027638,-0.40266997,-0.6562029,-0.34834146
1644,A,1819415106531000,4.1960745,-10.047108,3.0225148,0.09054748,0.9438243,0.5635249
1644,A,1819415126735000,4.009263,-9.872271,2.9506643,0.15126756,3.005111,2.7824707
1644,A,1819415146831000,4.4331813,-9.730965,3.0081446,-0.1768339,1.1568772,1.0887003
1644,A,1819415167003000,4.3301954,-10.756033,3.4919386,0.25566345,0.13635385,-1.1526161
1644,A,1819415187099000,3.6092947,-12.674444,4.2080493,0.78936094,0.24714136,-0.30146983
1644,A,1819415207287000,2.1435425,-12.557088,3.9206471,0.35473305,-0.6775082,0.6125271
1644,A,1819415227383000,0.2706372,-11.215877,3.532654,0.16618125,-1.0567423,0.7126619
1644,A,1819415247583000,-0.366438,-12.545113,1.6717237,0.39734364,-1.3358417,0.5656554
1644,A,1819415267679000,-1.6262183,-12.76306,-0.40715334,0.49641323,-1.0823087,0.43036684
1644,A,1819415287895000,-0.43589357,-10.823093,-0.77359134,0.24074976,-0.54435015,0.36645097
1644,A,1819415307991000,1.1927198,-8.998089,-0.33530274,-0.20026971,-0.5070659,0.33449304
1644,A,1819415328193000,2.2585034,-8.456815,0.49576905,-0.32277513,-0.165116,0.034088463
1644,A,1819415348289000,2.318379,-8.490345,0.70174074,-0.16405073,0.9353022,-0.28549087
1644,A,1819415368486000,1.8034497,-8.078402,0.44786867,0.16831179,1.5361114,-0.3110572
1644,A,1819415388582000,1.8106349,-7.676038,0.26345217,0.55074173,1.2825783,-0.29507825
1644,A,1819415408782000,1.9351759,-7.568262,0.040715333,-0.23435818,0.3057309,0.053263225
1644,A,1819415428878000,2.2441335,-7.5035963,0.28500733,-0.902279,-0.46658584,0.6870956
1644,A,1819415449078000,2.42376,-7.2449346,0.60594,-0.51771855,-0.7414241,0.8159926
1644,A,1819415469174000,2.6009912,-7.3096,0.91010743,-0.0127831735,-1.1270498,0.2130529
1644,A,1819415489372000,2.8261232,-7.414981,1.1424243,-0.51452273,-1.5851135,0.14274544
1644,A,1819415509468000,2.9602442,-7.3000197,1.3651612,-1.2357068,-0.58696073,-0.2247708
1644,A,1819415529668000,3.276387,-7.2545147,1.5783179,-0.9054748,1.0471549,-0.3930826
1644,A,1819415549764000,3.4751735,-7.077283,1.4873072,0.12037488,0.9139969,-0.11824436
1644,A,1819415569961000,3.535049,-6.861731,1.1280543,0.59761333,0.17576863,-0.08628642
1644,A,1819415590057000,4.375701,-6.9862723,0.65384036,0.18322548,0.017044231,-0.4612595
1644,A,1819415610251000,5.858218,-7.4054008,0.17244141,-0.5581986,0.068176925,-0.82877576
1644,A,1819415630347000,7.4820414,-8.334668,-0.39757326,-0.5795039,-0.025566347,-0.6775082
1644,A,1819415650548000,7.2114043,-9.230406,0.17483643,-0.15765914,-0.45486793,-0.17576863
1644,A,1819415670644000,5.5253105,-9.630374,1.7771046,0.4101268,0.57098174,0.72651035
1644,A,1819415690835000,4.064348,-9.75731,2.4836354,0.79681784,2.7196202,1.6405072
1644,A,1819415710931000,5.688172,-10.6746025,1.22625,0.27057716,1.635181,0.90973586
1644,A,1819415731131000,7.8844047,-11.920012,-0.8262818,-0.3472762,-0.34194988,-0.043675844
1644,A,1819415751227000,5.4678297,-11.189531,-0.5604346,0.13315806,-1.3699301,0.46339005
1644,A,1819415771440000,0.4406836,-9.924961,1.2166699,0.49428272,-1.659682,0.6711166
1644,A,1819415791536000,-3.542234,-10.602752,1.719624,0.33981937,-1.7299895,0.4878911
1644,A,1819415811767000,-6.835386,-12.315191,2.2129982,0.07456851,-1.7022926,0.18216023
1644,A,1819415831863000,-3.283572,-14.025235,4.5625124,-0.0010652645,-0.9416938,-0.11717909
1644,A,1819415852075000,2.9338992,-11.970308,4.3206153,0.05752428,0.24501082,-0.25246766
1644,A,1819415872171000,3.647615,-8.404124,2.5866213,-0.013848438,0.64768076,-0.31851408
1644,A,1819415892374000,3.0967603,-9.4507475,4.5457473,0.10652645,0.51452273,-0.5113269
1644,A,1819415912470000,2.929109,-9.16574,5.733677,0.3153183,0.15233281,-0.61678815
1644,A,1819415932667000,1.7363893,-6.799461,4.88584,0.5230448,-0.07989483,-0.5571333
1644,A,1819415952763000,-0.081430666,-6.0043144,4.2104445,0.8000136,0.21198763,-0.5422196
1644,A,1819415972969000,0.6322852,-6.119275,5.0630717,0.221575,0.6988135,0.002130529
1644,A,1819415993065000,1.2693604,-6.2965064,3.6452198,-0.82877576,1.659682,0.5592638
1644,A,1819416013266000,1.2717555,-6.9048414,0.46942386,-0.54435015,1.5691346,0.19387813
1644,A,1819416033362000,1.9040406,-7.664063,-1.583108,-0.034088463,-1.6532904,-0.53263223
1644,A,1819416053566000,2.9171338,-8.291558,-2.8548634,-0.02130529,-2.389388,-0.0958738
1644,A,1819416073662000,3.4871485,-8.614885,-3.1350808,-0.14913702,-0.96299905,0.0127831735
1644,A,1819416093862000,3.3386574,-8.5598,-2.2106032,-0.58269966,-0.31638354,-0.4165184
1644,A,1819416113958000,2.9506643,-8.037686,-0.5628296,-0.90973586,-0.2066613,-0.87777793
1644,A,1819416134153000,2.9530592,-7.999366,1.0394385,-0.19920446,0.26525086,-0.48469532
1644,A,1819416154249000,3.0847852,-8.006551,2.0405567,0.13848437,0.2514024,-0.2790993
1644,A,1819416174453000,3.1063404,-7.8556643,2.811753,-0.128897,0.13635385,-0.6423545
1644,A,1819416194549000,3.3721876,-7.94428,3.410508,-0.04261058,0.007456851,-0.49641323
1644,A,1819416214750000,3.8511915,-8.341853,3.5637891,-0.27164245,-1.0183928,-0.20240025
1644,A,1819416234846000,4.2152348,-9.0891,3.1135256,-0.10226539,-0.12037488,0.051132694
1644,A,1819416255054000,4.3469605,-9.697434,2.6417067,0.50813115,3.2075112,2.0655477
1644,A,1819416275150000,4.064348,-10.066268,2.2106032,0.09161274,2.799515,1.4519554
1644,A,1819416295351000,4.232,-11.132051,2.6464968,-0.4878911,0.93636745,-0.60720074
1644,A,1819416315447000,4.3493557,-13.208533,3.4967287,-0.12357068,0.13102753,0.21411815
1644,A,1819416335652000,3.8272414,-14.858702,3.6811452,0.23755397,0.48149952,0.9012137
1644,A,1819416355748000,2.787803,-14.147381,2.675237,0.2396845,-0.3057309,0.6562029
1644,A,1819416375948000,1.3124708,-10.863809,0.8765772,0.19600865,-1.6820526,0.60080916
1644,A,1819416396044000,-0.6011499,-8.590936,-0.39278322,0.020240024,-0.8948221,0.12037488
1644,A,1819416416244000,-2.5147705,-8.396939,-0.88376224,-0.10226539,0.56459016,-0.26312032
1644,A,1819416436340000,-3.7242556,-8.983719,-1.1232642,0.07882957,0.49321744,-0.16405073
1644,A,1819416456538000,-0.90771246,-10.183623,0.6586304,0.16618125,-0.2034655,-0.12996227
1644,A,1819416476634000,2.792593,-10.190808,2.4069948,0.1949434,-0.5028048,-0.09054748
1644,A,1819416496774000,1.951941,-8.552615,1.719624,0.1470065,-0.77231675,-0.06498113
1644,A,1819416516870000,1.4370118,-8.128696,0.81909674,0.24607609,-0.829841,-0.28336033
1644,A,1819416537053000,1.343606,-7.8580594,0.3544629,0.40906155,-0.7137272,-0.5006743
1644,A,1819416557149000,1.3076807,-7.079678,-0.33290774,0.28442562,-0.15765914,-0.4644553
1644,A,1819416577347000,1.4849122,-6.696475,-0.57001466,0.31318775,0.21518342,-0.002130529
1644,A,1819416597443000,1.8657203,-6.9048414,-0.12693603,0.42397526,-0.080960095,1.2389026
1644,A,1819416617640000,2.1363575,-7.446116,0.49097902,0.6040049,-0.59122175,1.804558
1644,A,1819416637736000,2.4692652,-8.138277,1.1903248,-0.17470337,-3.5420043,0.72011876
1644,A,1819416657933000,3.0871804,-8.440049,1.6070582,-1.1526161,-4.156662,0.38029942
1644,A,1819416678029000,3.7290456,-8.334668,1.3939015,-1.8535602,-1.0588728,-0.12463594
1644,A,1819416698229000,3.906277,-7.831714,0.38080812,-1.5052186,1.4892397,-0.18855181
1644,A,1819416718325000,4.2918754,-7.3742657,-0.5604346,-0.44208476,2.948652,-0.13635385
1644,A,1819416738530000,5.249883,-7.31439,-1.4346168,0.4261058,2.082592,0.13954964
1644,A,1819416758626000,6.878496,-7.5970025,-2.5770411,0.12250541,-0.69029135,0.34408042
1644,A,1819416778827000,6.998247,-7.8652444,-2.459685,0.18855181,-1.3646038,-1.0290455
1644,A,1819416798923000,6.0570045,-8.315508,-0.85741705,0.20985709,-2.3307986,-1.5190672
1644,A,1819416819122000,5.5732107,-9.034014,0.9268726,-0.5305017,-2.263687,-1.4317155
1644,A,1819416839218000,5.7719975,-9.196876,0.6777906,-0.4293016,-0.716923,-0.79042625
1644,A,1819416859417000,6.9551373,-10.212363,-0.2083667,-0.43782368,-0.21731395,-0.1768339
1644,A,1819416879513000,5.415139,-12.329561,0.70174074,-0.37071204,2.2743397,0.8213189
1644,A,1819416899719000,1.4609619,-13.424085,1.7771046,0.52624065,5.8717375,1.8961707
1644,A,1819416919815000,-3.7577858,-12.916341,1.0562036,0.34514567,3.5270905,0.19068234
1644,A,1819416940005000,-7.326365,-12.226575,1.2621753,-0.16618125,0.16937704,-0.5997439
1644,A,1819416960101000,-4.799619,-12.494818,2.8309133,0.39947417,-0.10865697,0.30679616
1644,A,1819416980307000,2.6321266,-12.1379595,3.3817677,0.257794,-0.71159667,0.060720075
1644,A,1819417000403000,4.0835085,-9.15137,3.2428565,0.22796659,-1.0663297,0.16937704
1644,A,1819417020598000,1.3555812,-8.246053,3.2332766,0.45486793,-1.0641992,0.58269966
1644,A,1819417040694000,-0.2682422,-9.0891,3.8751419,0.44315,-1.5190672,0.4495416
1644,A,1819417060899000,-0.009580079,-8.6077,3.2452517,0.18109496,-1.6298546,0.21092236
1644,A,1819417080995000,2.565066,-7.6353226,3.2500417,0.25672874,-1.0908308,0.48043427
1644,A,1819417101188000,2.8452833,-6.991062,3.6811452,0.0053263223,-0.58909124,0.65194184
1644,A,1819417121284000,2.44771,-6.325247,3.2069314,-0.314253,-0.6114618,0.6317018
1644,A,1819417141546000,2.3686745,-6.1743608,2.924319,-0.2066613,-1.0077401,0.5475459
1644,A,1819417161642000,1.9878663,-6.7850904,1.5256275,-0.13315806,-0.9129316,0.28336033
1644,A,1819417181863000,1.1160791,-7.3886356,0.33769777,-0.39734364,-0.25885928,-0.27377295
1644,A,1819417201959000,1.1448194,-7.9921803,-0.40954837,-0.73290193,1.2953615,-0.89588743
1644,A,1819417222163000,2.0453467,-8.169412,-0.97956306,-0.42717105,3.290602,-1.320928
1644,A,1819417242259000,2.7542725,-7.838899,-1.2166699,0.20879184,4.192881,-1.212271
1644,A,1819417262465000,3.0823903,-7.9059596,-0.8646021,0.50387007,2.3265376,-0.8607337
1644,A,1819417282561000,3.2069314,-8.023315,-0.12933107,0.30466563,-0.51452273,-0.26205507
1644,A,1819417302786000,3.4847536,-7.9802055,0.7161109,-0.07456851,-2.3872576,0.05965481
1644,A,1819417322882000,3.66438,-7.89638,1.3795313,-0.13102753,-3.2085764,0.43249738
1644,A,1819417343042000,3.774551,-8.313113,1.8800904,0.2130529,-3.118029,0.83942837
1644,A,1819417363170000,3.7937112,-9.137,2.3590944,0.6487461,-2.6780748,0.9108011
1644,A,1819417383330000,3.8200562,-9.788445,2.6225464,0.8245147,-2.5662222,0.81066626
1644,A,1819417403528000,4.0930886,-9.992022,2.6608667,-1.6373115,-4.435761,-0.46339005
1644,A,1819417423564000,4.5625124,-10.207574,2.5842261,-1.4040185,-0.8127968,-0.5837649
1644,A,1819417443660000,5.012776,-11.294912,3.5206788,-0.06178534,1.8120148,0.28016454
1644,A,1819417463844000,4.0691385,-13.060042,5.357659,0.4133226,3.7433393,-0.02130529
1644,A,1819417483940000,1.7483643,-14.073135,5.6666164,0.48043427,6.4821343,0.29933932
1644,A,1819417504146000,-0.050295413,-12.978611,3.1925611,0.026631612,6.957242,0.35260254
1644,A,1819417524242000,-1.4202466,-12.197835,-0.34009278,-0.7850999,1.8738002,-0.15659387
1644,A,1819417544441000,-3.3434474,-11.211087,-1.8920655,-0.737163,-2.1475732,0.3568636
1644,A,1819417564537000,-2.6512868,-10.205178,-2.090852,-0.16298546,-2.4916537,0.7840346
1644,A,1819417584750000,0.68018556,-9.845925,-0.32332766,0.041545313,-1.897236,0.9054748
1644,A,1819417604846000,1.9184108,-9.12263,0.5724097,0.27164245,-1.6671388,0.8863
1644,A,1819417625047000,1.331631,-8.351434,0.34727785,0.51665324,-1.6682042,0.8404937
1644,A,1819417645143000,0.8933423,-7.91075,-0.13891114,0.59761333,-1.6575515,0.60933125
1644,A,1819417665350000,1.3076807,-7.592212,-0.24189699,0.5123922,-1.5084145,0.40586576
1644,A,1819417685446000,1.3939015,-7.194639,-0.5364844,0.45380265,-1.2942963,0.15339808
1644,A,1819417705645000,1.4394068,-7.0413575,-0.49576905,0.48149952,-1.0791129,-0.13954964
1644,A,1819417725741000,1.7603394,-7.067703,-0.045505375,0.35579833,-0.60933125,-0.3717773
1644,A,1819417745944000,1.8441651,-7.079678,0.2802173,-0.13209279,-0.04580637,-0.92997587
1644,A,1819417766040000,1.9878663,-7.556287,0.728086,-0.99708754,0.65726817,-1.1227888
1644,A,1819417786235000,2.3447242,-7.9466753,1.0873389,-0.902279,2.602441,-1.2964269
1644,A,1819417806331000,2.703977,-8.040081,0.9867481,-0.03089267,5.590508,-1.3784522
1644,A,1819417826534000,2.9458742,-7.879615,0.45744875,0.43675843,5.5937037,-0.8479505
1644,A,1819417846630000,3.642825,-7.8652444,-0.3065625,0.015978966,0.9853696,-0.32490566
1644,A,1819417866821000,5.017566,-7.8652444,-1.5064673,-0.6785734,-3.0402648,-0.24501082
1644,A,1819417886917000,5.3313136,-7.8820095,-2.0166066,-0.76912093,-3.7934067,0.12250541
1644,A,1819417907113000,4.91937,-8.47837,-0.9532178,-0.34194988,-3.2714272,0.5539375
1644,A,1819417927209000,4.5601172,-9.0891,0.4622388,0.3568636,-2.808037,0.6317018
1644,A,1819417947409000,5.120552,-9.75252,0.2562671,0.90973586,-2.5204158,0.6743124
1644,A,1819417967505000,5.863008,-10.391991,-0.9244776,1.0407634,-2.2658174,0.6892261
1644,A,1819417987659000,6.06419,-11.436219,-1.1136842,-1.8876486,-1.6309199,-0.7030745
1644,A,1819418007755000,4.3278003,-13.323494,0.244292,-1.2495552,1.7566211,-0.48149952
1644,A,1819418028023000,0.5963599,-12.875626,1.2022998,0.35153726,1.9515644,-0.23755397
1644,A,1819418048119000,-2.5027955,-11.187137,1.5064673,0.2034655,2.8261466,-0.4612595
1644,A,1819418068364000,-4.3301954,-10.375225,1.9423609,-0.0063915867,6.590791,0.18748654
1644,A,1819418088460000,-3.396138,-10.935659,2.6417067,0.41225734,8.510398,0.31851408
1644,A,1819418108672000,1.2813355,-11.385923,3.3554225,-0.29614353,2.3904533,-0.07350325
1644,A,1819418128768000,2.7806177,-9.683064,2.318379,-0.7339672,-3.769971,0.20985709
1644,A,1819418148969000,1.2765454,-9.220825,3.297942,0.0010652645,-5.103682,0.96619487
1644,A,1819418169065000,1.331631,-9.7621,4.4619217,0.39095205,-2.9454563,1.1057445
1644,A,1819418189265000,1.3795313,-8.746612,3.4967287,0.38562572,-1.3954965,0.9853696
1644,A,1819418209361000,2.411785,-7.321575,3.1302907,0.58909124,-1.2389026,0.95128113
1644,A,1819418229561000,2.6369166,-6.962322,3.0871804,0.6178534,-1.2357068,0.8000136
1644,A,1819418249657000,2.3519094,-6.854546,3.2356715,0.45699844,-1.1313108,0.5123922
1644,A,1819418269860000,2.201023,-6.9311867,2.8620484,0.34088463,-1.0013486,0.08628642
1644,A,1819418289956000,1.9782863,-7.350315,1.84177,0.002130529,-0.30466563,-0.35473305
1644,A,1819418310140000,1.9639161,-7.7550735,1.1975098,-0.41971418,-0.03195793,-0.9470201
1644,A,1819418330236000,1.9375709,-8.076006,0.5556446,-1.0865698,0.3387541,-1.1899004
1644,A,1819418350430000,1.8681153,-7.9897857,-0.19639161,-0.97258645,2.0559604,-1.3741912
1644,A,1819418370526000,1.6789087,-7.580237,-0.7568262,0.23009712,5.675729,-1.2293152
1644,A,1819418390718000,1.331631,-7.2640944,-1.1448194,0.95447695,6.848585,-0.4910869
1644,A,1819418410814000,0.7592212,-7.3694754,-1.4489869,0.4101268,2.8059065,-0.03089267
1644,A,1819418431016000,1.7842896,-8.480764,-1.2597803,-0.52837116,-1.9238676,-0.112918034
1644,A,1819418451112000,3.9326222,-9.1849,-1.0873389,-0.83729786,-4.435761,0.13848437
1644,A,1819418471313000,4.2104445,-9.187295,-0.732876,-0.89801794,-5.0141997,0.7840346
1644,A,1819418491409000,3.9972878,-9.862691,0.07664063,-0.5028048,-4.4815674,1.0237192
1644,A,1819418511614000,4.152964,-10.667418,1.2022998,0.36751625,-3.6240296,0.9150622
1644,A,1819418531710000,3.9014869,-10.861414,2.4572902,1.0791129,-3.0956585,0.82344943
1644,A,1819418551908000,3.6763551,-11.04104,4.406836,-0.41758367,-0.98110855,-0.10013486
1644,A,1819418572004000,3.2644117,-12.152329,6.488108,-2.968892,3.4184337,-1.2399678
1644,A,1819418592213000,2.6656568,-14.154566,6.8114357,1.1259845,0.80747044,0.18216023
1644,A,1819418612309000,1.0562036,-14.015655,3.6763551,1.2836437,-0.8863,-0.004261058
1644,A,1819418632553000,-0.4526587,-10.91171,0.8861573,-0.21944448,3.4780884,-0.32490566
1644,A,1819418652649000,-1.6214283,-8.964559,-0.20118165,-0.56885123,7.379087,-1.0237192
1644,A,1819418672850000,-2.4261549,-8.509504,-0.49337405,0.21837921,5.510613,-0.18748654
1644,A,1819418692946000,-1.7028589,-8.681946,0.36164796,0.45593318,1.5542208,0.5571333
1644,A,1819418713152000,1.3100758,-9.350157,1.8609302,-0.2876214,-2.3425164,0.16724652
1644,A,1819418733248000,0.86939216,-8.890313,1.5423926,-0.3121225,-4.0575924,0.4101268
1644,A,1819418753436000,-0.21315674,-8.370594,0.4766089,0.47297743,-3.955327,0.5752428
1644,A,1819418773532000,0.12454102,-8.382568,-0.48139894,1.0056096,-3.0391996,0.3334278
1644,A,1819418793722000,0.1460962,-8.284373,-1.0849439,1.2271847,-1.7417074,0.049002163
1644,A,1819418813818000,0.54366946,-8.2125225,-0.7664063,0.6306366,-1.2197278,-0.39627838
1644,A,1819418834013000,0.7759864,-8.052056,-0.25387207,-1.3944311,-0.535828,-1.2026836
1644,A,1819418854109000,1.1448194,-7.927515,0.33769777,-0.20453078,2.722816,-1.4849787
1644,A,1819418874310000,1.707649,-7.9730206,0.68976563,-0.40053943,2.718555,-1.1952267
1644,A,1819418894406000,2.3830445,-8.042476,0.6945557,-1.627724,2.9316077,-0.4346279
1644,A,1819418914606000,3.1159205,-8.066426,0.29937744,-1.0748519,5.05468,0.33768883
1644,A,1819418934702000,3.2500417,-7.8915896,-0.4239185,0.92038846,5.0972905,0.12676647
1644,A,1819418954910000,3.3793726,-7.5251517,-0.9867481,0.35260254,-0.24394555,-0.4282363
1644,A,1819418975006000,4.0859036,-7.3862405,-1.3747413,-0.7190535,-3.2011197,-0.12357068
1644,A,1819418995185000,5.0343313,-7.4030056,-1.8537452,-0.18961707,-2.4394555,0.13741912
1644,A,1819419015281000,4.9552956,-7.6089773,-1.3747413,0.16405073,-1.5180018,0.18535602
1644,A,1819419035482000,4.7062135,-8.708291,-0.38559815,0.18002969,-2.0410466,0.09054748
1644,A,1819419055578000,4.136199,-9.508228,0.9627979,-0.2727077,-3.7444046,-0.49002165
1644,A,1819419075780000,3.652405,-10.078242,0.6179151,-0.68389976,-4.2024684,-0.98750013
1644,A,1819419095876000,4.4427614,-11.201507,-0.12454102,0.15339808,-1.3869743,-0.6146576
1644,A,1819419116080000,5.0439115,-12.324771,0.39278322,-0.096939065,0.902279,-0.0010652645
1644,A,1819419136176000,2.5962012,-12.410992,0.9627979,-0.6114618,1.4370418,-0.1470065
1644,A,1819419156378000,-1.089734,-11.357183,1.2358302,-0.040480047,2.5236115,-0.008522116
1644,A,1819419176474000,-3.5254688,-10.751244,1.6573536,0.3472762,6.2488413,2.1891184
1644,A,1819419196679000,-4.387676,-11.285333,2.208208,0.16831179,4.801147,2.0271983
1644,A,1819419216775000,-2.0118165,-12.420572,2.7542725,-0.30360037,0.330232,-0.5273059
1644,A,1819419236968000,2.1531227,-11.737991,2.550696,0.09267801,-0.03834952,-0.096939065
1644,A,1819419257064000,1.4106666,-9.79084,1.7459693,0.73609775,-1.5339808,-0.15446335
1644,A,1819419277267000,1.8800904,-9.529783,3.4919386,0.4048005,-2.7526433,0.56245965
1644,A,1819419297363000,2.3710694,-8.741821,3.903882,-0.21411815,-2.1582258,0.9321064
1644,A,1819419317562000,1.5663428,-7.2353544,2.4141798,0.12676647,-0.96619487,0.29614353
1644,A,1819419337658000,1.4873072,-6.373147,2.4860303,0.26525086,0.28549087,0.2034655
1644,A,1819419357856000,1.719624,-6.332432,3.2428565,-0.033023197,1.2687299,-0.027696876
1644,A,1819419377952000,1.3100758,-6.586304,2.5363257,0.0031957934,0.8330368,-0.31957933
1644,A,1819419398162000,0.98914313,-7.151529,1.3627661,0.14168017,0.5773733,-0.29933932
1644,A,1819419418258000,1.0873389,-7.9347,0.65384036,0.330232,0.87351686,-0.52837116
1644,A,1819419438467000,1.3771362,-8.480764,0.26105714,0.5305017,1.2037488,-0.5496765
1644,A,1819419458563000,1.7387843,-8.401729,-0.2945874,0.24927188,1.816276,0.1587244
1644,A,1819419478768000,2.0022364,-8.052056,-0.9627979,-0.1555286,0.69135666,0.7850999
1644,A,1819419498864000,2.0142114,-7.9849954,-1.3507911,0.25353295,-1.953695,0.30360037
1644,A,1819419519062000,2.2704787,-8.090376,-1.104104,0.22796659,-2.7643614,-0.5273059
1644,A,1819419539158000,2.9650342,-7.951465,-0.4239185,-0.12037488,-1.7779263,-0.111852765
1644,A,1819419559358000,3.4248781,-7.932305,0.68737066,-0.20133498,-0.90654004,0.060720075
1644,A,1819419579454000,3.4440382,-8.353828,1.8489552,-0.44847634,-0.9214538,-0.21731395
1644,A,1819419599655000,3.151846,-8.988508,2.454895,-0.38242993,-0.32170987,-0.21837921
1644,A,1819419619751000,2.9626393,-9.766891,2.6488917,-0.1736381,0.4250405,-0.21731395
1644,A,1819419639957000,3.5566041,-10.37762,2.7662477,-0.3568636,0.330232,-0.2972088
1644,A,1819419660053000,5.372029,-11.371553,2.5459058,-0.2727077,0.029827405,-0.28975195
1644,A,1819419680240000,5.815108,-13.665982,3.1135256,-0.34088463,-0.26631612,-0.26312032
1644,A,1819419700336000,3.2213013,-16.302898,4.7301636,-0.7392935,-1.1920309,-0.406931
1644,A,1819419720542000,0.031135255,-14.870677,2.6441016,-0.13528858,0.45167214,0.4016047
1644,A,1819419740638000,-1.4609619,-10.653048,-0.84065187,0.6114618,4.442153,1.8706044
1644,A,1819419760815000,-2.4261549,-8.229287,-1.7028589,0.068176925,3.3981936,0.33449304
1644,A,1819419780911000,-3.2069314,-7.3096,-1.1567944,-0.51771855,1.2389026,-0.6412892
1644,A,1819419801113000,-1.9208057,-7.975415,0.4406836,0.13741912,1.0950918,0.1736381
1644,A,1819419821209000,0.5604346,-9.369317,2.193838,0.64768076,-1.026915,0.16618125
1644,A,1819419841411000,0.7496411,-9.503438,2.2106032,0.30679616,-2.6407907,0.6466155
1644,A,1819419861507000,0.6825806,-9.148975,1.0681788,-0.112918034,-2.2423816,0.644485
1644,A,1819419881713000,1.0657837,-9.125025,-0.019160157,0.3270362,-1.7022926,0.05219796
1644,A,1819419901809000,1.6693287,-8.981323,-0.5724097,0.50600064,-0.69135666,0.19920446
1644,A,1819419922006000,0.96040285,-8.159832,-1.104104,-0.09054748,0.62317973,0.20559604
1644,A,1819419942102000,1.3891114,-7.7335186,-0.97237796,-0.2247708,0.809601,-0.21092236
1644,A,1819419962302000,2.4836354,-7.7359133,-0.7783814,0.11824436,0.85327685,-0.4314321
1644,A,1819419982398000,3.2692018,-7.824529,-0.5963599,0.43249738,0.99282646,-0.5965481
1644,A,1819420002602000,3.0704153,-7.568262,0.33290774,0.7520767,1.4594123,-0.66152924
1644,A,1819420022698000,2.1291726,-7.2281694,0.80712163,0.29294774,1.9931098,0.082025364
1644,A,1819420042903000,2.2297633,-7.6209526,0.30177248,-0.61678815,0.8969527,0.25353295
1644,A,1819420062999000,2.4836354,-8.092772,0.37362307,-0.18002969,-1.4562165,-0.05752428
1644,A,1819420083199000,3.0608351,-8.171807,0.11496094,0.43675843,-2.444782,-0.49854377
1644,A,1819420103295000,4.1721244,-8.270002,-0.4143384,-0.10546118,-1.784318,0.018109497
1644,A,1819420123497000,5.216353,-9.065149,-0.59156984,-0.34940675,-0.850081,-0.007456851
1644,A,1819420143593000,5.4127445,-9.865086,-0.3065625,-0.48149952,-0.91825795,-0.29614353
1644,A,1819420163794000,4.639153,-9.69504,-0.016765138,-0.4165184,-0.7126619,-0.28549087
1644,A,1819420183890000,4.2008643,-9.431587,-0.49576905,-0.09161274,0.22050974,-0.16831179
1644,A,1819420204028000,5.1564775,-9.81958,-1.7411792,-0.22050974,0.3057309,-0.12357068
1644,A,1819420224124000,6.799461,-10.768008,-1.8968556,-0.4495416,-0.18961707,-0.386691
1644,A,1819420244324000,3.9829175,-12.0253935,-0.33290774,-0.23116238,0.08522116,-0.35579833
1644,A,1819420264420000,-0.43110353,-11.699671,-0.23710695,-0.7030745,-0.4527374,-0.4346279
1644,A,1819420284656000,-5.46304,-10.657837,-0.34488282,-0.27696875,0.55606806,-0.083090626
1644,A,1819420304752000,-8.250843,-10.487791,0.244292,0.48363006,3.90739,1.32945
1644,A,1819420324968000,-4.905,-11.534414,1.1927198,0.2130529,3.875432,0.98430437
1644,A,1819420345064000,4.6966333,-12.070899,3.2859669,-0.62317973,0.7861652,-0.41545314
1644,A,1819420365264000,3.894302,-10.277029,2.9051588,-0.1736381,0.41864893,0.0958738
1644,A,1819420385360000,0.0023950196,-9.702225,2.4932153,0.25992453,-0.6689861,0.19068234
1644,A,1819420405585000,0.040715333,-10.375225,3.532654,0.27164245,-1.2506205,0.40373522
1644,A,1819420425681000,0.07185059,-9.050779,3.0368848,0.30360037,-0.99708754,0.5933523
1644,A,1819420445882000,0.7089258,-7.192244,1.9567311,0.26738137,-1.3358417,0.40373522
1644,A,1819420465978000,1.2358302,-6.1240654,1.0178833,0.18855181,-0.9086706,0.2972088
1644,A,1819420486180000,1.9184108,-5.944439,1.1759547,-0.035153728,0.05539375,0.15233281
1644,A,1819420506276000,2.6345215,-6.7611403,2.1148024,-0.13209279,0.314253,-0.15020229
1644,A,1819420526494000,2.3734643,-7.288045,2.0309765,0.13635385,0.23329292,-0.4016047
1644,A,1819420546590000,2.0932472,-7.5467067,1.5926881,0.3270362,0.53263223,-0.45699844
1644,A,1819420566750000,1.8968556,-7.7790236,1.1472144,0.39947417,0.6562029,-0.813862
1644,A,1819420586878000,1.9232007,-8.047266,0.5628296,0.4079963,0.922519,-0.7669904
1644,A,1819420607038000,1.7794995,-8.042476,0.11496094,-0.44421527,1.8194717,0.70200926
1644,A,1819420627237000,1.4609619,-7.9059596,-0.26584718,-0.06711166,-0.33129725,0.31318775
1644,A,1819420647372000,1.2861255,-7.9706254,-0.48379397,0.23009712,-2.6237464,-0.42184472
1644,A,1819420667468000,1.3867164,-8.248447,-0.43589357,-0.13954964,-2.2583606,-0.25992453
1644,A,1819420687649000,1.8609302,-8.871153,-0.22513184,-0.3685815,-1.506284,0.010652645
1644,A,1819420707745000,2.7327175,-9.953702,-0.17723145,-0.38562572,-1.2133362,-0.17896444
1644,A,1819420727897000,3.4416432,-10.870995,-0.2802173,-0.39521313,-0.757403,-0.39627838
1644,A,1819420747993000,3.7338357,-11.02188,-0.14370118,-0.2972088,0.04580637,-0.15126756
1644,A,1819420768195000,3.4943337,-10.971585,0.7041358,-0.19281286,0.49960902,-0.049002163
1644,A,1819420788291000,3.0967603,-11.388318,1.9303858,-0.3888215,-0.16085494,-0.2908172
1644,A,1819420808495000,2.320774,-11.773916,3.5134938,-0.16618125,-0.34940675,-0.165116
1644,A,1819420828591000,0.977168,-11.963123,4.3565407,-0.13315806,0.17576863,0.30466563
1644,A,1819420848859000,-0.44547364,-11.213482,2.3495142,0.11611383,2.3339944,0.93849796
1644,A,1819420868955000,-1.0753639,-10.5764065,0.6322852,-0.09054748,2.6652918,0.36112466
1644,A,1819420889154000,-1.7459693,-10.459051,0.42152345,-0.1768339,1.7417074,0.18002969
1644,A,1819420909250000,-2.4620802,-9.730965,0.48618898,-0.05965481,0.47404268,0.037284255
1644,A,1819420929452000,-2.823728,-9.393267,0.14370118,0.257794,-0.46658584,0.1587244
1644,A,1819420949548000,-2.1555176,-9.7812605,0.44786867,0.13209279,-0.43569317,0.5550028
1644,A,1819420969750000,-0.57001466,-9.982442,1.0514137,0.13635385,-0.7680557,0.39947417
1644,A,1819420989846000,-0.72569096,-8.684341,0.100590825,0.3270362,-1.160073,0.3685815
1644,A,1819421010048000,-1.1280543,-7.795789,-0.8430469,0.32384038,-0.87351686,0.3110572
1644,A,1819421030144000,-0.23231691,-8.121511,-1.1975098,0.16618125,-0.3174488,0.294013
1644,A,1819421050345000,1.3220508,-8.947793,-2.8524685,0.07669904,0.015978966,0.054328486
1644,A,1819421070441000,2.1315675,-8.753797,-3.4296682,0.13528858,-0.10439592,-0.25992453
1644,A,1819421090644000,1.8896705,-8.044871,-2.5938063,0.26844665,-0.26738137,-0.4293016
1644,A,1819421110740000,0.9029224,-7.6592727,-1.3220508,0.29188246,0.24820662,-0.6018744
1644,A,1819421130939000,0.4023633,-7.699988,0.011975098,0.2066613,1.0343717,-1.019458
1644,A,1819421151035000,0.2562671,-7.8484793,0.9029224,-0.14274544,2.4000409,-0.5113269
1644,A,1819421171237000,0.12933107,-7.862849,0.6706055,-0.25566345,2.2327943,0.52624065
1644,A,1819421191333000,0.06706055,-7.951465,0.6514453,0.13528858,-0.9353022,0.12996227
1644,A,1819421211531000,0.6466553,-8.143066,0.1341211,-0.049002163,-2.7249465,-0.46552056
1644,A,1819421231627000,1.6046631,-8.296348,-0.9651929,-0.18748654,-1.9302592,-0.15020229
1644,A,1819421251822000,2.3902297,-8.981323,-1.6717237,-0.2790993,-1.200553,-0.02130529
1644,A,1819421271918000,2.931504,-9.7812605,-1.7627344,-0.3717773,-1.2378373,-0.39521313
1644,A,1819421292141000,3.1087356,-10.389595,-1.453777,-0.16831179,-0.6199839,-0.28336033
1644,A,1819421312237000,3.5781593,-10.645863,-1.1591895,-0.0063915867,0.33129725,0.066046394
1644,A,1819421332453000,4.3397756,-10.667418,-1.7004639,-0.111852765,0.52411014,-0.080960095
1644,A,1819421352549000,3.7697608,-11.364368,-1.4370118,-0.098004326,-0.15339808,-0.29507825
1644,A,1819421372792000,1.7866846,-12.446917,-0.9963282,-0.03834952,-0.58269966,-0.28868666
1644,A,1819421392888000,-1.5615528,-12.609778,-0.43110353,-0.386691,-1.0833739,-0.24820662
1644,A,1819421413087000,-3.2332766,-12.5738535,0.4742139,0.257794,1.6863136,0.8064052
1644,A,1819421433183000,-4.2128396,-11.891273,1.6381935,0.2727077,3.9968722,1.551025
1644,A,1819421453379000,-3.4536183,-10.98356,1.7339942,-0.29614353,1.9931098,-0.14594123
1644,A,1819421473475000,-1.3651612,-10.2315235,1.1591895,-0.16618125,0.6625945,-0.0127831735
1644,A,1819421493679000,-1.1735597,-9.13221,0.4742139,0.13741912,-0.24501082,0.22796659
1644,A,1819421513775000,-2.7135572,-8.119117,1.456172,0.37923414,-1.3390374,0.029827405
1644,A,1819421533976000,-2.6464968,-8.193362,2.4908204,0.38456047,-1.6777915,0.43356264
1644,A,1819421554072000,-1.6238233,-8.737032,2.4668703,0.14487597,-2.0176108,0.5795039
1644,A,1819421574236000,-0.60833496,-8.610096,1.84177,0.3270362,-2.1656826,0.23009712
1644,A,1819421594332000,0.09101075,-8.104747,0.96758795,0.3387541,-1.4498249,0.1917476
1644,A,1819421614533000,0.30177248,-7.7430983,0.47900394,-0.025566347,-0.16724652,0.096939065
1644,A,1819421634629000,0.47900394,-7.688013,0.117355965,-0.07456851,0.59122175,-0.13954964
1644,A,1819421654797000,0.77359134,-8.066426,-0.364043,0.1768339,0.8607337,-0.27057716
1644,A,1819421674893000,1.2981006,-8.787327,-0.80712163,0.21092236,0.9938917,-0.3749731
1644,A,1819421695093000,1.7435743,-9.295072,-1.1903248,0.3057309,0.85327685,-0.56459016
1644,A,1819421715189000,2.0118165,-9.168135,-1.3699512,0.053263225,0.96619487,-0.29188246
1644,A,1819421735386000,2.2728736,-8.339458,-1.4154567,-0.3834952,1.1014835,0.20879184
1644,A,1819421755482000,2.454895,-7.688013,-1.1807446,0.21198763,0.2876214,0.27377295
1644,A,1819421775682000,2.454895,-7.436536,-0.90052736,-0.056459017,-2.150769,-0.1555286
1644,A,1819421795778000,2.315984,-7.4940166,-0.14370118,-0.33129725,-2.5225463,-0.03195793
1644,A,1819421815973000,2.2776637,-7.8341093,0.7831714,-0.2972088,-1.4913702,0.11504856
1644,A,1819421836069000,2.3710694,-8.066426,1.3076807,-0.8181231,-1.1483551,-0.37710363
1644,A,1819421856268000,2.1674929,-8.851993,1.5663428,-0.4825648,-0.09267801,-0.34940675
1644,A,1819421876364000,1.9088306,-10.008787,1.5447876,0.10439592,0.7850999,0.07456851
1644,A,1819421896566000,1.9327809,-10.813514,1.468147,-0.026631612,0.7222493,-0.036218993
1644,A,1819421916662000,2.191443,-11.239827,1.6070582,-0.23116238,-0.08522116,-0.165116
1644,A,1819421936854000,2.5842261,-12.351116,2.0812721,-0.0958738,-0.5592638,-0.25566345
1644,A,1819421956950000,2.4045997,-14.341377,2.2537134,-0.11717909,-0.6892261,-0.3387541
1644,A,1819421977151000,1.2813355,-16.185543,2.0333717,-0.046871636,-0.19813919,-0.4314321
1644,A,1819421997247000,-0.7951465,-13.941409,0.44307864,0.28655612,1.8482338,0.16085494
1644,A,1819422017441000,-1.951941,-10.181229,-1.0633887,0.4261058,4.8874335,1.9611518
1644,A,1819422037537000,-2.9865894,-8.277188,-1.6166383,-0.06924219,2.1092236,0.7595336
1644,A,1819422057736000,-4.6918435,-7.417376,-0.77359134,-0.23648871,-0.07137272,-0.5432849
1644,A,1819422077832000,-4.526587,-8.083191,0.22752686,0.21837921,-0.47510794,0.22370553
1644,A,1819422098036000,-1.1304493,-9.405242,1.7315992,0.3898868,-1.1163971,0.49641323
1644,A,1819422118132000,-1.1975098,-8.605306,1.0705738,0.41225734,-1.5361114,0.4527374
1644,A,1819422138328000,-1.9351759,-8.224498,0.24189699,0.46978164,-1.8269285,0.22690132
1644,A,1819422158424000,-1.5352076,-8.741821,-0.4047583,0.5006743,-1.567004,0.094808534
1644,A,1819422178626000,-0.8669971,-8.756192,-0.65384036,0.07882957,-1.0258497,0.18322548
1644,A,1819422198722000,-0.61552006,-7.9610453,-0.6825806,-0.14168017,-0.2066613,-0.02876214
1644,A,1819422218968000,-0.023950197,-7.470066,-0.7448511,-0.06711166,0.6466155,-0.22050974
1644,A,1819422239064000,1.3651612,-7.89638,-1.4705421,-0.060720075,1.3049489,-0.26738137
1644,A,1819422259262000,2.6704469,-8.296348,-2.2944288,-0.08841695,1.5563514,-0.5454154
1644,A,1819422279358000,2.703977,-8.0305,-1.3004956,-0.101200126,1.655421,-0.6892261
1644,A,1819422299592000,1.9830762,-7.441326,-0.21794678,-0.1768339,2.441586,-0.20985709
1644,A,1819422319688000,1.4322218,-7.1443434,-0.0047900393,0.113983296,2.283927,0.15233281
1644,A,1819422339887000,1.8824854,-7.4844365,-0.3903882,0.07350325,-0.5454154,-0.21411815
1644,A,1819422359983000,2.8931837,-7.932305,-0.9316626,-0.28549087,-2.9912627,-0.28229508
1644,A,1819422380172000,3.6859353,-8.123906,-1.6022681,-0.1736381,-2.3798008,0.10333065
1644,A,1819422400268000,3.999683,-8.672366,-1.829795,-0.0628506,-1.0982877,0.14061491
1644,A,1819422420470000,3.5925295,-9.393267,-0.98195803,-0.3920173,-1.2740563,-0.2428803
1644,A,1819422440566000,3.3218923,-9.956097,-0.09580079,-0.6125271,-1.4487597,-0.6199839
1644,A,1819422460767000,2.7135572,-10.042317,-0.5484595,0.0063915867,-0.011717909,-0.1257012
1644,A,1819422480863000,2.7638526,-10.554852,-1.4585669,-0.029827405,0.5581986,-0.0010652645
1644,A,1819422501063000,3.537444,-11.984678,-2.0022364,-0.054328486,0.7307714,-0.11504856
1644,A,1819422521159000,1.2070899,-13.222903,-1.0681788,-0.12463594,0.051132694,-0.07350325
1644,A,1819422541364000,-3.9757326,-13.289964,-0.41194338,-0.2972088,-0.36218992,-0.2759035
1644,A,1819422561460000,-8.265213,-12.803775,-0.2203418,0.09161274,1.7385116,0.45593318
1644,A,1819422581672000,-7.204219,-12.530743,1.1088941,0.3291667,4.1662493,1.5712651
1644,A,1819422601768000,-0.45984375,-12.312796,1.4489869,-0.2695119,1.7022926,0.13102753
1644,A,1819422621969000,1.0609937,-10.768008,0.7089258,-0.55287224,0.023435818,-0.34940675
1644,A,1819422642065000,-1.951941,-9.230406,1.2070899,-0.002130529,-0.084155895,0.17576863
1644,A,1819422662267000,-1.6741188,-9.77168,2.7734327,0.21731395,-1.0972224,0.30360037
1644,A,1819422682363000,-1.341211,-9.340576,3.1302907,0.3749731,-1.4828482,0.4495416
1644,A,1819422702563000,-1.0657837,-7.5203614,2.3495142,0.52411014,-1.0588728,0.54435015
1644,A,1819422722659000,-0.011975098,-6.615044,1.7244141,0.17576863,-0.5550028,0.29933932
1644,A,1819422742856000,0.68018556,-6.5551686,1.9998415,-0.11930962,0.32384038,0.32490566
1644,A,1819422762952000,0.37601808,-6.552774,2.299219,-0.3717773,0.4495416,0.30786142
1644,A,1819422783153000,0.25866213,-6.9719024,1.8585353,-0.27483824,0.034088463,0.09054748
1644,A,1819422803249000,0.43349856,-7.9730206,0.86220706,0.1470065,-0.4079963,-0.22370553
1644,A,1819422823435000,0.977168,-9.208851,-0.6849756,0.42077947,-0.53795856,-0.60933125
1644,A,1819422843531000,2.3686745,-10.195599,-1.5399976,0.64768076,0.4250405,-1.0056096
1644,A,1819422863734000,3.1566358,-9.994417,-1.9734962,0.12144015,2.251969,0.004261058
1644,A,1819422883830000,2.3854396,-9.175321,-1.3172607,-0.12357068,1.0279802,0.829841
1644,A,1819422904033000,1.7244141,-8.54064,-0.031135255,0.039414786,-2.066613,-0.18109496
1644,A,1819422924129000,1.4705421,-7.8580594,1.0538087,-0.10333065,-2.5289378,-1.0428939
1644,A,1819422944325000,0.9364527,-6.854546,1.5016773,-0.40053943,-1.627724,-0.777643
1644,A,1819422964421000,0.50774413,-6.207891,1.5495777,-0.44847634,-0.4293016,-0.28016454
1644,A,1819422984621000,0.45026368,-6.2581863,1.3795313,-0.12463594,0.93636745,-0.28229508
1644,A,1819423004717000,0.34727785,-7.30481,1.0059083,-0.03834952,1.4072144,-0.3536678
1644,A,1819423024927000,0.6490503,-8.722662,0.57001466,-0.029827405,1.1792477,-0.28336033
1644,A,1819423045023000,1.1448194,-9.82437,0.14130616,-0.4889564,1.0641992,0.4889564
1644,A,1819423065223000,1.9136207,-11.000325,0.25147706,-0.6625945,1.6330504,-0.15020229
1644,A,1819423085319000,2.7135572,-12.056529,0.9053174,-0.38136467,0.57311225,-2.0676782
1644,A,1819423105521000,3.0656252,-12.346326,1.4058765,-0.37284255,-1.6905746,-1.3539511
1644,A,1819423125617000,3.6092947,-11.668535,1.3771362,0.44101948,-0.5816344,1.7619474
1644,A,1819423145816000,4.27032,-10.502161,0.95561284,0.35579833,-0.113983296,2.731338
1644,A,1819423165912000,4.1793094,-10.34888,0.7711963,0.2727077,-0.92784536,2.7654266
1644,A,1819423186113000,3.2380664,-11.764337,1.4034815,1.4306501,-2.1774006,2.1486385
1644,A,1819423206209000,1.6789087,-13.294754,2.5387208,1.7651432,-2.7824707,0.8042747
1644,A,1819423226415000,-0.6011499,-13.0384865,2.804568,0.040480047,-1.8706044,0.26205507
1644,A,1819423246511000,-3.9613624,-9.690249,3.1350808,-1.506284,-0.38775626,-0.02130529
1644,A,1819423266713000,-6.478528,-7.0413575,3.417693,-1.3347764,-0.6956177,0.10546118
1644,A,1819423286809000,-6.430628,-7.077283,4.038003,0.165116,-2.2125542,0.5390238
1644,A,1819423306998000,-3.1997461,-8.389753,3.7937112,0.33449304,-1.7875137,0.59867865
1644,A,1819423327094000,-3.297942,-9.414823,0.60354495,-0.45060685,-1.845038,0.36005938
1644,A,1819423347293000,-2.6608667,-10.830278,-1.5543678,-0.44208476,-2.4160197,0.05219796
1644,A,1819423367389000,-0.035925295,-11.239827,-2.0237916,-0.9139969,-0.36751625,-0.07669904
1644,A,1819423387593000,0.69695073,-10.466236,-5.372029,-0.7978831,0.5273059,-0.75633776
1644,A,1819423407689000,2.5411158,-9.874666,-6.607859,0.9171927,0.20240025,-1.5701998
1644,A,1819423427890000,1.2765454,-9.6686945,-4.751719,2.8229508,-0.50387007,-0.16192019
1644,A,1819423447986000,-1.7794995,-6.6988697,-2.1387525,1.2825783,0.25885928,0.85966843
1644,A,1819423468199000,-0.5340894,-6.998247,-0.8143067,-0.3834952,1.9451729,-0.7318367
1644,A,1819423488295000,0.081430666,-9.472302,-2.1435425,-0.070307456,0.9768475,-0.51452273
1644,A,1819423508495000,0.8813672,-9.041199,0.5029541,0.2727077,-0.8319715,-0.1949434
1644,A,1819423528591000,-0.1341211,-7.2760696,5.736072,-0.44847634,-1.6895094,-0.36751625
1644,A,1819423548797000,-3.8392165,-7.209009,2.929109,-1.2602079,0.66365975,-0.13102753
1644,A,1819423568893000,-2.074087,-8.775352,-0.54366946,-0.8479505,1.7598169,0.03195793
1644,A,1819423589094000,0.49337405,-9.965676,-0.2945874,-0.4314321,1.7054884,-0.4463458
1644,A,1819423609190000,-0.15088624,-9.041199,0.6682105,-0.6743124,1.7395768,-0.57417756
1644,A,1819423629388000,0.7065308,-7.822134,0.5843848,-0.753142,1.9366508,-0.60507023
1644,A,1819423649484000,1.9064356,-7.9634404,-0.7759864,0.06711166,0.80107886,-0.41971418
1644,A,1819423669683000,3.3434474,-8.406519,-2.5291407,-0.27803403,0.2428803,-0.48363006
1644,A,1819423689779000,3.1901662,-8.238868,-3.3697927,-0.3387541,0.33981937,-0.3206446
1644,A,1819423709980000,2.3327491,-8.382568,-3.1183155,0.89588743,1.0599382,0.099069595
1644,A,1819423730076000,2.572251,-9.465117,-3.2476466,1.9590213,1.6543556,1.567004
1644,A,1819423750271000,2.6249416,-10.454261,-3.908672,0.7957525,-0.61678815,0.737163
1644,A,1819423770367000,2.9219239,-11.414663,-5.0702567,-0.27483824,-0.17576863,-0.098004326
1644,A,1819423790527000,0.8646021,-13.057647,-5.623506,-0.34088463,-0.18322548,-0.10226539
1644,A,1819423810655000,-2.7854078,-13.670772,-3.6883302,-0.18642128,-0.88843054,-0.07882957
1644,A,1819423830815000,-7.213799,-13.996494,-1.7675245,-0.22370553,-0.7190535,-0.011717909
1644,A,1819423851012000,-6.9790874,-14.777271,0.8310718,-0.4676511,-0.350472,0.20559604
1644,A,1819423871154000,-3.5685792,-12.5738535,2.2728736,0.12250541,-0.6849651,-0.011717909
1644,A,1819423891250000,-1.1759547,-9.321417,1.2094849,0.7701862,-0.96086854,-0.13209279
1644,A,1819423911449000,0.7951465,-8.528665,1.6238233,0.5486112,-0.9076053,0.11824436
1644,A,1819423931545000,-2.9937747,-7.8676395,2.5770411,0.34088463,-1.5403724,0.06391586
1644,A,1819423951750000,-3.9948928,-8.262817,5.0606766,0.47404268,-2.5875273,-0.083090626
1644,A,1819423971846000,-1.9806812,-8.566985,5.000801,0.082025364,-1.2964269,-0.5965481
1644,A,1819423992050000,0.57959473,-8.796907,2.5938063,0.40266997,0.660464,-0.9438243
1644,A,1819424012146000,1.6621436,-9.019644,2.44292,1.0620687,1.861017,-0.8330368
1644,A,1819424032345000,1.334026,-8.349038,2.2944288,-0.094808534,2.0410466,-0.18961707
1644,A,1819424052441000,0.9053174,-7.103628,1.4034815,-0.76912093,0.39521313,-0.14594123
1644,A,1819424072642000,1.3004956,-6.4114676,0.9268726,-0.6743124,-0.7669904,-0.9033443
1644,A,1819424092738000,1.7220191,-6.198311,0.728086,0.051132694,-0.23009712,-0.9108011
1644,A,1819424112937000,2.1603076,-6.574329,0.39517823,0.8181231,-0.67218184,0.056459017
1644,A,1819424133033000,2.6896071,-7.34313,-0.4406836,0.7073356,-1.7971011,0.6583334
1644,A,1819424153228000,3.2069314,-8.238868,-1.5423926,0.49428272,-2.2871227,0.6945524
1644,A,1819424173324000,2.6249416,-8.892708,-1.346001,0.50387007,-3.4216294,0.76592517
1644,A,1819424193526000,1.4250367,-9.182506,-0.60354495,2.07407,-1.4764565,0.3685815
1644,A,1819424213622000,0.977168,-9.038804,-0.6466553,1.4082797,0.6689861,-0.5539375
1644,A,1819424233825000,0.7544312,-8.952583,-0.87178713,-0.75633776,0.08841695,-0.3749731
1644,A,1819424253921000,0.67539555,-9.074729,-0.9436377,-0.34194988,-0.28122982,-0.083090626
1644,A,1819424274125000,0.71371585,-9.5489435,-0.728086,0.30146983,-0.3749731,-0.09161274
1644,A,1819424294221000,0.7161109,-10.36325,-0.24908204,0.25566345,0.38029942,-0.05219796
1644,A,1819424314421000,0.7232959,-11.512859,0.28740236,0.42077947,0.72651035,0.1917476
1644,A,1819424334517000,0.7783814,-12.3559065,0.5556446,0.21092236,0.6679208,0.060720075
1644,A,1819424354721000,0.85023195,-12.003839,0.244292,0.23755397,0.54435015,-0.11504856
1644,A,1819424374817000,1.2717555,-12.28645,-0.0071850587,0.52411014,-0.30999196,-0.05965481
1644,A,1819424395035000,1.7794995,-13.481565,0.15088624,-0.45593318,-0.48149952,-0.38562572
1644,A,1819424415131000,1.6860938,-13.462405,-0.1820215,-1.2538162,0.015978966,-0.16405073
1644,A,1819424435331000,1.1304493,-11.59908,-0.71371585,-0.25033715,0.44101948,-0.20879184
1644,A,1819424455427000,0.68976563,-9.002879,-0.85023195,0.25033715,0.24501082,-0.26631612
1644,A,1819424475634000,-0.023950197,-8.085587,-0.4167334,0.03195793,0.08628642,-0.2247708
1644,A,1819424495730000,-1.1496094,-8.466394,-0.09340577,0.18002969,-0.094808534,-0.023435818
1644,A,1819424515933000,-1.9351759,-9.685459,0.09340577,0.37603834,-0.26205507,0.0031957934
1644,A,1819424536029000,-2.8213332,-10.324929,0.37122804,0.083090626,-0.020240024,-0.20879184
1644,A,1819424556231000,-2.9674294,-9.812395,0.7711963,-0.21092236,0.3270362,-0.30999196
1644,A,1819424576327000,-3.182981,-8.780142,0.95561284,-0.1768339,0.70840085,-0.49321744
1644,A,1819424596531000,-3.5685792,-7.817344,0.84065187,-0.15233281,0.9033443,-0.8404937
1644,A,1819424616627000,-3.7218604,-7.0916533,0.34488282,-0.4495416,0.5965481,-0.46019423
1644,A,1819424636811000,-3.422483,-6.6557593,0.06706055,-0.15126756,-0.24394555,0.23861924
1644,A,1819424656907000,-2.5219557,-6.356382,0.050295413,0.039414786,-0.37816888,0.19281286
1644,A,1819424677109000,-2.1435425,-6.3875175,-0.14849122,0.17470337,0.2695119,-0.07669904
1644,A,1819424697205000,-2.299219,-6.940767,-0.06466553,0.38775626,0.42184472,-0.1470065
1644,A,1819424717407000,-2.0621119,-7.6209526,-0.014370117,0.1587244,0.18002969,0.07243799
1644,A,1819424737503000,-1.6070582,-8.145462,-0.24189699,-0.25246766,-0.24820662,0.26525086
1644,A,1819424757691000,-1.0585986,-8.495134,-0.19639161,-0.37603834,-0.49428272,0.3057309
1644,A,1819424777787000,-0.56522465,-8.653206,-0.2562671,-0.0628506,-0.36112466,0.18748654
1644,A,1819424797990000,-0.20118165,-8.768167,-0.4382886,0.112918034,-0.39095205,0.101200126
1644,A,1819424818086000,0.17004639,-9.1849,-0.32332766,-0.12037488,-0.2514024,0.015978966
1644,A,1819424838279000,1.477727,-10.066268,-1.5064673,0.027696876,-0.018109497,0.12144015
1644,A,1819424858375000,9.223221,-12.638518,-12.937896,0.39095205,0.18855181,0.18002969
1644,A,1819424878577000,5.503755,-12.245735,-10.938055,0.34834146,0.87777793,0.46339005
1644,A,1819424898673000,1.719624,-10.808723,-4.3349857,0.4016047,0.8127968,0.66152924
1644,A,1819424918873000,1.5447876,-10.466236,-6.959927,0.17044231,0.9864349,-0.013848438
1644,A,1819424938969000,0.038320314,-11.081756,-6.6653395,-0.41758367,0.8586032,0.014913702
1644,A,1819424959170000,0.083825685,-12.379856,-2.5530908,-1.1653993,-0.38136467,0.314253
1644,A,1819424979266000,0.21794678,-13.333075,-0.29698244,-1.3923006,0.010652645,-0.07882957
1644,A,1819424999469000,-1.0466236,-12.78222,0.047900394,-0.9310411,0.8383631,-0.08735169
1644,A,1819425019565000,-3.391348,-9.944121,-0.5005591,-0.068176925,0.45167214,0.15446335
1644,A,1819425039765000,-5.0199614,-8.720266,-0.24908204,0.221575,0.19920446,0.025566347
1644,A,1819425059861000,-5.6498513,-9.750125,1.5639478,0.27377295,0.35473305,0.026631612
1644,A,1819425080046000,-4.287085,-9.793235,2.0261867,0.07563378,0.22796659,0.07456851
1644,A,1819425100142000,-3.5877395,-7.9634404,1.3483961,-0.04474111,0.15765914,-0.051132694
1644,A,1819425120342000,-3.535049,-7.429351,2.3782544,-0.4282363,0.4250405,-0.3291667
1644,A,1819425140438000,-2.7830129,-7.92033,3.056045,-0.551807,0.89375687,-0.5006743
1644,A,1819425160637000,-1.9327809,-7.6449027,2.203418,0.35260254,0.9086706,-0.49215218
1644,A,1819425180733000,-1.1687696,-7.4940166,1.4106666,-0.10013486,1.2516857,-0.6593987
1644,A,1819425200933000,-0.7831714,-7.441326,0.92926764,-0.24607609,2.1315942,-0.41971418
1644,A,1819425221029000,-0.23710695,-7.5251517,0.6466553,0.6988135,0.2759035,0.15233281
1644,A,1819425241226000,0.38080812,-7.9826,0.83586186,-0.32810146,-3.037069,-0.083090626
1644,A,1819425261322000,0.5340894,-8.011341,0.8430469,-0.94275904,-1.8780613,-0.34834146
1644,A,1819425281539000,0.6849756,-8.308323,0.58677983,-0.6711166,0.112918034,-0.16831179
1644,A,1819425301635000,0.9651929,-8.660391,0.3879932,-0.9395633,-0.30360037,-0.22903186
1644,A,1819425321834000,1.1639795,-8.760982,0.1820215,-0.60507023,-0.5784386,-0.40266997
1644,A,1819425341930000,1.1376343,-8.902288,-0.07185059,0.033023197,-0.60933125,-0.33662358
1644,A,1819425362135000,1.0322535,-9.096285,-0.37122804,0.40053943,-0.7275756,-0.32490566
1644,A,1819425382231000,0.8981324,-8.995694,-0.613125,0.58056915,-0.8681905,-0.34621096
1644,A,1819425402446000,0.8334668,-8.945398,-0.69695073,0.99495703,-1.2655342,-0.24820662
1644,A,1819425422542000,0.8143067,-9.630374,-0.55324954,1.9302592,-1.7417074,0.38029942
1644,A,1819425442748000,0.852627,-10.868599,-0.4239185,2.6908581,-0.5752428,0.9353022
1644,A,1819425462844000,0.6586304,-11.840977,-0.53169435,1.3699301,0.9598033,0.45806372
1644,A,1819425483047000,0.3903882,-12.056529,-0.8310718,-0.24501082,0.8245147,-0.2130529
1644,A,1819425503143000,0.6394702,-12.317586,-1.0442286,-0.36005938,0.46658584,0.21731395
1644,A,1819425523343000,1.2022998,-13.697117,-1.099314,-0.58483016,0.567786,0.12783173
1644,A,1819425543439000,1.1064991,-14.544954,-1.4992822,-0.4165184,0.49215218,-0.27696875
1644,A,1819425563592000,0.10777588,-13.838424,-1.6334034,0.09374327,0.22903186,-0.05965481
1644,A,1819425583688000,-0.70174074,-10.962005,-1.468147,0.06391586,0.3355583,0.025566347
1644,A,1819425603889000,-0.6227051,-8.866363,-0.8143067,0.14168017,0.06924219,-0.19813919
1644,A,1819425623985000,-1.22146,-8.291558,-0.4263135,0.3174488,-0.3387541,-0.24501082
1644,A,1819425644185000,-2.2632935,-9.093889,-0.51013917,0.28975195,-0.33981937,-0.05965481
1644,A,1819425664281000,-3.4703834,-10.130933,-0.6586304,0.2790993,-0.314253,0.03195793
1644,A,1819425684484000,-5.149292,-10.221944,-0.38559815,0.67218184,-0.67005134,-0.22264028
1644,A,1819425704580000,-5.465435,-9.68067,0.4382886,0.32170987,-0.5305017,-0.42717105
1644,A,1819425724797000,-4.392466,-8.681946,1.1879297,-0.55606806,0.13102753,-0.2759035
1644,A,1819425744893000,-4.296665,-7.5299416,0.84065187,-0.03834952,0.43249738,-0.4101268
1644,A,1819425765091000,-3.171006,-6.864126,0.3305127,0.5134575,0.7850999,-0.6689861
1644,A,1819425785187000,-2.064507,-6.337222,0.30177248,0.479369,0.33129725,-0.024501082
1644,A,1819425805388000,-2.311194,-6.4042826,0.047900394,0.49747851,-0.58269966,0.572047
1644,A,1819425825484000,-2.9027638,-7.175479,-0.08861572,0.4261058,-0.5539375,0.08522116
1644,A,1819425845687000,-2.6369166,-7.8412943,0.14849122,0.5816344,0.039414786,-0.4111921
1644,A,1819425865783000,-1.8489552,-8.0017605,0.45026368,0.45380265,0.32597092,-0.40053943
1644,A,1819425885985000,-1.1735597,-7.951465,0.8334668,0.27483824,0.14594123,-0.058589544
1644,A,1819425906081000,-0.4526587,-8.157437,0.8646021,0.15765914,-0.05219796,0.098004326
1644,A,1819425926283000,0.23950197,-8.449629,0.60594,0.3121225,-0.28549087,0.03195793
1644,A,1819425946379000,0.62749517,-8.935819,0.53169435,0.16298546,-0.5305017,-0.024501082
1644,A,1819425966581000,0.73527104,-9.065149,0.21794678,-0.29294774,-0.1470065,0.14594123
1644,A,1819425986677000,1.1160791,-9.522598,-0.25387207,-0.24714136,-0.0628506,0.21837921
1644,A,1819426006862000,2.907554,-11.014695,-3.300337,0.08735169,-0.4495416,0.18429075
1644,A,1819426026958000,9.15616,-13.32589,-19.845133,-0.056459017,-0.773382,0.18109496
1644,A,1819426047159000,4.3134303,-12.2361555,-11.347603,0.19920446,-0.19813919,0.07882957
1644,A,1819426067255000,-1.3172607,-9.73815,-2.1004322,0.8863,0.32490566,0.15978967
1644,A,1819426087458000,2.675237,-10.95482,-4.382886,0.51452273,0.6103965,0.3355583
1644,A,1819426107554000,2.7399025,-12.731924,-4.071533,0.28442562,0.6114618,-0.2396845
1644,A,1819426127756000,1.3292359,-12.3487215,-1.1160791,0.18109496,0.10865697,-0.27057716
1644,A,1819426147852000,0.8286768,-11.316468,-0.37601808,-0.5028048,0.025566347,0.002130529
1644,A,1819426168054000,-1.8369801,-9.283096,-0.9148975,-0.64768076,0.2695119,-0.2609898
1644,A,1819426188150000,-4.0859036,-9.687855,-1.3100758,-0.10013486,0.13102753,-0.33449304
1644,A,1819426208400000,-6.2342362,-11.115286,0.09580079,-0.080960095,0.23435818,-0.2545982
1644,A,1819426228496000,-8.198153,-10.887759,2.7303224,-0.1917476,0.12783173,-0.13422333
1644,A,1819426248696000,-6.574329,-8.749006,2.3902297,-0.221575,-0.11824436,-0.051132694
1644,A,1819426268792000,-4.6607084,-6.5791187,0.6011499,-0.32597092,-0.080960095,-0.039414786
1644,A,1819426288991000,-2.8883936,-6.552774,1.3124708,-0.14168017,-0.05006743,-0.025566347
1644,A,1819426309087000,-1.83219,-7.549102,3.300337,-0.21837921,-0.036218993,0.09374327
1644,A,1819426329288000,-2.0237916,-7.6496925,3.1063404,-0.87138635,-0.082025364,0.10013486
1644,A,1819426349384000,-2.0118165,-7.414981,1.346001,-1.4775218,0.12250541,-0.05006743
1644,A,1819426369581000,-1.695674,-7.6496925,-0.026345216,-1.0279802,0.88843054,-0.37923414
1644,A,1819426389677000,-0.7711963,-8.310719,-0.732876,-0.3387541,1.5904398,-0.32597092
1644,A,1819426409878000,-0.11496094,-8.562195,-0.7568262,0.07882957,0.35473305,0.26418558
1644,A,1819426429974000,0.22273682,-8.411309,-0.5364844,0.14807177,-0.37923414,-0.037284255
1644,A,1819426449989000,0.50774413,-8.231683,-0.2203418,0.24607609,-0.7499462,-0.0010652645
1644,A,1819426470085000,0.7496411,-8.071217,-0.21076173,0.44421527,-0.86179894,0.35792887
1644,A,1819426490281000,0.8669971,-8.202942,-0.5029541,0.18109496,-0.2972088,0.3355583
1644,A,1819426510377000,0.98435307,-8.653206,-0.7759864,0.11824436,0.15978967,0.30999196
1644,A,1819426530585000,1.0322535,-9.208851,-0.94603276,0.32384038,-0.098004326,0.294013
1644,A,1819426550681000,1.0059083,-9.798025,-0.9627979,0.18535602,-0.6860303,0.24820662
1644,A,1819426570879000,1.0490186,-10.722503,-0.87178713,-0.2727077,-0.6849651,0.16618125
1644,A,1819426590975000,1.0753639,-11.843372,-0.96040285,-0.22370553,-0.18855181,0.08841695
1644,A,1819426611174000,1.4992822,-12.324771,-2.440525,0.45806372,0.035153728,0.18961707
1644,A,1819426631270000,1.8130299,-12.245735,-3.1494508,0.96299905,0.004261058,0.7339672
1644,A,1819426651483000,1.8345851,-13.261224,-1.9639161,0.4910869,0.50600064,0.4495416
1644,A,1819426671579000,1.4944923,-14.748531,-0.81909674,-0.28549087,1.0897655,-0.70200926
1644,A,1819426691779000,0.5221143,-14.259947,-0.87897223,0.06924219,0.9353022,-0.3472762
1644,A,1819426711875000,-0.62749517,-11.172767,-1.3388159,0.28868666,-0.10652645,0.19068234
1644,A,1819426732075000,-0.6682105,-9.821976,-0.9196875,-0.33449304,-0.4708469,-0.040480047
1644,A,1819426752171000,-1.2094849,-10.578802,-0.37601808,-0.777643,-0.5294364,0.082025364
1644,A,1819426772343000,-2.7135572,-11.457774,-0.083825685,-0.4463458,-0.52624065,0.060720075
1644,A,1819426792439000,-4.402046,-11.54639,-0.21555176,-0.083090626,-0.22903186,-0.10865697
1644,A,1819426812639000,-5.9635987,-10.643467,-0.11496094,0.257794,-0.056459017,-0.0628506
1644,A,1819426832735000,-6.1935205,-9.081915,0.4526587,0.17470337,-0.10546118,0.04474111
1644,A,1819426852899000,-5.254673,-7.3862405,0.68018556,0.10333065,-0.22050974,0.11717909
1644,A,1819426872995000,-4.4667115,-6.006709,0.059875492,0.06391586,-0.07882957,0.033023197
1644,A,1819426893195000,-2.672842,-5.4295096,-0.2706372,-0.10972224,0.0777643,-0.111852765
1644,A,1819426913291000,-1.4250367,-5.271438,-0.10777588,-0.32490566,0.13528858,-0.15126756
1644,A,1819426933482000,-1.1735597,-5.5612354,0.32572266,-0.45699844,0.2130529,-0.20879184
1644,A,1819426953578000,-1.3531861,-6.327642,0.34009278,0.024501082,1.0535465,-0.4825648
1644,A,1819426973852000,-2.0309765,-7.422166,-0.43110353,0.18429075,1.1451592,-0.17044231
1644,A,1819426993948000,-2.179468,-8.202942,-0.67539555,0.040480047,0.070307456,0.8724516
1644,A,1819427014108000,-1.9591261,-8.389753,-0.55324954,-0.5699165,-0.9267801,0.7797736
1644,A,1819427034268000,-1.7124391,-8.119117,-0.2921924,-0.18216023,-0.64555025,0.05219796
1644,A,1819427054396000,-1.2286451,-7.7359133,-0.119750984,0.83942837,-0.036218993,0.10652645
1644,A,1819427074597000,-1.0753639,-8.241262,-0.0047900393,0.40373522,0.50600064,0.12357068
1644,A,1819427094850000,-0.974773,-9.560919,-0.17483643,0.08522116,0.41438788,-0.043675844
1644,A,1819427114946000,-0.74006104,-11.050621,-0.24189699,0.2545982,-0.30146983,0.017044231
1644,A,1819427135119000,-0.5125342,-12.1379595,0.06706055,-0.2130529,-0.535828,0.12144015
1644,A,1819427155215000,0.6394702,-12.396622,-2.7399025,-0.6348976,-0.4079963,0.11824436
1644,A,1819427175400000,11.534414,-16.669336,-37.546722,-0.47617322,-0.24394555,-0.051132694
1644,A,1819427195496000,0.8909473,-13.486356,-9.436378,0.035153728,0.053263225,-0.29188246
1644,A,1819427215697000,-5.017566,-8.5598,11.5895,0.49002165,-0.23861924,-0.054328486
1644,A,1819427235793000,1.7435743,-9.472302,2.44292,0.7914915,0.26738137,0.23116238
1644,A,1819427255986000,2.3854396,-10.815908,-0.059875492,0.716923,0.7552725,0.14594123
1644,A,1819427276082000,-0.49337405,-10.253079,-0.050295413,0.48363006,0.31957933,-0.34088463
1644,A,1819427296284000,-1.585503,-10.502161,-1.9160157,-0.035153728,0.07350325,-0.06711166
1644,A,1819427316380000,-1.949546,-10.753638,-3.295547,-0.6178534,-0.26312032,0.23861924
1644,A,1819427336574000,-2.0094216,-11.108101,-2.1579127,-0.7339672,-0.7105314,0.19920446
1644,A,1819427356670000,-3.6380348,-10.93087,0.14370118,-1.0141318,-1.1451592,0.058589544
1644,A,1819427376850000,-6.1959157,-9.457932,2.1531227,-0.97258645,-1.1323761,-0.082025364
1644,A,1819427396946000,-6.9096317,-7.340735,2.9722195,0.08628642,-0.5784386,-0.23755397
1644,A,1819427417144000,-6.4018874,-5.8127127,2.6464968,0.79042625,0.033023197,-0.2428803
1644,A,1819427437240000,-4.8091993,-5.2929935,2.1579127,0.29933932,0.04474111,-0.14594123
1644,A,1819427457429000,-2.4764502,-5.233118,1.0801538,-0.33129725,-0.27057716,-0.12144015
1644,A,1819427477525000,-1.6046631,-5.364844,0.6346802,-0.26844665,-0.34301516,-0.15233281
1644,A,1819427497733000,-2.2632935,-6.0665846,1.3723463,-0.17576863,-0.21731395,-0.024501082
1644,A,1819427517829000,-2.1650977,-7.089258,1.6166383,-0.4293016,0.1438107,-0.096939065
1644,A,1819427538043000,-1.463357,-7.9538603,1.7627344,0.28336033,0.58056915,-0.34514567
1644,A,1819427558139000,-0.6730005,-8.638836,1.468147,-0.16085494,1.0002834,-0.18002969
1644,A,1819427578328000,0.05748047,-9.14179,0.96040285,-0.8522116,0.34834146,0.63702816
1644,A,1819427598424000,0.58677983,-9.16574,0.5748047,-0.8564726,-0.46552056,0.5475459
1644,A,1819427618628000,1.2022998,-9.134604,0.32572266,-0.06924219,-0.25353295,-0.36325517
1644,A,1819427638724000,1.8776954,-9.244776,0.17723145,0.5773733,0.35153726,-0.17470337
1644,A,1819427658916000,2.4141798,-9.419612,-0.17004639,0.27696875,0.25992453,-0.034088463
1644,A,1819427679012000,3.0368848,-10.219549,-0.51492923,-0.12037488,-0.023435818,-0.020240024
1644,A,1819427699295000,4.4451566,-12.4612875,-7.800579,-0.015978966,-0.007456851,0.060720075
1644,A,1819427719391000,4.397256,-13.622871,-10.847044,-0.034088463,-0.2972088,0.07137272
1644,A,1819427739624000,3.9589674,-11.898458,-2.5171657,-0.330232,-0.50600064,0.013848438
1644,A,1819427759720000,4.1864944,-11.203902,-2.3375392,-0.31638354,-0.6466155,-0.004261058
1644,A,1819427779913000,4.0020776,-13.189373,-1.4465919,-0.094808534,-0.6380934,-0.08948222
1644,A,1819427800009000,3.2332766,-15.280225,-1.0609937,0.24501082,-0.8543421,0.14487597
1644,A,1819427820201000,1.477727,-14.729371,-1.7603394,0.43356264,0.16831179,0.070307456
1644,A,1819427840297000,-0.40715334,-11.630216,-1.7699195,0.29614353,1.3262542,-0.0628506
1644,A,1819427860494000,-1.8226099,-10.090218,-1.0346485,-0.12783173,0.83516735,0.054328486
1644,A,1819427880590000,-4.397256,-9.441168,-0.39996827,-0.28336033,0.26205507,0.18855181
1644,A,1819427900767000,-6.0737696,-9.469908,1.6525636,-0.43036684,-0.25353295,0.49854377
1644,A,1819427920863000,-3.8583767,-10.9069195,3.9374123,0.1917476,-0.58483016,0.12357068
1644,A,1819427941070000,-1.8058448,-9.438772,2.0932472,0.7701862,-0.29933932,-0.55606806
1644,A,1819427961166000,-1.3675562,-7.321575,-0.026345216,-0.165116,0.21731395,-1.1856394
1644,A,1819427981379000,-1.3292359,-6.7779055,-0.6849756,-0.2695119,-0.46978164,-0.793622
1644,A,1819428001475000,-1.6789087,-6.7611403,0.040715333,0.6348976,-0.30999196,0.28229508
1644,A,1819428021710000,-1.9974464,-6.9168167,0.27303225,0.53263223,0.6040049,0.2066613
1644,A,1819428041806000,-1.2094849,-6.9383717,0.2706372,0.24714136,-0.25566345,-0.00958738
1644,A,1819428062006000,-0.57001466,-7.062913,-0.11496094,-0.36432046,-0.3472762,0.16192019
1644,A,1819428082102000,-0.6514453,-7.599397,-0.27542725,-0.10333065,-0.4889564,0.041545313
1644,A,1819428102319000,-0.009580079,-8.51669,0.15567628,-0.42290998,-1.5009576,0.19068234
1644,A,1819428122415000,0.89573735,-9.060359,0.61073,0.21944448,0.29933932,-0.15446335
1644,A,1819428142632000,1.8609302,-9.261541,0.07185059,0.6135923,0.5571333,0.10546118
1644,A,1819428162728000,3.9565725,-9.287886,-1.9830762,-0.30466563,-0.4708469,0.721184
1644,A,1819428182924000,5.0582814,-8.863968,-4.145779,-0.18322548,-0.22583607,0.5400891
1644,A,1819428203020000,3.9637575,-8.205338,-4.5744877,0.12250541,0.28442562,-0.05539375
1644,A,1819428223220000,3.6907253,-8.281978,-5.110972,-0.26205507,0.037284255,0.0777643
1644,A,1819428243316000,3.8320315,-8.691526,-5.745652,-0.5816344,0.13209279,-0.14594123
1644,A,1819428263511000,3.175796,-9.398057,-6.133645,-0.6018744,0.40053943,-0.21837921
1644,A,1819428283607000,2.572251,-10.590776,-6.229446,-0.13315806,0.4111921,0.033023197
1644,A,1819428303807000,3.0368848,-11.448194,-5.7815776,0.02876214,0.18322548,0.16405073
1644,A,1819428323903000,3.9134622,-11.577525,-4.703819,-0.058589544,-0.22264028,-0.25992453
1644,A,1819428344102000,3.1949563,-11.338023,-2.4644752,-0.56672066,-0.43675843,-0.55074173
1644,A,1819428364198000,1.6094532,-10.894944,-1.1903248,-0.69668293,-0.6199839,-0.18216023
1644,A,1819428384392000,-2.4620802,-10.212363,-1.0849439,-0.13528858,-0.5432849,0.0628506
1644,A,1819428404488000,-9.012459,-9.702225,-0.019160157,0.37284255,-0.9534117,0.21198763
1644,A,1819428424685000,-10.030342,-10.875784,2.2058132,0.65726817,-0.49002165,0.46339005
1644,A,1819428444781000,-2.335144,-12.80138,3.293152,1.2420983,1.2719258,1.1920309
1644,A,1819428464985000,3.6140847,-12.564273,2.806963,0.6178534,1.9025623,0.5496765
1644,A,1819428485081000,-2.2656887,-9.486672,1.468147,-0.40586576,1.6074841,-0.74461985
1644,A,1819428505249000,-4.718189,-9.445957,2.4501052,0.35579833,0.75101143,-0.41545314
1644,A,1819428525345000,0.040715333,-9.74294,3.2428565,0.54648066,-0.10333065,0.101200126
1644,A,1819428545392000,3.3171022,-8.914263,3.6284547,-0.4111921,0.221575,0.049002163
1644,A,1819428565488000,3.2524366,-7.7622585,4.5720925,-0.51452273,0.19707392,-0.07563378
1644,A,1819428585653000,1.331631,-6.337222,3.1422658,-0.59122175,-0.0053263223,0.0063915867
1644,A,1819428605749000,-0.3520679,-5.3169436,-0.58198977,-0.50387007,-0.025566347,-0.13315806
1644,A,1819428625945000,0.47900394,-6.1240654,-1.7794995,-0.257794,-0.8724516,0.10865697
1644,A,1819428646041000,0.974773,-7.3383403,-1.9351759,-0.44741106,-0.42397526,0.22690132
1644,A,1819428666270000,1.6932789,-8.258028,-2.5411158,0.18535602,-0.26312032,0.004261058
1644,A,1819428686366000,1.9279908,-8.701106,-2.308799,0.111852765,0.0628506,-0.3749731
1644,A,1819428706568000,1.0729688,-7.9347,-3.422483,-0.15126756,-0.13528858,-0.32277513
1644,A,1819428726664000,0.8909473,-7.7430983,-3.8080812,-0.28549087,0.8064052,-0.44315
1644,A,1819428746866000,1.5495777,-8.715476,-2.7279274,0.09267801,0.753142,-0.020240024
1644,A,1819428766962000,2.2585034,-9.163345,-1.0035132,-0.010652645,0.36964676,0.60720074
1644,A,1819428787161000,2.680027,-9.546548,0.5005591,-0.018109497,0.041545313,0.7840346
1644,A,1819428807257000,2.6776319,-10.135723,1.0825489,-0.025566347,-1.0130665,0.51771855
1644,A,1819428827457000,2.543511,-10.744058,1.0753639,0.53795856,-1.252751,0.4346279
1644,A,1819428847553000,2.792593,-11.304493,1.0322535,0.8788432,-1.2090752,0.48682585
1644,A,1819428867750000,3.1494508,-11.821816,1.1064991,0.43036684,-1.3454291,0.65726817
1644,A,1819428887846000,3.3602126,-12.84928,1.2046949,-0.05752428,-1.0205233,0.62317973
1644,A,1819428908047000,2.8668385,-13.814473,1.5423926,-0.4889564,-0.34621096,0.054328486
1644,A,1819428928143000,1.6070582,-14.101875,1.6022681,-0.5091964,-0.33662358,-0.30146983
1644,A,1819428948342000,-0.4622388,-12.054133,1.0585986,-0.013848438,-0.21837921,-0.2428803
1644,A,1819428968438000,-2.2249732,-9.707015,-0.30177248,0.29827404,-0.11717909,-0.11930962
1644,A,1819428988633000,-3.5661843,-8.2197075,-1.3819263,0.13635385,-0.36112466,0.128897
1644,A,1819429008729000,-5.9300685,-7.544312,-1.2334352,0.47297743,0.87990844,0.26205507
1644,A,1819429028929000,-7.6113725,-8.145462,-0.8813672,0.8479505,1.5563514,0.16085494
1644,A,1819429049025000,-4.8499146,-9.527389,-1.2549903,0.9108011,0.165116,0.041545313
1644,A,1819429069223000,-0.90771246,-9.237591,-1.1903248,0.74035877,-0.11717909,-0.17576863
1644,A,1819429089319000,0.43589357,-8.914263,-1.0609937,-0.3888215,0.5933523,-0.56672066
1644,A,1819429109522000,0.3161426,-8.986114,-1.583108,-0.8117315,0.67537767,-0.6178534
1644,A,1819429129618000,-0.07664063,-8.138277,-1.951941,-0.6487461,0.59122175,-0.56245965
1644,A,1819429149849000,0.56522465,-7.2640944,-1.5256275,-0.76912093,0.28336033,-0.6359629
1644,A,1819429169945000,1.585503,-7.101233,-1.4106666,-0.6359629,0.28868666,-0.7286409
1644,A,1819429190321000,2.2417383,-7.424561,-1.583108,-0.10439592,0.039414786,-0.42717105
1644,A,1819429210417000,2.0285816,-7.534732,-1.8609302,0.2247708,-0.30999196,0.002130529
1644,A,1819429230630000,1.6765138,-7.5131764,-1.9399658,0.19707392,-0.3174488,0.05539375
1644,A,1819429250726000,1.7818946,-7.846084,-1.4729371,0.2545982,-0.21731395,0.101200126
1644,A,1819429270930000,2.2106032,-8.214917,-1.3603711,0.24820662,-0.26631612,0.12250541
1644,A,1819429291026000,1.9016455,-8.289163,-1.6070582,-0.1470065,0.17576863,-0.31957933
1644,A,1819429311226000,2.0237916,-8.665181,-1.7531544,-0.08841695,0.07563378,-0.6103965
1644,A,1819429331322000,2.430945,-9.048384,-1.8465601,0.0127831735,0.37923414,-0.15659387
1644,A,1819429351522000,2.574646,-9.24717,-1.4465919,0.21944448,0.10226539,0.7850999
1644,A,1819429371618000,2.2417383,-9.711804,-1.094524,0.101200126,-0.6689861,0.5997439
1644,A,1819429391819000,2.3375392,-10.059082,-1.5328126,0.1768339,-0.38029942,-0.05539375
1644,A,1819429411915000,2.6608667,-10.303374,-2.179468,0.6018744,-0.57098174,0.2514024
1644,A,1819429432115000,3.300337,-10.691368,-2.572251,0.29188246,-0.36325517,0.52624065
1644,A,1819429452211000,3.9469924,-11.424244,-3.032095,-0.12676647,-0.19068234,0.68816084
1644,A,1819429472414000,1.8968556,-12.698394,-2.792593,-0.1470065,-0.040480047,0.73822826
1644,A,1819429492510000,-1.4873072,-12.705579,-1.0250684,-0.16724652,0.3749731,0.41438788
1644,A,1819429512713000,-5.5420756,-11.989469,-1.1136842,0.0,0.05006743,-0.13635385
1644,A,1819429532809000,-8.243657,-11.02188,-0.37122804,0.06711166,-0.58056915,-0.44741106
1644,A,1819429553009000,-4.6750784,-10.868599,0.55324954,0.06178534,-0.8607337,-0.40906155
1644,A,1819429573105000,0.05269043,-10.688972,0.0047900393,0.36645097,-0.8117315,-0.34301516
1644,A,1819429593310000,0.102985844,-9.342972,0.9412427,0.0127831735,-0.41971418,0.24927188
1644,A,1819429613406000,-2.4022048,-8.677156,1.9160157,0.7755125,0.42077947,0.6487461
1644,A,1819429633559000,-2.5890162,-9.1130495,2.8213332,1.5733956,0.6849651,0.94488955
1644,A,1819429653655000,-0.27542725,-9.592053,3.8128712,1.490305,-0.9736517,-0.05219796
1644,A,1819429673859000,2.0357666,-9.4507475,4.2367897,-0.14061491,0.007456851,-0.44741106
1644,A,1819429693955000,1.9375709,-8.643626,4.4595265,-0.4889564,0.40373522,0.22903186
1644,A,1819429714156000,0.52690434,-7.0126176,3.3051271,-0.5113269,0.10759171,-0.08735169
1644,A,1819429734252000,-0.3161426,-6.133645,0.5556446,-0.5294364,0.26631612,-0.37390783
1644,A,1819429754448000,-0.047900394,-6.8976564,-1.0083033,-0.49215218,0.21624869,-0.3057309
1644,A,1819429774544000,0.14130616,-7.575447,-1.3986914,-0.36325517,0.19387813,-0.34194988
1644,A,1819429794746000,1.094524,-8.054451,-1.6166383,-0.11611383,0.11504856,-0.21731395
1644,A,1819429814842000,1.4944923,-7.9778104,-1.2717555,-0.098004326,0.17257284,-0.023435818
1644,A,1819429835042000,1.1543995,-7.5970025,-1.8776954,-0.29507825,0.35899413,-0.12676647
1644,A,1819429855138000,0.6610254,-7.350315,-2.8716285,-0.8181231,0.6125271,-0.44208476
1644,A,1819429875358000,0.9268726,-7.9634404,-3.2811768,-0.5773733,0.31851408,-0.8309063
1644,A,1819429895454000,1.4992822,-8.617281,-2.6249416,0.26525086,0.30146983,-0.5006743
1644,A,1819429915656000,2.299219,-8.226892,-1.2430152,0.4910869,0.12783173,-0.08841695
1644,A,1819429935752000,2.7854078,-8.238868,-0.2083667,0.10013486,-0.23009712,0.5763081
1644,A,1819429955955000,2.6967921,-9.10347,0.18441652,0.53476274,0.13635385,0.22690132
1644,A,1819429976051000,2.7015822,-10.071057,0.25866213,0.5656554,-0.26844665,0.14168017
1644,A,1819429996252000,2.8716285,-10.729688,0.5388794,0.45699844,-0.36112466,0.26312032
1644,A,1819430016348000,2.6273365,-11.6876955,1.0394385,0.52411014,-0.221575,0.2428803
1644,A,1819430036549000,2.7422974,-14.695841,1.9902613,0.18855181,-0.12676647,0.22370553
1644,A,1819430056645000,2.3902297,-17.814156,2.5051906,-0.17576863,-0.2695119,0.15765914
1644,A,1819430076834000,-0.3065625,-16.896864,1.8010547,-0.31851408,-0.2695119,-0.111852765
1644,A,1819430096930000,-1.9136207,-11.393108,0.97237796,-0.17896444,-0.4527374,-0.49641323
1644,A,1819430117125000,-1.5423926,-7.6496925,-0.3065625,-0.128897,-0.7914915,-0.5251754
1644,A,1819430137221000,-3.290757,-6.1695704,-1.6477735,-0.060720075,-0.51665324,-0.20985709
1644,A,1819430157422000,-6.090535,-5.886958,-1.1136842,-0.0777643,-0.11824436,0.6487461
1644,A,1819430177518000,-5.6809864,-8.188572,-0.16525635,0.87777793,0.5411543,1.0684602
1644,A,1819430197732000,-1.4010864,-9.865086,0.16525635,1.3464943,0.5571333,1.1259845
1644,A,1819430217828000,-0.22273682,-9.5489435,-0.5460645,0.6593987,-0.15446335,-0.21518342
1644,A,1819430237988000,-0.86939216,-9.992022,-1.6525636,-0.15339808,0.23222765,-0.43569317
1644,A,1819430258116000,-0.60594,-9.639954,-2.069297,-0.664725,0.56459016,-0.0063915867
1644,A,1819430278276000,0.5292993,-8.605306,-1.5016773,-1.3262542,0.5773733,-0.5933523
1644,A,1819430298500000,1.2022998,-7.685618,-1.1256592,-1.3369069,0.42077947,-0.700944
1644,A,1819430318627000,1.6190332,-7.206614,-1.3148658,-0.813862,0.19707392,-0.37816888
1644,A,1819430338723000,1.6717237,-7.213799,-1.4106666,-0.15126756,-0.00958738,-0.10865697
1644,A,1819430358896000,1.7172291,-7.460486,-1.4322218,0.20133498,-0.025566347,0.084155895
1644,A,1819430378992000,1.8705103,-7.673643,-1.1807446,0.022370555,0.099069595,0.09374327
1644,A,1819430399194000,1.947151,-7.7287283,-0.9963282,-0.47830373,0.2545982,-0.1438107
1644,A,1819430419290000,1.4130616,-7.7335186,-1.1951149,-0.75633776,0.35792887,-0.35260254
1644,A,1819430439492000,1.1280543,-8.047266,-1.2981006,-0.11717909,0.02876214,-0.4048005
1644,A,1819430459588000,2.1124072,-8.315508,-1.6789087,0.6317018,-0.07669904,-0.3057309
1644,A,1819430479788000,3.1183155,-8.468789,-2.327959,0.9821738,-0.76485986,0.037284255
1644,A,1819430499884000,3.2739918,-8.981323,-2.2201831,0.128897,-0.4676511,0.5635249
1644,A,1819430520072000,2.7566676,-9.817185,-1.6860938,-0.06711166,0.060720075,-0.06391586
1644,A,1819430540168000,2.8812087,-10.40157,-1.7603394,0.27164245,-0.5336975,-0.24607609
1644,A,1819430560361000,3.530259,-10.751244,-2.912344,0.112918034,-0.6466155,0.22690132
1644,A,1819430580457000,4.0571632,-11.270963,-3.6500099,0.058589544,-0.49215218,0.2034655
1644,A,1819430600655000,3.408113,-12.3487215,-2.9865894,0.14594123,-0.23542345,0.30679616
1644,A,1819430620751000,0.92926764,-12.81575,-0.9053174,0.19281286,-0.2759035,0.24394555
1644,A,1819430640950000,-2.1650977,-12.4612875,-0.7041358,-0.07989483,-0.31957933,0.10226539
1644,A,1819430661046000,-5.46304,-11.311678,-0.5508545,-0.32597092,-0.3920173,-0.17150758
1644,A,1819430681257000,-6.09772,-10.439891,0.78556645,-0.1949434,-0.60507023,-0.17044231
1644,A,1819430701353000,-2.193838,-11.076965,0.9699829,0.18535602,-0.43569317,0.0010652645
1644,A,1819430721560000,1.2094849,-10.423125,0.95561284,0.56245965,0.29188246,0.6263755
1644,A,1819430741656000,-1.2765454,-8.638836,0.97956306,1.1547467,0.79894835,1.2378373
1644,A,1819430761857000,-3.04407,-9.242381,2.1100123,0.6711166,0.21837921,0.19920446
1644,A,1819430781953000,-0.9627979,-10.277029,3.3889527,-0.08841695,-0.7488809,-0.49641323
1644,A,1819430802148000,1.4944923,-9.721385,3.1278956,-0.37284255,0.6679208,0.30040458
1644,A,1819430822244000,1.9160157,-8.53585,2.2177882,-0.20026971,0.6956177,-0.068176925
1644,A,1819430842445000,1.5328126,-7.422166,1.4058765,-0.17470337,0.40053943,-0.4612595
1644,A,1819430862541000,1.1735597,-6.6677346,0.60833496,-0.6870956,1.2964269,-0.13635385
1644,A,1819430882759000,1.1615845,-6.5000834,0.045505375,-0.78723043,1.3124058,-0.42077947
1644,A,1819430902855000,1.5591577,-6.8904715,-0.14370118,-0.3334278,0.9395633,-0.65194184
1644,A,1819430923065000,1.6549586,-7.206614,-0.39757326,0.05539375,0.6263755,-0.19813919
1644,A,1819430943161000,1.6501685,-7.34313,-0.74724615,0.2034655,0.30360037,0.07989483
1644,A,1819430963374000,1.6860938,-7.288045,-1.1687696,-0.03089267,0.096939065,0.002130529
1644,A,1819430983470000,1.710044,-7.247329,-1.7339942,-0.48469532,0.02876214,-0.22370553
1644,A,1819431003690000,1.7339942,-7.7071733,-2.1124072,-0.6423545,-0.041545313,-0.45380265
1644,A,1819431023786000,1.954336,-8.49274,-1.8633252,0.0053263223,0.07989483,-0.3930826
1644,A,1819431043978000,2.3135889,-8.495134,-1.1735597,0.58056915,-0.14594123,-0.45060685
1644,A,1819431064074000,2.44771,-8.646021,-0.46463382,0.45060685,-0.9139969,0.02130529
1644,A,1819431084261000,2.7279274,-9.7621,0.24668702,0.15446335,-0.3472762,0.12250541
1644,A,1819431104357000,3.056045,-10.705738,0.8214917,0.61572284,-0.72970617,-0.0127831735
1644,A,1819431124581000,2.9865894,-11.093731,0.80712163,0.5784386,-0.922519,0.28229508
1644,A,1819431144677000,2.8596535,-10.621912,0.6706055,0.3834952,-0.65726817,0.6135923
1644,A,1819431164874000,3.3626075,-9.903406,0.7592212,0.34088463,-0.5028048,0.757403
1644,A,1819431184970000,3.7506008,-11.211087,1.6765138,0.2396845,-0.4612595,0.60080916
1644,A,1819431205160000,3.2452517,-13.661192,2.299219,0.014913702,-0.46978164,0.330232
1644,A,1819431225256000,1.3579761,-14.837147,0.7232959,-0.099069595,-0.57311225,-0.080960095
1644,A,1819431245419000,-3.2524366,-13.110337,-2.1435425,-0.14487597,-0.62744075,-0.10865697
1644,A,1819431265515000,-5.824688,-12.458892,-2.9650342,-0.040480047,-0.060720075,0.13209279
1644,A,1819431285716000,-3.66438,-11.515254,-0.6179151,0.4676511,0.94595486,1.1494204
1644,A,1819431305812000,-3.302732,-9.764495,0.33769777,0.6945524,1.397627,0.8873653
1644,A,1819431325998000,-3.2524366,-8.679551,-1.0442286,0.406931,-0.535828,-0.6508766
1644,A,1819431346094000,-0.8909473,-8.270002,-1.1567944,0.10226539,-0.8266452,-0.51452273
1644,A,1819431366311000,-0.4622388,-8.073611,-1.5304176,-0.38242993,0.69987875,0.26205507
1644,A,1819431386407000,-0.63707525,-8.183782,-2.0237916,-0.084155895,0.49641323,-0.16298546
1644,A,1819431406590000,-0.2778223,-8.054451,-1.7866846,-0.28016454,0.3472762,-0.45060685
1644,A,1819431426686000,0.023950197,-7.903565,-1.4825171,-0.50387007,0.60933125,-0.48363006
1644,A,1819431446901000,0.9484278,-7.8029737,-1.3268409,-0.2428803,0.53263223,-0.47830373
1644,A,1819431466997000,1.705254,-7.585027,-1.336421,-0.037284255,0.46019423,-0.31851408
1644,A,1819431487184000,2.1603076,-7.34313,-1.465752,0.013848438,0.37816888,0.10759171
1644,A,1819431507280000,2.2872438,-7.189849,-1.6884888,-0.060720075,0.27483824,0.13954964
1644,A,1819431527471000,2.0261867,-7.0916533,-1.7315992,-0.3930826,0.16405073,0.002130529
1644,A,1819431547567000,1.5567628,-7.247329,-1.8010547,-0.47830373,-0.022370555,-0.47830373
1644,A,1819431567729000,1.6238233,-8.054451,-1.6932789,-0.14274544,-0.02130529,-0.60933125
1644,A,1819431587825000,2.315984,-8.732242,-1.9351759,0.5422196,-0.041545313,-0.2876214
1644,A,1819431607991000,2.8548634,-8.993299,-2.2944288,0.3270362,-0.14274544,0.11930962
1644,A,1819431628087000,3.9182522,-9.826766,-2.543511,-0.30999196,0.14594123,0.07989483
1644,A,1819431648297000,3.5973196,-10.765614,-1.8058448,0.5997439,-0.22903186,-0.21944448
1644,A,1819431668393000,2.6704469,-11.426639,-1.3388159,0.70200926,-0.6679208,0.13209279
1644,A,1819431688601000,2.555486,-12.281661,-2.818938,0.14168017,-0.6263755,0.28975195
1644,A,1819431708697000,0.6442603,-13.189373,-2.6656568,-0.015978966,-0.50813115,0.53263223
1644,A,1819431728933000,-2.0070264,-13.43606,-1.5328126,0.0127831735,-0.38242993,0.6412892
1644,A,1819431749029000,-3.7027004,-12.312796,-1.22146,-0.23861924,-0.42184472,0.40373522
1644,A,1819431769225000,-2.0166066,-10.564431,-1.1280543,-0.29827404,-0.58696073,-0.07669904
1644,A,1819431789321000,-0.68976563,-9.433982,-0.9963282,-0.2428803,-0.7552725,-0.165116
1644,A,1819431809525000,-1.81782,-8.248447,0.18441652,-0.21837921,-0.65194184,-0.14168017
1644,A,1819431829621000,-2.3950195,-7.709568,1.331631,-0.25246766,-0.29614353,0.20133498
1644,A,1819431849815000,-0.8933423,-8.382568,1.5064673,0.23648871,0.41438788,0.9555422
1644,A,1819431869911000,1.3052857,-9.970467,1.9974464,1.0652645,1.2112057,1.010936
1644,A,1819431890124000,1.4178516,-10.938055,2.4812403,0.6945524,0.12037488,-0.033023197
1644,A,1819431910220000,0.9651929,-10.796748,2.076482,0.0479369,-0.096939065,-0.2876214
1644,A,1819431930407000,0.7879615,-9.067544,0.43110353,-0.29294774,0.660464,0.07137272
1644,A,1819431950503000,0.80233157,-7.417376,-0.90771246,-0.16192019,0.8341021,-0.4165184
1644,A,1819431970693000,0.92208254,-6.9886675,-0.45026368,-0.2514024,0.64768076,-0.813862
1644,A,1819431990789000,1.4753321,-6.998247,0.3065625,-0.294013,0.628506,-0.700944
1644,A,1819432011026000,1.2454102,-6.962322,-0.102985844,-0.15126756,0.60720074,-0.3898868
1644,A,1819432031122000,1.2310401,-6.976692,-0.51971924,-0.06498113,0.3834952,-0.1949434
1644,A,1819432051318000,1.7028589,-7.2616997,-0.8262818,-0.330232,0.18429075,0.004261058
1644,A,1819432071414000,1.6789087,-7.446116,-1.1112891,-0.28016454,0.11717909,-0.10226539
1644,A,1819432091612000,1.1472144,-7.4892263,-1.5112574,-0.070307456,0.21944448,-0.0127831735
1644,A,1819432111708000,0.92208254,-7.824529,-1.6190332,-0.19281286,0.066046394,-0.33981937
1644,A,1819432131938000,1.219065,-8.372989,-1.2717555,-0.24394555,-0.014913702,-0.588026
1644,A,1819432152034000,1.8992506,-8.746612,-0.91010743,0.5965481,-0.1555286,-0.37816888
1644,A,1819432172250000,2.560276,-8.983719,-0.43349856,0.55606806,-0.32810146,0.39840892
1644,A,1819432192346000,2.7710378,-9.75252,0.1341211,-0.16192019,0.11504856,0.1257012
1644,A,1819432212576000,3.0656252,-10.502161,0.38559815,0.5049353,-0.42290998,-0.45593318
1644,A,1819432232672000,3.1183155,-11.04104,0.26584718,0.5699165,-0.4165184,0.24607609
1644,A,1819432252906000,3.1159205,-11.369158,0.021555176,0.19281286,-0.2066613,0.87138635
1644,A,1819432273002000,3.2668068,-11.115286,-0.4742139,-0.025566347,-0.17576863,0.777643
1644,A,1819432293200000,3.5039136,-11.302097,-0.6777906,-0.14913702,-0.36751625,0.38775626
1644,A,1819432313296000,3.2021413,-12.506792,-0.2945874,-0.27483824,-0.60293967,0.0628506
1644,A,1819432333499000,1.7890797,-13.486356,-0.28979737,-0.25033715,-0.8479505,-0.01917476
1644,A,1819432353595000,-1.7866846,-11.8074465,-1.7603394,-0.2727077,-1.026915,0.0777643
1644,A,1819432373799000,-4.8331494,-10.494976,-2.0357666,-0.2759035,-0.62317973,0.19920446
1644,A,1819432393895000,-4.8355446,-10.262659,-0.58677983,-0.49428272,-0.39734364,0.60720074
1644,A,1819432414092000,-4.3349857,-9.814791,0.37601808,0.41225734,0.21624869,0.1917476
1644,A,1819432434188000,-5.0678616,-9.570498,-1.1352394,1.490305,1.0908308,1.0237192
1644,A,1819432454387000,-0.39278322,-9.8866415,-0.6442603,0.4048005,0.30146983,-0.10759171
1644,A,1819432474483000,0.5508545,-9.074729,-0.6562354,-0.3653857,-0.3749731,-1.3241237
1644,A,1819432494680000,-0.033530276,-8.5598,-1.0130934,-0.4708469,0.78936094,-0.13528858
1644,A,1819432514776000,-0.014370117,-7.8772197,-1.2525953,-0.6402239,1.216532,-0.25246766
1644,A,1819432534988000,0.35685793,-7.4197707,-1.2382251,-0.6625945,0.55606806,-0.86606
1644,A,1819432555084000,1.1496094,-7.204219,-1.1232642,-0.5028048,0.753142,-0.46978164
1644,A,1819432575291000,2.2489235,-7.2545147,-1.2573853,-0.06498113,0.5411543,-0.008522116
1644,A,1819432595387000,2.8764186,-7.34313,-1.3268409,0.24501082,0.21731395,0.046871636
1644,A,1819432615585000,2.668052,-7.2281694,-1.3723463,0.13741912,0.2034655,0.1917476
1644,A,1819432635681000,1.9375709,-7.096443,-1.334026,-0.294013,0.19707392,0.06924219
1644,A,1819432655881000,1.5471827,-7.438931,-1.5783179,-0.5613944,0.16405073,-0.33449304
1644,A,1819432675977000,1.5950831,-8.0017605,-1.7818946,-0.3110572,-0.014913702,-0.644485
1644,A,1819432696172000,1.6693287,-8.169412,-1.8202149,0.38562572,-0.28868666,-0.5294364
1644,A,1819432716268000,2.090852,-8.095166,-1.7723145,0.6828345,-0.5187838,0.0628506
1644,A,1819432736467000,2.938689,-8.375383,-1.5663428,-0.26525086,-0.12144015,0.6412892
1644,A,1819432756563000,3.6979103,-9.15137,-1.3986914,0.07669904,-0.05965481,-0.24394555
1644,A,1819432776764000,3.4009278,-9.73815,-1.3076807,0.80107886,-0.70840085,-0.35153726
1644,A,1819432796860000,3.4775686,-10.128538,-1.8824854,0.61572284,-0.70200926,0.38029942
1644,A,1819432817045000,4.485872,-10.91171,-2.9099488,0.21837921,-0.51452273,0.45593318
1644,A,1819432837141000,3.7098854,-12.497212,-3.7242556,0.11930962,-0.4346279,0.4250405
1644,A,1819432857343000,0.8669971,-13.924644,-1.3747413,0.022370555,-0.26525086,0.4825648
1644,A,1819432877439000,-2.7470875,-13.893509,-1.6238233,-0.2066613,-0.28442562,0.27377295
1644,A,1819432897631000,-6.574329,-11.783497,-1.6262183,-0.2130529,-0.5475459,-0.23116238
1644,A,1819432917727000,-5.230723,-10.722503,-0.07185059,-0.25353295,-0.7190535,-0.22690132
1644,A,1819432937927000,-0.48618898,-11.515254,-0.6586304,-0.17257284,-0.51026165,-0.09054748
1644,A,1819432958023000,-0.18681154,-10.3440895,0.60833496,-0.25992453,-0.3834952,0.23222765
1644,A,1819432978220000,-2.1483326,-8.715476,1.9208057,-0.101200126,-0.34834146,0.3291667
1644,A,1819432998316000,-1.7483643,-8.760982,2.2465284,0.9171927,0.22796659,0.39627838
1644,A,1819433018521000,0.3065625,-9.242381,2.6656568,1.3677995,0.4016047,0.7584683
1644,A,1819433038617000,1.9734962,-9.074729,2.3471193,0.060720075,0.36432046,-0.0628506
1644,A,1819433058817000,2.3734643,-8.289163,2.0333717,-0.39095205,0.34834146,-0.31851408
1644,A,1819433078913000,2.4620802,-7.4101906,2.42376,-0.5091964,1.0737866,-0.3355583
1644,A,1819433099117000,1.8657203,-6.5000834,2.2656887,-0.83942837,1.0503508,-0.70840085
1644,A,1819433119213000,0.6322852,-5.949229,0.57959473,-0.7339672,0.7819041,-0.88843054
1644,A,1819433139417000,0.81191164,-6.840176,-0.07664063,-0.13209279,0.6956177,-0.28655612
1644,A,1819433159513000,1.0585986,-8.044871,-0.050295413,0.42717105,0.46871635,0.23222765
1644,A,1819433179716000,1.4585669,-8.770562,-0.4047583,0.26844665,0.34940675,0.23435818
1644,A,1819433199812000,1.094524,-8.657996,-0.8430469,-0.25885928,0.3121225,-0.011717909
1644,A,1819433220018000,0.7711963,-8.277188,-1.6262183,-0.47510794,0.25353295,-0.20772657
1644,A,1819433240114000,0.6849756,-8.210127,-2.44771,-0.13954964,0.008522116,-0.5113269
1644,A,1819433260273000,0.93405765,-8.552615,-2.8261232,0.19068234,-0.34940675,-0.48043427
1644,A,1819433280369000,1.4250367,-8.665181,-2.6896071,0.26418558,-0.36325517,0.049002163
1644,A,1819433300572000,2.1124072,-8.52627,-1.5974782,-0.070307456,-0.22796659,0.4644553
1644,A,1819433320668000,2.5938063,-9.144185,-0.63707525,0.14061491,-0.1107875,-0.27803403
1644,A,1819433340869000,2.7087672,-10.193204,-0.22273682,0.60293967,-0.56885123,-0.165116
1644,A,1819433360965000,2.8213332,-11.091336,0.14849122,0.6317018,-0.6924219,0.3653857
1644,A,1819433381160000,2.7087672,-11.179952,0.30416748,0.30253512,-0.32384038,0.44528055
1644,A,1819433401256000,2.6321266,-11.01709,0.51492923,0.12783173,-0.11504856,0.700944
1644,A,1819433421489000,2.6129665,-11.541599,1.0633887,0.20453078,-0.020240024,0.70840085
1644,A,1819433441585000,2.0190015,-12.662469,1.5376027,0.049002163,-0.15339808,0.29507825
1644,A,1819433461745000,0.5340894,-13.44085,1.465752,-0.26525086,-0.4708469,-0.14061491
1644,A,1819433481873000,-0.9388477,-12.751084,-0.016765138,-0.37284255,-0.98750013,-0.20453078
1644,A,1819433502033000,-2.1339624,-10.468631,-1.3891114,-0.38456047,-0.9406285,-0.17257284
1644,A,1819433522211000,-3.1422658,-8.804092,-1.1376343,-0.42184472,-0.4293016,0.17789917
1644,A,1819433542278000,-3.908672,-8.514295,0.05508545,-0.18961707,-0.27696875,0.2727077
1644,A,1819433562374000,-4.864285,-8.844808,0.09340577,1.1515509,0.67963874,0.664725
1644,A,1819433582543000,-3.0368848,-9.740545,-0.7065308,1.293231,0.8426242,0.8745821
1644,A,1819433602639000,-0.23231691,-9.460327,-0.9412427,-0.24181503,0.07669904,-0.7392935
1644,A,1819433622832000,-0.4263135,-8.341853,-0.8430469,-0.5251754,-0.12676647,-0.4101268
1644,A,1819433642928000,-1.4897022,-7.9394903,-0.89573735,-0.4016047,0.8426242,-0.11717909
1644,A,1819433663130000,-1.1376343,-8.238868,-0.92208254,-0.5475459,0.8000136,-0.5816344
1644,A,1819433683226000,-0.2778223,-8.370594,-1.4609619,-0.6380934,0.5581986,-0.6945524
1644,A,1819433703432000,1.4226416,-8.442444,-2.4812403,-0.39521313,0.61678815,-0.3653857
1644,A,1819433723528000,2.6776319,-8.499925,-3.159031,0.13528858,0.3930826,-0.05539375
1644,A,1819433743728000,2.315984,-7.8532696,-2.435735,0.32170987,0.23755397,0.21731395
1644,A,1819433763824000,1.4489869,-7.31918,-1.0562036,-0.165116,0.31851408,0.13741912
1644,A,1819433784024000,0.5029541,-7.326365,-0.7927515,-0.51771855,0.3110572,-0.16405073
1644,A,1819433804120000,1.101709,-7.812554,-1.2885206,-0.5187838,0.24394555,-0.53476274
1644,A,1819433824322000,0.9484278,-8.037686,-1.3627661,-0.20985709,0.01917476,-0.7254451
1644,A,1819433844418000,0.73048097,-8.145462,-1.0466236,0.50813115,-0.2514024,-0.50813115
1644,A,1819433864660000,1.0633887,-8.085587,-0.9364527,0.60933125,-0.7552725,0.16405073
1644,A,1819433884756000,1.7890797,-8.320298,-1.336421,-0.08735169,-0.24074976,0.2790993
1644,A,1819433904955000,2.6153615,-9.251961,-1.7818946,0.4165184,-0.5454154,-0.165116
1644,A,1819433925051000,2.7422974,-10.253079,-1.6429834,0.5795039,-0.8127968,0.3334278
1644,A,1819433945253000,2.936294,-10.909314,-1.8944606,0.4079963,-0.52411014,0.8479505
1644,A,1819433965349000,3.6284547,-11.000325,-3.1326857,0.12463594,-0.29294774,0.8490158
1644,A,1819433985557000,4.2272096,-10.94524,-3.774551,0.037284255,-0.44421527,0.5113269
1644,A,1819434005653000,3.755391,-11.278148,-2.43813,-0.084155895,-0.56459016,0.2034655
1644,A,1819434025849000,2.694397,-11.278148,-2.4644752,-0.19707392,-0.84155893,-0.03834952
1644,A,1819434045945000,0.019160157,-10.545272,-1.710044,-0.19387813,-1.0524813,0.014913702
1644,A,1819434066146000,-3.5637891,-9.965676,-1.1088941,-0.00958738,-0.531567,0.28655612
1644,A,1819434086242000,-9.347761,-9.783655,0.33530274,0.19920446,0.314253,1.1877699
1644,A,1819434106457000,-6.2581863,-11.833792,1.3675562,0.84688526,1.0386329,1.1867046
1644,A,1819434126553000,2.1195924,-12.413386,1.6741188,0.45806372,-0.004261058,-0.14594123
1644,A,1819434146805000,-0.46942386,-9.359736,0.859812,0.17044231,-0.64768076,-0.89801794
1644,A,1819434166901000,-2.7087672,-9.577683,1.8345851,-0.13848437,0.30360037,-0.1587244
1644,A,1819434187119000,-1.2573853,-10.643467,2.7303224,-0.12037488,0.60507023,0.083090626
1644,A,1819434207215000,0.4047583,-9.261541,2.5123756,-0.3536678,0.4676511,-0.30253512
1644,A,1819434227424000,1.4298267,-7.7862086,1.5711329,-0.644485,0.5858955,-0.49747851
1644,A,1819434247520000,1.6381935,-7.0581226,0.8909473,-0.43995422,0.6146576,-0.4495416
1644,A,1819434267723000,1.6765138,-6.871311,1.0035132,-0.08522116,0.49641323,-0.3174488
1644,A,1819434287819000,1.6836988,-6.9048414,0.6490503,0.14168017,0.39414784,-0.034088463
1644,A,1819434308016000,1.5591577,-7.29523,0.37601808,0.013848438,0.3898868,0.15446335
1644,A,1819434328112000,1.22625,-7.8556643,0.07903565,-0.36645097,0.23329292,-0.12676647
1644,A,1819434348311000,1.0226734,-8.3179035,-0.2921924,-0.33768883,0.13954964,-0.29827404
1644,A,1819434368407000,0.57959473,-8.238868,-1.099314,-0.3153183,0.03195793,-0.3568636
1644,A,1819434388607000,0.08861572,-7.8748245,-2.069297,-0.21624869,0.039414786,-0.48469532
1644,A,1819434408703000,-0.17244141,-7.8484793,-2.694397,0.43249738,-0.39840892,-0.4293016
1644,A,1819434428899000,0.22273682,-8.255632,-2.5339308,0.40373522,-0.8905611,-0.03195793
1644,A,1819434448995000,1.7914747,-8.610096,-2.198628,0.08948222,-0.6146576,0.13422333
1644,A,1819434469195000,2.5027955,-9.309442,-1.8944606,0.46871635,-0.61678815,-0.05219796
1644,A,1819434489291000,2.0525317,-10.140513,-1.4394068,0.5773733,-0.81705785,0.20453078
1644,A,1819434509482000,1.8824854,-10.784774,-1.1352394,0.34194988,-0.7318367,0.38562572
1644,A,1819434529578000,1.9255958,-11.187137,-0.82388675,0.1438107,-0.34301516,0.6018744
1644,A,1819434549781000,2.2632935,-11.448194,-0.39996827,0.023435818,-0.1949434,0.567786
1644,A,1819434569877000,2.8213332,-12.593013,0.083825685,-0.025566347,-0.19813919,0.2727077
1644,A,1819434590078000,2.6057813,-14.03721,0.58198977,-0.15446335,-0.3291667,-0.07456851
1644,A,1819434610174000,1.453777,-14.650335,0.92208254,-0.36645097,-0.572047,-0.16618125
1644,A,1819434630371000,-0.53169435,-11.977493,0.6682105,-0.31957933,-0.6679208,-0.034088463
1644,A,1819434650467000,-1.9232007,-9.534574,0.119750984,-0.17257284,-0.32490566,0.17044231
1644,A,1819434670666000,-3.6763551,-8.231683,-0.4382886,-0.046871636,-0.058589544,0.49215218
1644,A,1819434690762000,-5.2283278,-7.6520877,0.11256592,1.0428939,0.70627034,0.7254451
1644,A,1819434710959000,-5.724097,-8.344249,-0.30416748,1.2016183,0.93849796,0.6625945
1644,A,1819434731055000,-1.7555494,-9.687855,0.038320314,0.099069595,0.33662358,-0.680704
1644,A,1819434751256000,0.2562671,-9.0004835,0.3903882,-0.25672874,0.16618125,-0.6380934
1644,A,1819434771352000,-1.2334352,-8.131092,0.1101709,-0.38242993,0.8021441,-0.26738137
1644,A,1819434791564000,-1.2382251,-8.176597,-0.4239185,-0.36645097,0.83516735,-0.5784386
1644,A,1819434811660000,-0.6825806,-8.193362,-0.6346802,-0.37071204,0.61572284,-0.7094661
1644,A,1819434831875000,-0.6442603,-7.7287283,-0.67539555,-0.30360037,0.64555025,-0.45380265
1644,A,1819434851971000,-0.26105714,-7.429351,-0.75203615,0.06178534,0.49854377,-0.19068234
1644,A,1819434872194000,0.5221143,-7.6113725,-0.71371585,0.20772657,0.39095205,0.0777643
1644,A,1819434892290000,2.3471193,-8.349038,-1.4513819,-0.018109497,0.49960902,0.18748654
1644,A,1819434912495000,4.038003,-8.962164,-2.411785,-0.24820662,0.5816344,-0.02876214
1644,A,1819434932591000,3.1973512,-8.289163,-2.074087,-0.49854377,0.588026,-0.19068234
1644,A,1819434952789000,1.8130299,-7.074888,-1.7603394,-0.22796659,0.1438107,-0.624245
1644,A,1819434972885000,1.7651294,-6.6916847,-2.0621119,0.4165184,-0.12250541,-0.5454154
1644,A,1819434993085000,2.6225464,-7.704778,-2.955454,0.5784386,-0.29507825,0.10333065
1644,A,1819435013181000,3.1135256,-8.672366,-3.6068995,-0.2247708,-0.2790993,0.5475459
1644,A,1819435033385000,2.7710378,-9.307046,-3.2356715,-0.23009712,-0.07989483,-0.38456047
1644,A,1819435053481000,2.4069948,-9.910591,-2.0094216,0.29614353,-0.39095205,-0.5273059
1644,A,1819435073667000,1.6741188,-10.068663,-1.2334352,0.21624869,-0.41758367,0.30146983
1644,A,1819435093763000,1.2525953,-10.41115,-1.6501685,0.15020229,-0.46658584,0.55074173
1644,A,1819435113970000,2.0525317,-11.500884,-2.2776637,0.19920446,-0.36432046,0.5422196
1644,A,1819435134066000,3.0057497,-12.660074,-2.8213332,0.19813919,-0.24181503,0.5965481
1644,A,1819435154237000,1.3915064,-12.808565,-2.550696,-0.017044231,-0.165116,0.40373522
1644,A,1819435174333000,-1.8537452,-12.2433405,-1.6142433,-0.20026971,-0.37603834,-0.08628642
1644,A,1819435194533000,-4.984036,-10.574012,-0.76161623,-0.22370553,-0.8745821,-0.20240025
1644,A,1819435214629000,-6.183941,-9.510623,0.43589357,-0.15339808,-1.0226538,-0.0479369
1644,A,1819435234829000,-1.456172,-11.270963,1.0705738,-0.17044231,-0.30040458,0.37816888
1644,A,1819435254925000,0.852627,-10.966795,1.5352076,0.14274544,0.47404268,0.92784536
1644,A,1819435275125000,-1.21188,-9.410032,1.5639478,1.2239889,1.4317155,1.0727214
1644,A,1819435295221000,-1.8034497,-10.116563,2.2656887,0.5592638,0.93423694,0.10333065
1644,A,1819435315425000,-0.75203615,-10.248289,2.9817994,0.03834952,-0.8788432,-1.3805827
1644,A,1819435335521000,1.0059083,-9.64714,3.056045,-0.16085494,-0.17257284,-0.5251754
1644,A,1819435355722000,1.6525636,-8.392149,2.304009,-0.21624869,1.1163971,0.44101948
1644,A,1819435375818000,1.7315992,-6.933582,1.3843213,-0.17044231,0.68389976,-0.13741912
1644,A,1819435396019000,1.4346168,-5.8007374,0.7807764,-0.49854377,0.53263223,-0.49428272
1644,A,1819435416115000,1.1088941,-5.4606447,0.25866213,-0.4889564,0.5411543,-0.34301516
1644,A,1819435436319000,0.364043,-5.9228835,-0.32332766,-0.15659387,0.35473305,-0.27377295
1644,A,1819435456415000,-0.31853762,-6.947952,-1.0633887,0.036218993,0.15339808,-0.0479369
1644,A,1819435476606000,0.66342044,-8.454419,-2.2800586,-0.06498113,0.19707392,0.13209279
1644,A,1819435496702000,1.4753321,-9.242381,-3.0009596,-0.20133498,0.3323625,0.020240024
1644,A,1819435516886000,1.7292042,-9.153765,-2.6009912,-0.2514024,0.3536678,-0.12037488
1644,A,1819435536982000,1.4944923,-8.777747,-2.1459377,-0.39414784,0.13635385,-0.42397526
1644,A,1819435557184000,1.4250367,-8.811277,-1.5711329,0.004261058,-0.21411815,-0.5795039
1644,A,1819435577280000,1.4202466,-9.134604,-0.6682105,0.5091964,-0.59761333,-0.4250405
1644,A,1819435597481000,1.334026,-9.498648,0.009580079,0.43782368,-0.7041398,0.07243799
1644,A,1819435617577000,1.3651612,-10.068663,0.5604346,-0.3717773,-0.041545313,0.4825648
1644,A,1819435637775000,2.2106032,-11.258987,1.2046949,0.18216023,-0.17044231,-0.15126756
1644,A,1819435657871000,2.6369166,-11.486514,1.2669654,0.7957525,-0.7073356,0.002130529
1644,A,1819435678074000,2.7399025,-10.655442,0.7209009,0.41971418,-0.6775082,0.35899413
1644,A,1819435698170000,3.4584084,-11.0123005,0.51013917,0.05219796,-0.49428272,0.29294774
1644,A,1819435718384000,3.6763551,-12.305611,0.4766089,-0.03834952,-0.38456047,0.3568636
1644,A,1819435738480000,2.4069948,-13.45043,-0.1580713,-0.15233281,-0.19068234,0.48363006
1644,A,1819435758687000,-0.43110353,-12.1379595,-1.6525636,-0.18429075,-0.34514567,0.06498113
1644,A,1819435778783000,-3.9302273,-9.685459,-2.6105714,-0.2790993,-0.737163,-0.34940675
1644,A,1819435799015000,-6.4593678,-9.065149,-1.4944923,-0.4016047,-0.958738,-0.111852765
1644,A,1819435819111000,-6.1959157,-9.862691,-0.5292993,-0.27057716,-0.60507023,0.18216023
1644,A,1819435839308000,-5.616321,-10.7799835,-0.94603276,-0.10333065,-0.19707392,0.47191215
1644,A,1819435859404000,-3.4871485,-10.696157,-1.2549903,0.5187838,-0.080960095,0.3270362
1644,A,1819435879605000,-0.68018556,-9.433982,-1.1663746,0.87138635,0.567786,0.56245965
1644,A,1819435899701000,0.488584,-8.643626,-1.1855347,0.71585774,0.5251754,0.32810146
1644,A,1819435919896000,0.28500733,-8.150251,-1.4346168,-0.10759171,0.26738137,-0.35792887
1644,A,1819435939992000,-0.019160157,-7.551497,-1.7220191,-0.46978164,0.5113269,-0.07563378
1644,A,1819435960185000,0.021555176,-6.7731156,-1.5926881,-0.72970617,0.8948221,-0.37816888
1644,A,1819435980281000,0.51971924,-6.239026,-1.5998731,-0.7595336,0.70200926,-0.87032104
1644,A,1819436000485000,0.6562354,-6.1719656,-2.6321266,-0.59228706,0.6711166,-0.79255676
1644,A,1819436020581000,0.44307864,-6.7803006,-2.2848487,-0.25246766,0.6423545,-0.35153726
1644,A,1819436040772000,0.20357667,-7.3694754,-2.3758595,0.21198763,0.3536678,-0.035153728
1644,A,1819436060868000,0.26345217,-8.54543,-1.8250049,0.04474111,0.24074976,0.13954964
1644,A,1819436081067000,0.19160157,-8.969349,-0.6011499,-0.330232,0.2545982,0.08735169
1644,A,1819436101163000,-0.4526587,-8.267608,0.17962648,-0.386691,0.32277513,-0.09374327
1644,A,1819436121369000,-0.9053174,-6.239026,-0.91729254,-0.27164245,0.23648871,-0.2066613
1644,A,1819436141465000,0.42152345,-7.3838453,-1.3172607,0.07243799,-0.1438107,-0.40586576
1644,A,1819436161678000,2.682422,-10.075848,-1.8489552,0.3174488,-0.19920446,-0.314253
1644,A,1819436181774000,5.400769,-13.254039,-1.7579445,0.34514567,-0.022370555,0.5028048
1644,A,1819436201973000,7.563472,-15.524517,-0.31374758,-0.27377295,-0.082025364,1.0279802
1644,A,1819436222069000,9.110655,-15.479012,0.7783814,-0.14594123,-0.10013486,-0.011717909
1644,A,1819436242246000,7.9682302,-13.658797,0.8047266,0.060720075,-0.0777643,0.07989483
1644,A,1819436262342000,2.6512868,-12.571458,1.6884888,-0.0628506,-0.30466563,0.49641323
1644,A,1819436282525000,0.85023195,-14.437179,1.8489552,-0.18748654,-0.14274544,0.11824436
1644,A,1819436302621000,1.4705421,-15.320941,2.4740553,-0.09161274,-0.09267801,0.004261058
1644,A,1819436322799000,2.2393434,-13.012141,1.6477735,-0.13102753,-0.0031957934,0.040480047
1644,A,1819436342895000,0.5029541,-9.941727,-0.45026368,-0.31638354,-0.082025364,-0.113983296
1644,A,1819436363013000,-2.0070264,-8.023315,0.031135255,-0.4346279,-0.30786142,-0.24074976
1644,A,1819436383109000,-2.1818628,-8.186177,1.3627661,-0.6849651,-0.5113269,-0.0777643
1644,A,1819436403313000,-2.8404932,-6.950347,1.3483961,-0.7030745,-0.3472762,0.12037488
1644,A,1819436423409000,-1.5280225,-6.991062,1.2525953,-0.62104917,-0.30360037,0.036218993
1644,A,1819436443605000,-1.0083033,-7.060518,0.6011499,0.24181503,0.03195793,-0.04474111
1644,A,1819436463701000,-1.8920655,-6.6342044,-0.19160157,1.3060142,0.51665324,0.6327671
1644,A,1819436483887000,-2.8620484,-6.947952,-1.1448194,1.2197278,-0.035153728,-0.09161274
1644,A,1819436503983000,-3.6332448,-6.0402393,-1.84177,-0.13209279,0.13741912,-0.74781567
1644,A,1819436524162000,-3.527864,-4.514612,-2.3974147,-0.5571333,0.6402239,0.45486793
1644,A,1819436544258000,-2.3135889,-5.5324955,-4.2032595,0.112918034,0.60720074,0.34621096
1644,A,1819436564466000,-1.8609302,-5.942044,-3.4727786,0.23116238,0.28868666,-0.53795856
1644,A,1819436584562000,-0.9388477,-5.726492,0.92208254,-0.008522116,0.23648871,-0.53263223
1644,A,1819436604762000,-0.42870852,-6.0019193,3.319497,0.08735169,0.26418558,-0.083090626
1644,A,1819436624858000,0.3065625,-7.0509377,1.6310084,0.314253,0.1470065,0.083090626
1644,A,1819436645065000,0.09580079,-7.697593,-1.1112891,0.23329292,0.09267801,0.12037488
1644,A,1819436665161000,0.18681154,-8.703502,-1.7124391,0.06498113,0.20559604,0.16298546
1644,A,1819436685321000,-1.0825489,-9.144185,-2.8093581,0.1257012,0.27057716,0.06178534
1644,A,1819436705449000,-1.9279908,-8.006551,-0.6849756,-0.12463594,0.28442562,-0.015978966
1644,A,1819436725609000,-2.299219,-6.7850904,2.2106032,-0.221575,-0.023435818,-0.50173956
1644,A,1819436745806000,-0.7879615,-8.964559,0.021555176,-0.09161274,-0.18535602,-0.46978164
1644,A,1819436765892000,-0.53169435,-10.827884,-5.1660576,0.60080916,-0.30999196,-0.16298546
1644,A,1819436785988000,-1.2573853,-10.653048,-4.0859036,0.80107886,-0.56885123,0.28336033
1644,A,1819436806164000,0.2682422,-10.221944,-2.0213966,-0.2396845,-0.13741912,0.16085494
1644,A,1819436826260000,1.4825171,-10.861414,0.1580713,0.06711166,-0.42290998,-0.36964676
1644,A,1819436846461000,1.8920655,-13.105548,2.3327491,0.38029942,-0.644485,-0.26312032
1644,A,1819436866557000,0.92208254,-15.603553,6.4090724,0.056459017,-0.5752428,0.066046394
1644,A,1819436886783000,-2.9171338,-14.973662,9.09868,-0.023435818,-0.551807,0.4910869
1644,A,1819436906879000,-8.689131,-12.715159,7.288045,0.24927188,-0.45699844,0.7701862
1644,A,1819436927096000,-12.28645,-9.565708,-0.09340577,0.16298546,-0.2908172,0.7030745
1644,A,1819436947192000,-8.504715,-8.435259,-7.9921803,-0.101200126,-0.51452273,0.12996227
1644,A,1819436967405000,-1.8130299,-10.971585,-5.087022,-0.18002969,-0.78723043,-0.15765914
1644,A,1819436987501000,-2.3638844,-10.870995,1.2046949,-0.13209279,-0.93636745,-0.06178534
1644,A,1819437007784000,-2.579436,-8.780142,3.3865578,-0.0628506,-0.65194184,-0.04580637
1644,A,1819437027880000,-0.51971924,-7.927515,4.112249,-0.330232,-0.2428803,0.34301516
1644,A,1819437048077000,-0.53169435,-7.5227566,3.6739602,0.32170987,0.22690132,0.30466563
1644,A,1819437068173000,-2.6967921,-6.255791,3.6140847,1.257012,0.7595336,0.62531024
1644,A,1819437088385000,-2.2273684,-6.837781,2.7183473,0.813862,0.41758367,0.46019423
1644,A,1819437108481000,0.9436377,-10.760823,0.23710695,-0.3920173,0.24501082,-0.49215218
1644,A,1819437128695000,1.8681153,-11.385923,-4.414021,-0.50600064,0.89162636,-0.13209279
1644,A,1819437148791000,-0.098195806,-7.185059,-3.4991236,-0.28016454,1.1110709,-0.15233281
1644,A,1819437169020000,-1.0130934,-6.2438164,-1.223855,-0.49321744,0.99708754,-0.6487461
1644,A,1819437189116000,-1.5304176,-6.495293,-1.0154883,-0.53263223,0.9502159,-0.7680557
1644,A,1819437209317000,-1.6357985,-6.6270194,-0.68018556,-0.12144015,0.6061355,-0.36432046
