Subject-Id,Activity Label,Time stamp,Accel_x,Accel_y,Accel_z,Gyro_x,Gyro_y,Gyro_z
1615,A,168766070661077,0.9868622,4.360489,9.299789,2.0279388,-3.9218292,3.3587036
1615,A,168766121015081,1.0150146,2.9318848,4.681534,0.6751709,-2.1694183,4.156845
1615,A,168766171369085,2.478012,1.1892853,5.3340454,0.77153015,-2.4699402,5.4552
1615,A,168766221723089,2.3718872,-0.5140228,3.2437592,3.7987823,-4.502289,6.4405518
1615,A,168766272077093,2.8739624,-1.4809418,-0.55303955,3.0434113,-1.7285767,2.8198853
1615,A,168766322431096,4.1819916,-3.9456635,0.05619812,-0.99964905,0.2497406,-0.018493652
1615,A,168766372785100,9.530151,-7.8182526,5.9142,-1.1626892,1.1459045,-0.109176636
1615,A,168766423139104,18.182312,-3.0057373,8.979889,-3.1248932,0.3799286,1.5778656
1615,A,168766473493108,19.250153,8.558655,-1.4288025,0.5678253,0.053726196,-0.44703674
1615,A,168766523847112,18.512192,2.935135,-2.2754822,1.4222412,-0.5515747,-1.2682648
1615,A,168766574201116,4.2585297,-2.3773346,-10.836075,0.98057556,-1.2546539,-0.124557495
1615,A,168766624555120,3.8824005,-3.236969,0.41036987,0.5991211,0.9264374,0.10826111
1615,A,168766674909124,5.01091,-1.5374908,1.1592407,0.37963867,1.6190491,-0.55281067
1615,A,168766725263128,4.8639526,-5.5834045,3.4015503,-0.4743805,1.0937805,-0.24325562
1615,A,168766775617132,9.424866,0.046279907,0.56352234,-0.4139099,-0.7026367,0.17047119
1615,A,168766825971136,6.778595,-3.4079742,3.4037933,-1.0443878,-0.6246643,0.19732666
1615,A,168766876325139,8.740082,-2.7073822,0.42855835,-0.4927063,-0.10983276,-0.30221558
1615,A,168766926679143,10.831345,-0.9529114,2.396881,0.22135925,0.6780243,-0.57032776
1615,A,168766977033147,11.505951,0.6832886,1.289154,-0.3131714,0.45787048,-0.50331116
1615,A,168767027387151,8.937119,-0.31088257,1.2045288,-0.48558044,-0.61239624,-0.7107239
1615,A,168767077741155,9.6710205,-1.2160797,1.5127869,-0.116363525,0.13653564,-1.0387115
1615,A,168767128095159,11.474335,-0.7562561,2.606964,-0.26091003,-0.36901855,-0.66230774
1615,A,168767178449163,10.796158,-1.0121765,3.668686,0.15205383,-0.80218506,-0.53930664
1615,A,168767228803167,11.182343,-1.579773,2.6789703,0.6744995,-0.34606934,-0.15579224
1615,A,168767279157171,9.3637085,-3.0720673,3.299591,1.3726196,-0.53211975,0.26559448
1615,A,168767329511175,7.1917725,-2.3739014,2.3259125,1.9772186,-0.63752747,0.86860657
1615,A,168767379865178,6.7862854,-1.0469208,1.4786224,2.0364685,-1.1987152,0.48446655
1615,A,168767430219182,5.463379,-1.3464203,0.98587036,0.47909546,-1.3274231,-0.46255493
1615,A,168767480573186,5.259079,-1.9833374,0.18659973,0.71803284,0.046524048,0.0043945313
1615,A,168767530927190,5.239029,-2.2649994,-1.8762207,1.7045746,-0.15174866,-0.19821167
1615,A,168767581281194,12.579147,0.87361145,1.0003204,1.3715515,-0.40612793,0.560791
1615,A,168767631635198,12.878601,2.706421,-0.7152252,1.438324,-0.86595154,0.8741455
1615,A,168767681989202,9.374786,0.4581604,-0.59843445,0.64982605,-1.3005524,-1.2870636
1615,A,168767732343206,9.8268585,-0.39265442,0.20826721,0.9534302,-0.3552704,-2.2990723
1615,A,168767782697210,9.6141815,-0.75704956,0.22538757,2.3808289,-0.63661194,0.90956116
1615,A,168767833051214,12.885971,1.1213989,1.1396484,0.54174805,-1.2440338,2.7857819
1615,A,168767883405218,15.9617,4.1846924,0.286911,-0.32408142,0.34687805,3.0469055
1615,A,168767933759221,3.1671906,-3.8866272,-2.1635284,0.35845947,0.4907074,1.7180023
1615,A,168767984113225,-4.830902,-9.4348755,0.41178894,0.29663086,1.3712463,2.8530273
1615,A,168768034467229,7.525528,-5.3855133,3.8938293,-0.5984192,1.937088,1.4453278
1615,A,168768084821233,16.085617,-1.2649078,2.0443878,-1.046402,0.3299713,-0.34236145
1615,A,168768135175237,11.867264,-0.77500916,-6.2203827,-0.43943787,-0.41308594,1.1918182
1615,A,168768185529241,6.130554,-1.5817108,-3.1651459,0.7192383,-0.9401703,2.0685272
1615,A,168768235883245,3.3994446,-6.421341,3.2734528,1.3863678,-3.220749,2.622818
1615,A,168768286235318,2.8213348,-6.791321,-2.9640198,0.756073,-4.5220947,1.0237274
1615,A,168768336589322,6.7785187,-3.9041138,-3.0331879,-1.5230103,-0.8835449,0.3690338
1615,A,168768386943326,7.3058014,-8.874603,-1.7593384,-1.4858551,0.117370605,1.0631409
1615,A,168768437297330,3.560379,-9.813614,-4.8356323,1.7081604,-3.085968,-0.16368103
1615,A,168768487651333,1.9975586,-9.160614,-3.8374023,1.4468231,-1.7860107,0.20176697
1615,A,168768538005337,3.349533,-6.6757813,2.2445984,1.5825043,0.03416443,1.253418
1615,A,168768588359341,7.181488,-2.1630402,-0.19882202,3.253128,1.4812927,2.3706055
1615,A,168768638713345,3.5679932,-3.421585,-1.4325256,0.86753845,-1.9682465,1.4940186
1615,A,168768689067349,-0.46707153,-7.133789,-0.55874634,-1.6084747,-0.027328491,0.30439758
1615,A,168768739421353,2.2434082,-7.2095795,1.9264221,-0.67276,1.3284302,-0.21116638
1615,A,168768789775357,1.8925629,-8.091934,-2.2339172,0.23561096,0.55259705,-0.4259796
1615,A,168768840129361,-2.1275787,-15.737793,-11.950821,0.74560547,0.3991394,-1.0639038
1615,A,168768890483365,2.5874176,-11.282364,-9.175049,-0.31425476,-0.6781769,0.26158142
1615,A,168768940837369,2.0788422,-4.499222,-3.3395538,-0.1561737,-0.13105774,1.3651428
1615,A,168768991191372,3.314911,-10.457794,-3.1097107,0.8522339,0.46342468,-0.08480835
1615,A,168769041545376,-2.3241272,-14.563065,1.2206573,1.3838959,4.1898956,-1.1950836
1615,A,168769091899380,-4.941742,-10.877563,-0.22097778,-0.008026123,2.746704,-0.54011536
1615,A,168769142253384,3.7874298,-11.475143,0.35263062,-0.2730255,1.5813293,-0.2539673
1615,A,168769192607388,5.8418274,-9.854797,3.212967,0.7335968,1.5368805,-1.1458588
1615,A,168769242961392,2.2344818,-10.615067,-2.5209198,1.9562836,2.0986328,-1.2485657
1615,A,168769293315396,0.6040802,-7.477707,-3.136078,0.9960785,-0.073135376,0.9445343
1615,A,168769343669400,3.0118866,-6.1622314,1.918045,-0.7989044,0.96632385,0.17474365
1615,A,168769394023404,2.8220978,-6.2489166,1.5010834,-1.0936127,-0.48130798,-0.44177246
1615,A,168769444377408,0.71606445,-9.938553,1.5469818,-1.5596008,-2.8715515,-1.166275
1615,A,168769494731412,11.668198,-10.717697,-7.179779,-2.909851,-0.71292114,-0.5643463
1615,A,168769545085415,10.16301,-10.712402,-4.739929,-2.4613342,-0.66207886,0.54722595
1615,A,168769595439419,10.1358795,-11.314407,-5.756241,-1.5669403,-1.7125702,0.41960144
1615,A,168769645793423,1.3486786,-11.536743,-5.8163757,-0.9748535,-0.45581055,-0.9595337
1615,A,168769696147427,0.21299744,-17.378403,3.7928314,-0.2138977,-3.1733856,-1.3321381
1615,A,168769746501431,4.562805,-11.521164,0.79237366,0.28553772,-2.0910492,-0.58543396
1615,A,168769796855435,7.234787,-9.030258,4.227936,1.3415375,-0.4259491,-0.17503357
1615,A,168769847209439,2.424347,-7.7247314,-1.3749542,2.1100311,1.364502,0.6843872
1615,A,168769897563443,-0.26010132,-5.288559,0.6156006,-1.0116577,-2.057724,-0.23106384
1615,A,168769947917447,-2.232132,-3.079605,2.5151215,-0.41029358,-0.05529785,-0.22796631
1615,A,168769998271451,-0.9010315,-2.599472,0.55075073,1.2138824,1.1775665,1.1862335
1615,A,168770048625455,2.15448,-15.727081,-19.398178,-0.08778381,1.7807007,-0.47947693
1615,A,168770098979458,4.915039,-10.795837,-5.7647552,0.48924255,2.1653748,0.5429077
1615,A,168770149333462,-2.982315,-2.1960602,-0.3657837,1.1092682,-0.14855957,1.193985
1615,A,168770199687466,3.3974304,-18.133163,-8.869247,1.4210205,-2.1141357,0.09291077
1615,A,168770250041470,-2.33049,-2.6715393,4.9865723,1.8918457,2.2586517,-0.2997284
1615,A,168770300395474,-2.4296265,-9.347092,1.1797638,0.27722168,-0.061706543,0.0703125
1615,A,168770350749478,7.9682617,-17.801819,-1.2631226,-0.09373474,1.0960846,-0.16740417
1615,A,168770401103482,2.0258026,-6.179886,11.243851,1.3170624,1.1033325,-0.19078064
1615,A,168770451457486,3.8017273,-6.849518,-1.75914,1.2603912,0.72776794,0.09739685
1615,A,168770501811490,4.0667877,-8.288376,-2.7824554,-0.45677185,1.0656891,0.18354797
1615,A,168770552165494,3.230896,-7.533371,3.5858154,-0.50502014,1.3154297,0.2866516
1615,A,168770602519497,3.3032227,-8.789612,-0.8957825,0.16716003,-0.5200958,-0.10147095
1615,A,168770652873501,2.751007,-9.824188,-3.1418152,-0.94766235,-1.8917389,-0.7415924
1615,A,168770703227505,2.9636536,-9.661011,-4.015396,-2.0357208,-2.2060852,-0.8101196
1615,A,168770753581509,7.528946,-10.5481415,1.2046051,-2.1543274,-1.6881409,-0.377594
1615,A,168770803935513,9.062698,-10.417267,-5.5592957,-1.9038086,-1.0593567,0.30514526
1615,A,168770854289517,4.213806,-12.313171,-3.576065,-1.1694336,-1.4816742,-0.10813904
1615,A,168770904643521,0.8297577,-12.488327,-1.9461823,-0.49006653,-2.6342316,-1.0488129
1615,A,168770954997525,2.2851563,-13.469696,1.3814087,-0.06362915,-2.0811005,-1.2041321
1615,A,168771005351529,2.4344635,-9.784851,1.0302734,0.989563,-0.5295563,-0.4832611
1615,A,168771055705533,4.6667023,-7.4409943,2.9463806,2.1774292,0.8603058,0.59695435
1615,A,168771106059537,4.8707275,-5.6046295,0.41331482,0.8633728,0.09364319,0.5026703
1615,A,168771156413540,-1.8661041,-5.266861,2.083023,-0.87376404,-0.83917236,-0.55184937
1615,A,168771206767544,-3.22995,-3.6103058,1.5006866,0.22593689,0.653244,0.35688782
1615,A,168771257121548,-0.08709717,-9.742081,-7.8301086,0.51130676,1.0916901,-0.21083069
1615,A,168771307475552,3.764862,-15.250488,-13.246719,0.57632446,2.097107,0.06047058
1615,A,168771357829556,0.7081909,-6.0563965,-0.60998535,0.28923035,0.5502472,0.9751129
1615,A,168771408183560,5.2440643,-9.623581,-0.91937256,1.353836,-0.9523468,0.4167633
1615,A,168771458537564,3.0300293,-11.205872,-3.9444427,1.7820892,2.009613,0.29858398
1615,A,168771508891568,-5.5270996,-7.1752777,1.2297974,1.1546631,1.8790588,0.10795593
1615,A,168771559245572,1.4376678,-11.331924,0.7617798,0.5254822,0.8733978,-0.19160461
1615,A,168771609599576,5.001465,-9.310455,0.67463684,0.50479126,0.89256287,-0.31225586
1615,A,168771659953580,4.855194,-8.177536,2.4896088,0.70526123,1.0673065,-0.09109497
1615,A,168771710307583,4.791397,-7.6934357,-3.2886963,-0.091812134,0.8396454,0.2188263
1615,A,168771760661587,3.5249481,-8.204315,-1.3719635,-0.0029296875,0.69052124,0.29710388
1615,A,168771811015591,2.4474945,-8.768295,0.3209381,0.21650696,0.042129517,0.12263489
1615,A,168771861369595,2.5197754,-9.358582,-2.039322,-0.67155457,-1.429306,-0.43173218
1615,A,168771911723599,2.4421844,-9.534744,-2.1385956,-1.6258087,-2.5083923,-0.78030396
1615,A,168771962077603,5.2740326,-9.957657,-0.76608276,-2.2137756,-1.5957489,-1.0766296
1615,A,168772012431607,9.084534,-10.552902,-4.5134583,-2.062088,-1.5020142,0.060256958
1615,A,168772062785611,7.0090637,-10.879608,-4.335968,-1.1849823,-1.0388031,0.20205688
1615,A,168772113139615,2.497055,-11.188232,-0.3242035,-0.68341064,-2.336731,-0.9802551
1615,A,168772163493619,0.3195343,-13.820038,1.45018,-0.2881775,-2.5915375,-0.98005676
1615,A,168772213847622,1.6142883,-11.778839,-0.20295715,0.5844879,-1.2013245,-0.55252075
1615,A,168772264201626,5.264679,-8.830429,0.30303955,1.9373169,0.72857666,0.08694458
1615,A,168772314555630,4.022629,-6.008484,1.5341492,0.5536041,-0.78808594,1.3951416
1615,A,168772364909634,-0.42477417,-5.044388,1.481247,-1.275177,-1.2744598,-0.45880127
1615,A,168772415263638,-2.5162354,-3.5809784,2.0231476,0.9683838,0.8716278,0.3499756
1615,A,168772465617642,-1.8727264,-4.3691254,-1.9566803,-0.2212677,1.2466278,-0.14129639
1615,A,168772515971646,14.921585,-16.34349,-16.309631,0.096847534,0.5130615,-0.1349945
1615,A,168772566325650,-0.49934387,-7.05777,-6.1947174,0.4812622,0.2315979,1.374939
1615,A,168772616679654,3.4333038,-6.298462,0.7508545,1.594223,-0.8456116,0.4015808
1615,A,168772667033658,4.420761,-12.948853,-5.5857697,2.623703,1.7894287,-0.76094055
1615,A,168772717387662,-6.035202,-5.194519,-1.4925385,0.5367279,0.65437317,-0.10090637
1615,A,168772767741665,5.350281,-15.428589,0.7051544,-0.5396118,0.34571838,0.031158447
1615,A,168772818095669,3.411377,-8.511673,5.8612366,0.7491455,1.769989,-0.22987366
1615,A,168772868449673,1.5770721,-7.810837,-1.1337585,1.4365082,0.4392395,-0.0063934326
1615,A,168772918803677,2.8421173,-8.281708,-5.040268,1.7840271,1.7182922,-0.08639526
1615,A,168772969157681,4.532379,-6.825485,0.25953674,-0.81747437,-0.43397522,0.8098755
1615,A,168773019511685,3.5425415,-8.281036,0.35102844,0.08505249,0.43206787,0.42407227
1615,A,168773069865689,2.127411,-9.335602,-0.40200806,-0.6030884,-1.0463104,-0.39016724
1615,A,168773120219693,0.4183197,-12.200836,-3.5033112,-1.6238251,-2.417923,-0.97358704
1615,A,168773170573697,6.367096,-11.094162,3.953354,-3.1109314,-1.3100128,-1.0613556
1615,A,168773220927701,10.197968,-10.351334,-1.9131775,-1.1791382,-2.4598236,-0.013366699
1615,A,168773271281705,7.046463,-12.1067505,-4.3078003,-2.2384796,-1.1312561,0.92936707
1615,A,168773321635708,1.4826508,-11.373993,-4.390518,-1.244812,-0.8993225,-0.13346863
1615,A,168773371989712,2.412796,-14.91777,3.7269135,-0.91433716,-2.3175354,-0.72869873
1615,A,168773422343716,-0.821167,-12.112259,-4.4143066,0.20248413,-1.2530518,-0.2745819
1615,A,168773472697720,2.4200592,-10.129288,0.81703186,1.9003448,0.36576843,0.29580688
1615,A,168773523051724,7.9315796,-6.4260864,2.004486,2.5272675,1.115387,1.0464935
1615,A,168773573405728,-1.2036285,-4.9960327,1.6473846,-1.3834381,-1.4309235,-0.73124695
1615,A,168773623759732,-2.5233002,-2.6697388,2.6622314,0.5398865,0.31196594,0.25386047
1615,A,168773674113736,0.26646423,-3.8449554,-2.3260345,0.26322937,2.1239624,0.29216003
1615,A,168773724467740,5.70813,-17.23581,-16.819687,0.29804993,0.7438812,-0.09188843
1615,A,168773774821744,-1.9778137,-5.2374573,-0.88694763,1.0384064,0.6740875,0.8904419
1615,A,168773825175747,-0.48033142,-3.6648865,1.6476135,2.0085754,-0.5290222,-0.308609
1615,A,168773875529751,3.3976746,-15.761108,-7.9985504,2.3031158,2.2752228,-0.065597534
1615,A,168773925883755,-4.165161,-5.6988983,0.98327637,0.2515564,1.067749,-0.013885498
1615,A,168773976237759,4.4775696,-14.530884,1.3383484,-0.07550049,1.199646,-0.13639832
1615,A,168774026591763,2.7027588,-8.107864,-0.28303528,0.6320801,1.668747,-0.15873718
1615,A,168774076945767,4.1181946,-8.342163,-3.2937164,1.5704193,0.80895996,0.077804565
1615,A,168774127299771,2.3161163,-8.759674,-3.9879303,1.1012268,0.606781,0.2447052
1615,A,168774177653775,3.5703278,-7.6580353,-0.3159485,-0.41619873,0.15885925,0.510849
1615,A,168774228007779,2.7287598,-9.013275,0.97036743,-0.45463562,-0.5761261,-0.11465454
1615,A,168774278361783,2.19812,-10.66864,-1.6553497,-1.4220734,-2.2762299,-0.75665283
1615,A,168774328715787,3.6713257,-11.48877,-2.3565521,-2.0952759,-2.2802734,-1.0223694
1615,A,168774379069790,8.220032,-10.444626,-3.0437927,-2.1648102,-1.6585083,-0.3876953
1615,A,168774429423794,8.182739,-10.542099,-2.0871735,-1.9683533,-1.0661316,0.3604126
1615,A,168774479777798,4.2003784,-11.8207855,-1.9167175,-1.3687134,-1.2989349,-0.34020996
1615,A,168774530131802,-0.16268921,-14.606537,0.41784668,-0.7211609,-2.5675964,-0.81069946
1615,A,168774580485806,0.8965912,-14.890335,0.7826233,-0.074539185,-1.7113037,-0.5457916
1615,A,168774630839810,2.5535126,-9.981552,-0.27261353,1.3599854,-0.2629242,-0.25378418
1615,A,168774681193814,3.285675,-7.7148743,1.1767273,0.8625641,-0.5783844,0.55126953
1615,A,168774731547818,0.59573364,-5.226059,1.0607605,-1.0354156,-0.89819336,0.1579895
1615,A,168774781901822,-2.2070923,-3.0964966,2.2982483,-0.042160034,0.07246399,-0.034225464
1615,A,168774832255826,-1.6802063,-2.708603,1.3733368,0.73413086,0.6086426,0.47634888
1615,A,168774882609830,9.720047,-11.591751,-10.3506775,0.56378174,1.5058899,-0.056640625
1615,A,168774932963833,4.567093,-10.458389,-10.023209,1.1295929,2.217987,0.53985596
1615,A,168774983317837,-4.351425,-4.836731,-0.9388275,1.3199768,0.09642029,0.39660645
1615,A,168775033671841,3.620575,-13.524963,-3.5995026,2.0567932,1.9357452,-0.2715454
1615,A,168775084025845,-0.7819824,-10.137009,-1.7940216,0.974411,2.3421173,-0.043395996
1615,A,168775134379849,-0.1296997,-10.405457,2.346695,0.25260925,0.9715729,0.2026062
1615,A,168775184733853,2.5145416,-10.9257965,2.1270142,-0.18579102,1.0930786,-0.047851563
1615,A,168775235087857,4.339081,-8.51741,-2.717453,0.5697937,1.7667542,0.11383057
1615,A,168775285441861,2.0271301,-8.152756,-2.941864,1.7403717,0.9747162,-0.022842407
1615,A,168775335795865,3.101883,-8.121597,-1.6184235,0.53453064,0.91012573,0.3381195
1615,A,168775386149869,3.1190186,-7.542801,0.32218933,-0.42367554,0.9569092,0.39595032
1615,A,168775436503872,3.2932434,-9.187561,-0.093566895,-0.6112976,-0.4525299,-0.2056427
1615,A,168775486857876,2.8400116,-10.544556,-1.4480438,-1.6486053,-2.179428,-0.9130707
1615,A,168775537211880,5.932358,-10.419754,-5.4842377,-3.3802795,-1.5616455,-1.227951
1615,A,168775587565884,8.479614,-10.61647,-1.1626129,-1.4213257,-1.3233643,0.04940796
1615,A,168775637919888,8.151749,-11.913315,-3.39003,-1.9978638,-1.79039,1.046524
1615,A,168775688273892,2.8940887,-12.1145935,-5.3875427,-0.780838,-1.3976135,-0.063934326
1615,A,168775738627896,2.6548767,-16.12445,2.881424,-0.6709137,-2.5464783,-0.56181335
1615,A,168775788981900,-0.8056488,-12.972092,-6.1819,0.23843384,-1.6696777,-0.36497498
1615,A,168775839335904,1.4301147,-9.912384,0.13691711,1.7569275,-0.049865723,0.032226563
1615,A,168775889689908,11.584564,-6.9893646,3.3451233,1.8505554,1.3357697,1.1785278
1615,A,168775940043912,-0.86138916,-4.239258,2.4301453,-1.4687653,-1.03656,-0.56188965
1615,A,168775990397915,-3.365097,-2.8822937,2.7710114,0.82011414,-0.3980255,0.29692078
1615,A,168776040751919,-1.4632568,-2.8219604,1.0679169,0.49317932,2.6139526,-0.20137024
1615,A,168776091105923,16.06276,-17.734985,-17.699173,0.12698364,0.3403778,-0.5213318
1615,A,168776141459927,-3.7256165,-6.0032654,-5.3329315,0.85165405,2.0197906,1.4207001
1615,A,168776191813931,1.1641693,-3.9176025,2.7967834,1.2840271,-1.0683746,-0.24533081
1615,A,168776242167935,3.538391,-18.563736,-12.243088,2.612793,1.4225311,-0.21636963
1615,A,168776292521939,-10.914261,-3.906189,-0.14309692,0.53330994,1.4150085,0.21565247
1615,A,168776342875943,7.1594696,-16.286636,2.1423187,0.6367035,0.2554016,0.13179016
1615,A,168776393229947,1.4927826,-8.893707,1.2423401,-0.46209717,0.99360657,-0.36645508
1615,A,168776443583951,5.4814453,-7.303772,-5.9651337,0.9918976,1.8222656,0.03656006
1615,A,168776493937955,0.18127441,-8.956665,0.0945282,2.032257,0.7049866,0.072250366
1615,A,168776544291958,3.689209,-7.341324,-2.187088,0.6659241,0.23210144,0.7016449
1615,A,168776594645962,2.1598663,-7.428253,1.8165741,-0.5738983,0.3894806,0.13929749
1615,A,168776644999966,1.9095154,-10.102936,-0.5828705,-0.91163635,-1.5227509,-0.6455078
1615,A,168776695353970,1.2790527,-11.771423,-2.050644,-2.3246307,-1.8046722,-1.2935028
1615,A,168776745707974,7.388687,-11.18277,-3.667038,-2.6226807,-1.4998932,-0.9002991
1615,A,168776796061978,8.681412,-10.78035,-2.6000519,-1.573822,-2.628296,0.45785522
1615,A,168776846415982,6.418152,-12.041626,-4.12352,-1.7917023,-1.3822784,0.5189209
1615,A,168776896769986,-0.61968994,-13.019745,-2.2371826,-1.138382,-1.4201965,-0.5513153
1615,A,168776947123990,0.3066101,-16.753937,3.0858765,-0.51976013,-2.06102,-0.6329956
1615,A,168776997477994,-0.35736084,-11.596481,-3.4580078,0.74913025,-0.7057648,-0.3443451
1615,A,168777047831997,3.4359741,-8.381958,2.8231964,1.7095032,0.31066895,0.333313
1615,A,168777098186001,6.1815643,-5.4392242,1.9371643,0.3430481,-0.22721863,0.7740021
1615,A,168777148540005,-3.6227722,-3.8621063,0.88012695,-1.093399,-0.4933014,-0.2397461
1615,A,168777198894009,-1.9845734,-2.6814423,2.374878,0.5940399,0.6564331,0.4060669
1615,A,168777249248013,4.6120605,-6.8435974,-4.708832,0.09899902,1.395874,0.0423584
1615,A,168777299602017,11.75824,-15.129364,-14.881836,0.8362732,1.3054504,0.16809082
1615,A,168777349956021,-6.485306,-4.11499,-1.3449097,1.513855,1.4742432,0.7895355
1615,A,168777400310025,0.88334656,-8.291107,-1.4081116,1.9044647,1.2541809,-0.29829407
1615,A,168777450664029,1.9523773,-11.91275,-2.787857,1.9552612,2.0184631,-0.058044434
1615,A,168777501018033,-5.089966,-7.407501,1.4729614,1.0166626,-0.260437,0.6051483
1615,A,168777551372037,2.6437836,-12.159149,3.238144,0.3554535,0.64675903,0.026992798
1615,A,168777601726040,3.5267334,-8.543381,-2.5597992,0.12892151,1.6199493,-0.28094482
1615,A,168777652080044,4.765381,-7.9345093,-7.6687164,1.1986542,1.3951416,-7.7819824E-4
1615,A,168777702434048,3.2289581,-8.228516,-3.2490692,0.9179077,1.099884,0.10623169
1615,A,168777752788052,3.1444092,-7.9599,-0.381958,0.0940094,1.3969421,0.2987976
1615,A,168777803142056,2.2896423,-8.932526,0.018341064,-0.3529663,0.31819153,0.015457153
1615,A,168777853496060,2.4259186,-10.56929,-1.2716675,-1.3773651,-1.3648682,-0.76704407
1615,A,168777903850064,3.5375214,-10.956055,-2.6340332,-2.7784119,-1.4653778,-1.1228638
1615,A,168777954204068,7.265518,-10.761963,-4.8202667,-2.0083313,-1.1169586,-0.54989624
1615,A,168778004558072,8.576004,-11.449036,-3.8476105,-1.5211792,-2.046753,0.51457214
1615,A,168778054912076,3.7881775,-12.362762,-3.9780426,-1.6457672,-1.8092346,0.500885
1615,A,168778105266080,1.4635925,-14.42775,-0.47233582,-1.2218323,-1.6013031,-0.2922058
1615,A,168778155620083,-0.95454407,-14.631729,-0.9203644,-0.4365692,-1.6295624,-0.49398804
1615,A,168778205974087,-1.4983673,-11.203629,-1.9537964,1.1122437,-0.536911,-0.26942444
1615,A,168778256311567,5.8795776,-7.8200226,1.2995911,2.2768402,1.0831146,0.4977417
1615,A,168778306665571,2.4822693,-5.448883,0.98039246,-0.3195343,-0.61990356,-0.02319336
1615,A,168778357019575,-2.5019226,-3.2725983,1.9966583,-0.16716003,-0.97120667,-0.026779175
1615,A,168778407373579,-1.3727417,-1.9560547,2.1433105,0.71824646,1.8960419,0.5202484
1615,A,168778457727583,1.9137421,-12.849136,-11.873322,0.4063568,1.4474335,-0.36958313
1615,A,168778508081587,-0.5593109,-10.255829,-8.906754,0.8823395,2.0766907,0.704834
1615,A,168778558435591,-3.4792328,-3.7109375,2.673706,1.2756805,-0.20683289,0.22851563
1615,A,168778608789595,3.1317444,-14.127335,-8.107529,2.7540588,1.5820313,0.28837585
1615,A,168778659143598,-4.354889,-7.0450287,-3.848709,1.4418488,2.5528717,0.14923096
1615,A,168778709497602,-0.6391144,-11.079071,3.7120056,0.27990723,0.7375183,-0.17134094
1615,A,168778759851606,1.5615082,-10.433197,1.9575195,0.70451355,2.9392548,-0.33885193
1615,A,168778810205610,4.409134,-9.297592,-0.53445435,1.2993927,0.9354706,0.32366943
1615,A,168778860559614,2.2919464,-8.84494,-5.3588867,1.1737213,0.5504303,0.4836731
1615,A,168778910913618,1.9429626,-8.428207,-1.8531647,-0.42312622,1.185257,0.38381958
1615,A,168778961267622,1.8466339,-8.180862,-0.60583496,-0.039154053,-0.7354889,-0.10873413
1615,A,168779011621626,1.0698547,-10.0520935,-1.5838776,-1.2493744,-1.7745361,-0.85713196
1615,A,168779061975630,2.2036438,-11.046585,-4.0943604,-2.0158234,-2.4468231,-1.0116272
1615,A,168779112329634,7.9022827,-11.058594,5.0659485,-2.5134888,-1.1594849,-1.1876984
1615,A,168779162683638,8.6171875,-10.916672,-2.2997894,-1.681076,-1.6302643,0.35630798
1615,A,168779213037641,2.097458,-12.101791,-3.506134,-0.9580078,-0.933609,-0.034973145
1615,A,168779263391645,0.5061798,-13.405365,-0.21508789,-1.2531891,-2.8786163,-1.0736389
1615,A,168779313745649,0.024139404,-15.2139435,1.5766754,-0.7619324,-2.2432709,-0.93429565
1615,A,168779364099653,0.43667603,-11.363022,-1.4226074,0.6619415,-0.9222412,-0.5385742
1615,A,168779414453657,4.626114,-8.776825,-0.32102966,2.4600067,1.0461578,-0.0357666
1615,A,168779464807661,0.540802,-5.7947083,2.0203552,-0.61701965,-2.051834,1.0664978
1615,A,168779515161665,-2.9573364,-4.040344,2.0731354,-1.9186859,-0.47172546,-0.7271576
1615,A,168779565515669,-2.484085,-2.1855927,2.969345,2.017807,1.0619202,0.5291443
1615,A,168779615869673,-2.663269,-3.1957855,-0.7613678,-1.0282593,1.523468,-0.57162476
1615,A,168779666223677,18.985931,-19.205551,-19.602524,1.0129395,1.3510895,0.42123413
1615,A,168779716577681,-9.148834,-0.11909485,-3.3530426,2.0885315,2.261795,1.9915619
1615,A,168779766931684,1.5803223,-13.5793,-0.338089,0.8549652,-2.4458923,0.16966248
1615,A,168779817285688,2.0519714,-2.4191895,2.1948547,1.6407928,4.768799,-0.30949402
1615,A,168779867639692,-7.0477905,-8.8441925,4.461151,1.2582397,3.0919495,0.6975403
1615,A,168779917993696,4.623932,-16.180954,-1.8678589,0.2925415,1.0790253,-0.26509094
1615,A,168779968347700,2.652954,-7.6434937,4.587219,0.87072754,0.85136414,-0.22793579
1615,A,168780018701704,4.251816,-6.8716736,-1.4747467,0.6995392,0.3970642,0.134552
1615,A,168780069055708,5.4897614,-7.850357,-6.177826,-0.38562012,0.48202515,0.3559723
1615,A,168780119409712,3.0425568,-8.881668,-0.16452026,-0.08917236,0.9885254,-0.007537842
1615,A,168780169763716,2.1977234,-9.317017,-2.6853485,-0.07659912,-0.32588196,-0.51039124
1615,A,168780220117720,1.622879,-10.106888,-1.8443451,-2.3684845,-1.4708405,-1.0447845
1615,A,168780270471723,3.8552399,-10.34169,-1.2923431,-3.0565338,-1.4627686,-1.2915802
1615,A,168780320825727,5.6244354,-12.155106,2.0550385,-1.7574615,-1.866333,-0.6378784
1615,A,168780371179731,5.248001,-12.198883,-7.8842773,-1.8067932,-2.7151184,0.87446594
1615,A,168780421533735,3.7996216,-12.235107,-1.9722595,-1.3423767,-1.6993256,-0.073272705
1615,A,168780471887739,0.16436768,-14.528717,2.100174,-0.81459045,-2.3051758,-0.70210266
1615,A,168780522241743,-4.730606,-16.901932,1.0890198,0.61924744,-1.2709503,-0.41706848
1615,A,168780572595747,2.2866974,-9.279388,0.37290955,2.5460205,0.8130646,0.05404663
1615,A,168780622949751,5.521408,-5.864334,2.9556732,1.3947601,0.88409424,0.11790466
1615,A,168780673303755,-0.8983002,-2.963623,1.787796,-1.2402191,-1.4522552,-0.37590027
1615,A,168780723657759,-2.795578,-1.1385345,3.1995087,0.7228699,0.7124176,0.32707214
1615,A,168780774011763,-2.3744507,-7.4854584,-5.1383057,0.8170471,1.8560028,-0.1900177
1615,A,168780824365766,-3.1220703,-14.511658,-13.24678,0.56266785,1.6760864,0.03868103
1615,A,168780874719770,-1.1834412,-4.614929,1.3074951,1.0397339,1.2614899,0.8189697
1615,A,168780925073774,2.0110626,-8.888977,-2.2311707,2.2378235,0.49427795,0.06321716
1615,A,168780975427778,-0.42100525,-12.088257,-8.742371,2.2088776,2.5774994,0.32286072
1615,A,168781025781782,-6.5019073,-7.2128906,3.1128845,0.7507477,1.6638031,0.11470032
1615,A,168781076135786,1.9643707,-12.518036,3.2050018,0.30555725,1.1695862,0.07206726
1615,A,168781126489790,3.3281403,-9.967819,0.10479736,0.59750366,1.2627869,-0.011947632
1615,A,168781176843794,3.7981262,-8.28508,-3.113861,1.0918732,0.7189026,0.04031372
1615,A,168781227197798,2.7174225,-7.6445465,-3.999527,0.25454712,0.49568176,0.36360168
1615,A,168781277551802,2.678894,-8.155624,-0.018981934,0.039520264,0.7444153,0.35272217
1615,A,168781327905806,2.1836395,-8.933105,0.050964355,-0.27120972,-0.15783691,-0.2528839
1615,A,168781378259809,2.149887,-10.26503,-2.1321716,-1.8537903,-1.5406494,-0.8834381
1615,A,168781428613813,3.5365906,-10.757126,-2.7267303,-3.1582947,-2.1171417,-1.2386932
1615,A,168781478967817,6.1620483,-10.755371,-2.6931305,-1.5662842,-2.1137695,-0.33772278
1615,A,168781529321821,6.587509,-12.477493,-5.263916,-1.414505,-1.4216614,0.57315063
1615,A,168781579675825,3.003708,-12.248642,-5.1656494,-1.2749634,-2.4648285,-0.55174255
1615,A,168781630029829,1.4190216,-15.819992,2.5871582,-0.995224,-2.7180328,-0.7178192
1615,A,168781680383833,-1.034317,-14.211014,-3.7599792,0.113708496,-1.1791534,-0.51838684
1615,A,168781730737837,0.29377747,-9.66304,-1.3296661,2.0552673,0.6907959,-0.31637573
1615,A,168781781091841,5.112335,-6.0703735,1.8656464,0.2833557,-0.82777405,0.6799011
1615,A,168781831445845,-1.8561401,-3.9012146,2.3123627,-1.4848938,-0.603302,-0.21673584
1615,A,168781881799848,-3.21846,-2.7526093,2.9434662,1.0162201,0.55648804,0.2492981
1615,A,168781932153852,-1.6647034,-3.006897,0.8397064,-0.49028015,1.8431091,-0.32351685
1615,A,168781982507856,13.509491,-14.926178,-14.305695,0.36904907,1.3235168,0.16534424
1615,A,168782032861860,-0.7963257,-5.4757996,-7.433258,1.0212097,1.9150848,1.270935
1615,A,168782083215864,-1.4781647,-9.56221,-0.93826294,1.8232269,-0.5392761,0.2865448
1615,A,168782133569868,-0.21244812,-7.212509,0.8201599,2.3911743,3.4352417,0.2895813
1615,A,168782183923872,-4.911606,-6.4969635,3.3625488,1.4113159,2.058319,0.25317383
1615,A,168782234277876,3.3810425,-15.65567,-0.18281555,-0.318573,0.26194763,-0.24572754
1615,A,168782284631880,2.274109,-9.678024,2.7656097,0.7602234,1.416565,-0.23110962
1615,A,168782334985884,3.7373352,-8.9422455,3.1357117,1.6522827,-0.13696289,0.072753906
1615,A,168782385339888,5.2265167,-6.514908,-9.187576,0.6504669,0.8873596,0.18208313
1615,A,168782435693891,1.7993469,-8.414261,1.5546417,-0.4275818,0.8744812,0.28733826
1615,A,168782486047895,1.969162,-8.76413,-0.39842224,0.21032715,-0.4195099,-0.31318665
1615,A,168782536401899,1.7714996,-10.292831,-1.3618317,-2.157898,-1.3123322,-1.0997314
1615,A,168782586755903,1.7208099,-10.320435,-4.6924896,-3.2743988,-1.3401184,-1.1847992
1615,A,168782637109907,5.6188354,-12.605301,5.7345123,-1.7913208,-0.8777771,-0.6408386
1615,A,168782687463911,7.140518,-14.338959,-6.1927795,-1.7690277,-2.5211487,1.2205963
1615,A,168782737817915,1.4812775,-11.59877,-2.8582458,-1.686142,-0.7967377,0.95936584
1615,A,168782788171919,2.2007446,-13.6147,2.3942566,-1.2346497,-1.9849548,-1.1204224
1615,A,168782838525923,-5.699066,-15.979889,0.85287476,-0.5333252,-2.088501,-0.5736084
1615,A,168782888879927,-1.363617,-9.750565,-1.4569397,1.3179779,-0.49241638,-0.18353271
1615,A,168782939233931,3.9573975,-7.3614044,2.734253,3.4006805,1.4165039,0.16116333
1615,A,168782989587934,4.481491,-4.7460327,0.6226196,-2.0990448,-1.5287476,-0.43217468
1615,A,168783039941938,-5.4664917,-2.4316864,2.5467377,-0.6185608,-0.56307983,-0.10777283
1615,A,168783090295942,-2.3594208,-1.5481567,2.224472,1.1867523,1.94104,0.2747345
1615,A,168783140649946,-4.092758,-11.926987,-15.082733,0.20962524,0.44688416,-0.92259216
1615,A,168783191003950,3.1435394,-11.56012,-3.5729065,1.2769318,1.9073334,1.1138306
1615,A,168783241357954,-2.9355469,-2.4767761,0.79048157,1.7855377,-0.88368225,-0.10296631
1615,A,168783291711958,4.4379272,-17.308807,-2.356308,2.8105927,2.3736877,0.055023193
1615,A,168783342065962,-9.807419,-4.1862793,2.2066498,0.13095093,2.771408,-0.664917
1615,A,168783392419966,1.0743866,-13.2708435,6.1957703,0.77433777,-0.7913666,0.6919403
1615,A,168783442773970,2.267807,-9.739624,0.6673889,0.32733154,1.3450775,0.12490845
1615,A,168783493127973,3.6753693,-10.105011,-2.4458466,1.5485687,1.257721,-0.046463013
1615,A,168783543481977,0.05908203,-7.6080475,-2.684845,1.3147583,0.5390625,-0.13781738
1615,A,168783593835981,3.7299805,-8.309753,-1.1741638,-0.44651794,1.1168213,0.06402588
1615,A,168783644189985,2.493637,-7.8970337,1.0458679,-0.62164307,0.5918579,0.07537842
1615,A,168783694543989,2.6572113,-10.296341,-1.881958,-1.1399078,-1.3703461,-0.6266632
1615,A,168783744897993,2.1796722,-11.294144,-3.144577,-2.9490356,-1.6834106,-1.1726379
1615,A,168783795251997,3.876587,-11.40126,-4.9786987,-2.9559174,-1.180069,-0.9218445
1615,A,168783845606001,6.891464,-11.678558,-2.1701355,-1.4813385,-1.8005676,0.41764832
1615,A,168783895960005,5.2519073,-12.100586,-4.1635895,-1.5909882,-1.8273468,1.0007172
1615,A,168783946314009,0.5566406,-13.836975,-2.3971405,-0.9753876,-1.4797211,-0.10324097
1615,A,168783996668013,-0.13717651,-15.949966,1.3069763,-0.6357422,-2.0925598,-0.8175812
1615,A,168784047022016,-3.0476227,-12.306488,-1.9782715,1.0147705,-0.9423218,-0.29878235
1615,A,168784097376020,3.4732666,-8.542755,4.1241302,1.9800873,1.1897583,0.44436646
1615,A,168784147730024,5.1858826,-5.4090576,6.4347076,-0.0823822,0.58517456,0.0765686
1615,A,168784198084028,-3.092682,-3.128601,2.7117004,-0.6356659,-0.8195343,-0.3548584
1615,A,168784248438032,-3.291504,-1.8274078,3.416397,0.7723694,1.3170319,0.3700714
1615,A,168784298792036,5.2976685,-9.556046,-7.175049,0.6694336,1.184845,-0.45463562
1615,A,168784349146040,5.2223053,-12.723679,-11.591019,0.9949188,0.83000183,-0.07014465
1615,A,168784399500044,-2.333313,-5.0920258,-1.4586487,1.6829834,0.7332306,0.3175354
1615,A,168784449854048,2.6545715,-11.705002,-3.4009857,1.9983826,0.6118622,-0.32878113
1615,A,168784500208052,-4.5568542,-12.489914,-2.6924896,1.1114044,2.026947,-0.12086487
1615,A,168784550562056,-4.1015472,-10.26091,2.6971893,0.6860962,1.023346,0.4842682
1615,A,168784600916059,2.9949493,-12.204193,2.769333,0.08592224,0.96315,0.35865784
1615,A,168784651270063,1.9307556,-9.993805,-4.87912,0.41551208,1.000351,-0.031463623
1615,A,168784701624067,-0.7667694,-8.653976,-3.161255,1.2039032,0.56910706,-0.14949036
1615,A,168784751978071,1.1659546,-7.7965393,-0.62976074,0.42936707,0.54060364,0.13075256
1615,A,168784802332075,3.4319153,-7.7474365,-0.4685974,0.1288147,0.39308167,0.17166138
1615,A,168784852686079,2.5231018,-9.011322,-0.55026245,-0.707077,-0.76652527,-0.43545532
1615,A,168784903040083,1.7916412,-10.630997,-1.1170502,-2.3693237,-1.5469055,-0.87690735
1615,A,168784953394087,2.8062592,-11.056732,-3.6364136,-3.4398804,-0.49905396,-1.2881622
1615,A,168785003748091,6.270752,-11.250015,-2.8554688,-1.7328644,-2.1591187,0.2007904
1615,A,168785054102095,5.615814,-12.238892,-5.736023,-1.6164703,-2.5790863,1.3809662
1615,A,168785104456098,1.5189972,-12.144943,-4.726593,-1.1772156,-0.8413086,-0.14149475
1615,A,168785154810102,-0.3320465,-16.707565,2.0776215,-0.8614502,-1.8758392,-0.8056793
1615,A,168785205164106,-1.2607727,-13.534302,-2.8838196,0.2077179,-1.3691559,-0.5461273
1615,A,168785255518110,2.429535,-9.5686035,-0.024902344,1.9688416,0.15467834,-0.27651978
1615,A,168785305872114,4.8481293,-6.224884,0.029327393,0.49238586,0.98457336,0.6615753
1615,A,168785356226118,-1.4045715,-3.8580475,1.6980591,-1.4666748,-0.90371704,-0.17893982
1615,A,168785406580122,-3.2555237,-2.0790253,2.7170563,1.0265656,0.3998413,0.08026123
1615,A,168785456934126,-1.4050446,-2.99823,1.6418152,-0.7212982,1.8335419,-0.8196411
1615,A,168785507288130,15.213379,-16.175522,-15.534363,0.4542694,0.29774475,0.33596802
1615,A,168785557642134,-1.325882,-5.4879913,-4.9862213,1.0207825,1.4468384,1.2423096
1615,A,168785607996138,2.579422,-9.144485,2.3868408,1.330368,-1.7501984,0.08757019
1615,A,168785658350141,-0.7803955,-6.4119263,-1.1606598,2.679184,2.401947,-0.01373291
1615,A,168785708704145,-6.626892,-6.769516,4.917862,1.7714996,5.074539,0.25074768
1615,A,168785759058149,4.3309937,-16.565765,-1.3540192,0.17277527,-0.19070435,0.19631958
1615,A,168785809412153,2.1703033,-8.63295,0.7880554,1.5627747,0.9141998,-0.1485138
1615,A,168785859766157,3.3849335,-7.645447,-0.71806335,1.3764801,0.6431732,-0.021408081
1615,A,168785910120161,4.283783,-8.290314,-5.7770386,-0.6827698,1.094101,-0.017745972
1615,A,168785960474165,3.245346,-8.128082,0.38534546,-0.57255554,0.33625793,0.42500305
1615,A,168786010828169,2.5452118,-9.262833,-2.3124847,0.7772827,0.29634094,-0.14050293
1615,A,168786061182173,1.5799255,-10.553085,-2.746704,-1.8518372,-1.1871033,-0.8903961
1615,A,168786111536177,0.7486267,-9.660736,-3.6997833,-2.9618988,-1.385025,-0.9860077
1615,A,168786161890181,4.9786987,-12.612335,3.4519653,-2.6771698,-1.1581268,-1.2918396
1615,A,168786212244184,9.4249115,-11.285248,-6.221573,-0.97262573,-2.9779358,0.68573
1615,A,168786262598188,1.8335876,-12.258347,-3.007904,-1.7930298,-1.0572052,0.58561707
1615,A,168786312952192,1.7042847,-11.307343,1.4487,-1.2329865,-2.5695343,-0.9157257
1615,A,168786363306196,-2.034439,-17.734238,3.4775238,-0.54551697,-1.935791,-0.57266235
1615,A,168786413660200,-0.77090454,-10.573151,-3.2796783,1.0852814,-0.8093262,-0.34007263
1615,A,168786464014204,4.951355,-7.626831,6.035324,1.9280243,0.29518127,-0.0665741
1615,A,168786514368208,2.7111359,-4.9167786,1.7564392,-1.7414093,-1.8056641,0.20806885
1615,A,168786564722212,-2.8691711,-3.1979828,1.9691772,-0.7377777,-0.26593018,-0.30517578
1615,A,168786615076216,-1.8404236,-2.0928802,2.2837372,1.4115753,0.6633148,0.2679596
1615,A,168786665430220,-0.20491028,-7.838211,-4.607254,-0.21629333,2.0837708,-0.20433044
1615,A,168786715784223,6.410202,-15.571716,-6.797394,1.295517,1.4409637,0.80348206
1615,A,168786766138227,-5.837326,-3.4377594,-3.084732,1.4300537,0.7853546,0.70417786
1615,A,168786816492231,-1.1581116,-15.670853,-3.5500488,1.6696777,0.38938904,-0.110687256
1615,A,168786866846235,-3.5110016,-4.2144775,4.4765472,2.0219574,3.7586517,0.009887695
1615,A,168786917200239,-2.361145,-11.179626,4.0558777,0.7858734,2.3776093,0.530426
1615,A,168786967554243,3.204361,-14.523224,-1.3336182,0.20501709,0.4413147,-0.06990051
1615,A,168787017908247,2.4708862,-8.692017,-0.12106323,0.9240875,1.313324,0.01953125
1615,A,168787068262251,4.0937195,-7.28331,-3.7676544,1.1134644,0.3050232,0.00920105
1615,A,168787118616255,4.128586,-8.47757,-4.5938263,0.046173096,0.71102905,0.039413452
1615,A,168787168970259,2.5100708,-8.493317,-0.21131897,-0.5108032,0.68611145,0.055038452
1615,A,168787219324263,2.4439545,-8.699249,-0.92285156,-0.3644104,-0.079940796,-0.2892151
1615,A,168787269678266,1.8531036,-10.3715515,-2.3063354,-1.9862366,-2.0408478,-0.8349457
1615,A,168787320032270,2.8970184,-10.798523,-3.094162,-2.9532318,-1.384079,-1.2460022
1615,A,168787370386274,5.8458557,-11.404083,-2.11792,-2.4641266,-1.7566376,-0.31750488
1615,A,168787420740278,6.7292786,-11.445923,-5.382324,-1.8927307,-2.300293,1.2189484
1615,A,168787471094282,3.2793884,-11.9314575,-4.0559998,-1.4646606,-1.5346069,0.3041687
1615,A,168787521448286,-0.47991943,-15.01152,2.758545,-0.8462219,-2.1808472,-0.815094
1615,A,168787571802290,-1.8187866,-15.412872,1.0727997,0.13256836,-1.7290039,-0.517746
1615,A,168787622156294,1.840805,-9.730804,2.6611023,2.076416,0.10308838,-0.17608643
1615,A,168787672510298,6.395157,-6.8671265,4.5811157,0.10758972,-0.787796,-0.10862732
1615,A,168787722864302,1.3815002,-3.4065552,0.7091217,-2.0098114,-1.3398895,-0.56326294
1615,A,168787773218306,-4.1262817,-1.7988739,2.7069702,0.47929382,-0.25827026,-0.029251099
1615,A,168787823572309,-3.7634735,-4.5194397,0.53790283,0.26831055,0.48135376,-0.51127625
1615,A,168787873926313,3.1493073,-13.786377,-3.4532318,0.1468811,0.7157135,-0.05014038
1615,A,168787924280317,-0.28398132,-8.513626,-2.7421417,1.0967255,1.0786133,0.8883667
1615,A,168787974634321,1.4720001,-10.748077,-2.4891052,1.6093903,-0.30358887,0.28425598
1615,A,168788024988325,0.47831726,-9.106125,-1.0600586,1.9697571,2.2688293,-0.22877502
1615,A,168788075342329,-5.8501434,-5.977112,3.860199,1.8121796,3.1652374,0.2645111
1615,A,168788125696333,0.6838684,-13.844772,1.2810974,0.36312866,0.73172,0.18318176
1615,A,168788176050337,3.0016022,-12.026047,0.7627411,0.5100403,1.4689636,0.015838623
1615,A,168788226404341,2.800705,-7.587982,0.21803284,1.5892334,-0.0061035156,0.15531921
1615,A,168788276760026,3.543579,-7.4386444,-6.4205475,1.0814819,0.88490295,-0.11685181
1615,A,168788327114029,2.039444,-8.760834,0.8617096,-0.8111572,0.58374023,-0.042160034
1615,A,168788377468033,2.1261902,-8.233917,1.4019775,-0.119781494,0.4716797,0.18675232
1615,A,168788427822037,2.1341858,-9.822266,-1.1231232,-0.58943176,-0.84461975,-0.5470581
1615,A,168788478176041,1.557373,-10.171066,-4.558777,-2.46167,-1.3933258,-1.0121918
1615,A,168788528530045,3.110611,-12.012604,-0.8239441,-3.521881,-0.67414856,-1.25737
1615,A,168788578884049,7.707321,-11.063797,-0.6188507,-1.5504761,-2.2841187,0.14350891
1615,A,168788629238053,5.0509796,-12.617844,-5.8926697,-1.6360016,-2.082077,1.1823883
1615,A,168788679592057,1.2047882,-11.626038,-2.7108307,-0.68048096,-1.3919525,-0.6138153
1615,A,168788729946061,-0.774704,-16.840668,3.131134,-0.9406738,-2.4976044,-0.9944153
1615,A,168788780300065,-1.810318,-13.037933,-2.2294617,0.2715912,-1.5664673,-0.5609131
1615,A,168788830654069,0.7965698,-9.776428,0.73628235,2.3669586,0.627121,-0.13504028
1615,A,168788881008072,8.225418,-6.281616,-3.3760834,-0.51771545,-1.2795258,1.1700745
1615,A,168788931362076,-3.0491028,-3.7941284,2.022461,-2.0030975,-0.90922546,-0.84651184
1615,A,168788981716080,-3.5425415,-2.0513153,3.819687,1.3289795,0.3148651,0.14097595
1615,A,168789032070084,-2.596054,-3.2115479,0.29736328,-1.0114899,1.929184,-0.3951416
1615,A,168789082424088,17.495438,-18.09375,-18.167572,1.5615845,-0.15066528,0.09449768
1615,A,168789132778092,-6.3905487,-4.2038116,-4.36351,2.6857452,1.234726,0.8806915
1615,A,168789183132096,1.668457,-13.037231,-3.9076843,2.271637,0.0077209473,0.21322632
1615,A,168789233486100,-1.0828857,-3.8463593,3.6914215,0.6104431,2.747818,-1.0256958
1615,A,168789283840104,-6.3930054,-7.991394,6.3120575,0.5939331,1.1127777,0.7866974
1615,A,168789334194108,2.0314484,-14.279022,1.1618042,0.5800781,0.2785492,0.74661255
1615,A,168789384548112,2.01828,-9.253586,-3.174591,1.1955872,1.6917725,-0.18621826
1615,A,168789434902115,0.4467926,-7.6061707,-1.6997375,1.7085876,0.39009094,-0.25463867
1615,A,168789485256119,0.2900238,-7.3831177,-0.46450806,0.5970764,1.4153748,-0.23257446
1615,A,168789535610123,4.7178497,-8.161911,0.6355438,-1.833252,0.36317444,0.5062256
1615,A,168789585964127,3.0554352,-8.256012,-0.66552734,0.14076233,0.40075684,0.08074951
1615,A,168789636318131,0.8858032,-10.795563,-1.8405762,-0.42214966,-1.6213074,-0.9921417
1615,A,168789686672135,1.030777,-10.724838,-6.4450226,-2.91008,-1.3150177,-0.9822693
1615,A,168789737026139,4.484268,-12.300308,1.9161377,-3.2708588,-0.38346863,-1.019989
1615,A,168789787380143,9.069244,-11.550873,-0.35702515,-1.5069885,-2.4560394,0.6262665
1615,A,168789837734147,0.42765808,-13.955933,-10.000275,-1.4548492,-2.1704254,0.87197876
1615,A,168789888088151,-1.0890198,-12.364822,-1.4047394,-0.7629547,-0.77189636,-0.82066345
1615,A,168789938442154,-1.741394,-16.97905,1.7026978,-0.8104248,-2.7394562,-1.3666687
1615,A,168789988796158,-0.7642975,-11.471054,-1.9908447,0.69314575,-1.4761047,-0.6963501
1615,A,168790039150162,3.1337128,-8.956375,0.65145874,2.0979462,0.53556824,0.06361389
1615,A,168790089504166,5.6592865,-6.273987,-0.7068634,0.9104004,0.52867126,0.6298981
1615,A,168790139858170,-2.6171417,-3.9251862,3.6317291,-1.2823486,-0.70573425,-0.59780884
1615,A,168790190212174,-3.8980255,-2.5704498,2.807663,0.46751404,0.8292389,0.02027893
1615,A,168790240566178,-1.897522,-6.774994,-4.3412323,0.013336182,0.7332306,-0.56362915
1615,A,168790290920182,0.25785828,-15.527161,-15.045456,0.9621277,0.2516632,-0.5873108
1615,A,168790341274186,-1.3240662,-5.8550415,-2.2571106,1.1990814,1.4490051,1.3582001
1615,A,168790391628190,2.6573792,-9.381622,-0.94210815,2.141571,-0.69132996,0.30384827
1615,A,168790441982194,-0.55529785,-13.270447,-2.3594818,2.5397797,2.2639923,-0.007156372
1615,A,168790492336197,-9.761612,-7.9036407,4.7790833,0.394104,2.9190063,-0.20370483
1615,A,168790542690201,-0.42723083,-14.372681,3.8901062,0.70454407,0.9581604,0.17637634
1615,A,168790593044205,1.9062347,-9.771591,-1.5038757,1.5206757,0.93200684,-0.20280457
1615,A,168790643398209,3.1278992,-9.085495,-2.531067,0.8318634,0.8207092,-0.19252014
1615,A,168790693752213,2.7568817,-7.729233,-2.5407257,-0.47549438,0.6771393,0.3527069
1615,A,168790744106217,2.843048,-8.570541,-0.9174957,-0.23805237,0.25361633,0.4880066
1615,A,168790794460221,2.6315002,-9.347641,-1.982193,0.33816528,-0.51701355,-0.36579895
1615,A,168790844814225,1.2540588,-9.946671,-4.057663,-1.3673096,-0.86950684,-0.9986572
1615,A,168790895168229,1.8379822,-10.937927,-1.3713379,-3.307785,-0.14427185,-1.3197327
1615,A,168790945522233,4.9494324,-11.733826,2.1445618,-2.5610046,-1.1248169,-0.79751587
1615,A,168790995876237,4.7595215,-13.55658,-3.2169952,-1.407959,-2.5507965,0.7401428
1615,A,168791046230240,0.6860962,-13.001419,-7.213867,-1.3925781,-2.114029,0.55870056
1615,A,168791096584244,-0.767807,-14.322403,-1.2769775,-1.2811432,-1.555191,-0.63638306
1615,A,168791146938248,-3.1623993,-15.939987,1.0388184,-0.4744873,-1.4578857,-0.71743774
1615,A,168791197292252,-2.700058,-11.716217,-0.9893799,1.2480927,-0.6282654,-0.3993225
1615,A,168791247646256,5.5955505,-8.505478,1.2107086,2.16333,1.1857605,0.40940857
1615,A,168791298000260,2.1201935,-5.422592,1.6049194,-0.7796936,-0.27748108,-0.17840576
1615,A,168791348354264,-2.659912,-2.42688,2.3722534,-0.43415833,-0.8221741,-0.09225464
1615,A,168791398708268,-1.4860535,-1.2608643,2.3118134,0.9698181,1.7205353,0.4822998
1615,A,168791449062272,1.1499634,-12.996429,-12.219559,0.35585022,1.554718,-0.65626526
1615,A,168791499416276,-1.8613892,-9.804291,-8.923218,0.97161865,2.8168182,0.5352936
1615,A,168791549770279,-3.5011902,-3.3343353,1.7268372,1.6288452,0.11444092,0.15361023
1615,A,168791600124283,4.941803,-14.3333435,-8.853455,2.7955475,0.6763153,0.045578003
1615,A,168791650478287,-3.849701,-6.2421265,-3.3166351,0.6958618,2.6974335,-0.35850525
1615,A,168791700832291,-2.671051,-11.184738,5.6470337,0.57351685,2.3780975,0.46791077
1615,A,168791751186295,1.0573578,-11.905945,3.863388,-0.093444824,2.0150604,0.28959656
1615,A,168791801540299,2.6515045,-8.822067,-0.9711151,0.4429779,1.4043121,0.30116272
1615,A,168791851894303,0.07246399,-7.1182404,-0.0014190674,1.5773315,-0.17253113,0.15335083
1615,A,168791902248307,2.4627533,-8.845459,-1.2287598,0.6378937,1.083786,-0.022277832
1615,A,168791952602311,2.2041016,-9.118515,0.34295654,-0.19026184,1.4429016,-0.08862305
1615,A,168792002956315,3.3632355,-8.692017,-1.0035858,-0.41220093,0.2206726,-0.51678467
1615,A,168792053310319,2.2481384,-9.981216,-1.42276,-1.4150238,-1.4413757,-1.1444092
1615,A,168792103664322,2.2274628,-10.415085,-4.6503296,-3.5389404,-0.89105225,-1.0245667
1615,A,168792154018326,4.38237,-11.874832,-1.1753082,-2.3009644,-0.58425903,-0.41629028
1615,A,168792204372330,7.5129547,-11.455414,-3.2252655,-1.6989136,-3.0344849,1.3380432
1615,A,168792254726334,1.0242157,-12.201187,-6.3877106,-0.8279419,-1.044693,0.50930786
1615,A,168792305080338,1.0376282,-14.063461,2.0790405,-1.2395325,-1.9454498,-1.2798004
1615,A,168792355434342,-5.223419,-15.675018,1.3408508,-0.3262329,-2.1772919,-0.72502136
1615,A,168792405788346,-0.52323914,-10.518707,-2.079483,1.2212067,-0.73939514,-0.38996887
1615,A,168792456142350,6.711609,-6.4408417,2.2151947,3.2388916,1.6637421,0.019699097
1615,A,168792506496354,1.0159607,-4.2236176,2.3127441,-2.0871277,-2.0345612,-0.28633118
1615,A,168792556850358,-3.640747,-3.6047363,2.6048737,-1.0559692,-1.3603973,-0.6116791
1615,A,168792607204362,-2.3319855,-2.0559235,1.9732666,1.7818298,0.20065308,0.16958618
1615,A,168792657558365,-5.7574005,-11.7756195,-13.469849,-0.76519775,1.4099579,-1.0776367
1615,A,168792707912369,4.8821106,-12.677475,-2.9725037,1.1682281,0.5023346,0.69325256
1615,A,168792758266373,-4.486145,-3.0740356,0.72789,1.3841705,0.5947418,1.231247
1615,A,168792808620377,7.9345093,-17.843369,-3.3168182,2.1020355,-0.5120392,0.10720825
1615,A,168792858974381,-5.841675,-2.622055,3.6306152,1.0965729,1.7546692,-0.37902832
1615,A,168792909328385,-5.5887146,-9.4453125,5.7127533,0.4353943,2.3751526,-0.01071167
1615,A,168792959682389,6.0059204,-15.388229,-0.7598572,0.42588806,0.6712189,0.6027527
1615,A,168793010036393,0.24317932,-9.688812,5.18808,1.044281,0.63490295,0.1928711
1615,A,168793060390397,2.2285614,-6.713028,-4.741638,1.3119202,0.33670044,-0.010391235
1615,A,168793110744401,-0.8160858,-8.6132965,-0.20652771,0.5475006,0.91770935,-0.1968689
1615,A,168793161098404,3.105713,-9.120346,-1.7183533,-0.55630493,0.71435547,0.059936523
1615,A,168793211452408,2.731491,-8.693939,-0.79763794,0.055725098,-0.014785767,0.0748291
1615,A,168793261806412,1.9194183,-10.443756,-1.1365662,-1.0841064,-1.1156158,-0.8617401
1615,A,168793312160416,1.7210693,-10.436905,-2.591446,-2.6894684,-1.2006989,-1.1627655
1615,A,168793362514420,3.6089478,-11.639481,-0.87257385,-3.088501,-0.7098999,-0.86206055
1615,A,168793412868424,6.7844086,-11.873154,-2.4601135,-1.4485168,-2.0118713,0.47802734
1615,A,168793463222428,2.475647,-13.223328,-4.6259766,-1.6038055,-1.8839874,1.1565704
1615,A,168793513576432,-1.8915863,-13.032837,-4.1172028,-1.0061493,-1.7850189,-0.12542725
1615,A,168793563930436,-0.76005554,-15.172546,2.1583557,-0.5585327,-1.3218994,-0.98794556
1615,A,168793614284440,-3.3418732,-12.898895,-1.6804352,0.75408936,-1.046463,-0.44171143
1615,A,168793664638444,3.2399292,-8.952103,0.3366394,1.7982483,0.32458496,0.34394836
1615,A,168793714992447,5.007126,-5.8771057,1.7943573,0.15892029,0.11820984,0.4360199
1615,A,168793765346451,-2.2153015,-3.6109467,0.46047974,-0.9633789,-1.3013611,-0.35072327
1615,A,168793815700455,-3.4631653,-2.0942383,1.9795532,0.5528412,0.5206299,0.11439514
1615,A,168793866054459,1.0562286,-9.038101,-7.1082916,0.4112091,1.1298828,-0.57192993
1615,A,168793916408463,1.550705,-12.926727,-12.346176,0.60440063,1.6208038,0.053619385
1615,A,168793966762467,-3.7145996,-4.555023,-0.41931152,1.0931854,1.0661621,0.8436127
1615,A,168794017116471,3.5119781,-11.728943,-5.3359528,2.2236176,-0.13790894,0.116760254
1615,A,168794067470475,1.2125702,-10.7526245,-6.673691,2.1660004,1.6168671,-0.10534668
1615,A,168794117824479,-6.0226593,-8.067978,2.331421,0.5866089,2.67128,0.003768921
1615,A,168794168178483,-0.001876831,-12.397171,3.025177,0.5148163,1.4438477,0.55978394
1615,A,168794218532487,1.773407,-10.394714,2.106369,1.1023407,0.23829651,0.26031494
1615,A,168794268886490,1.9360809,-9.123703,-2.3274994,1.4230042,0.6363983,-0.1790924
1615,A,168794319240494,0.4416504,-8.44249,-2.2476501,0.6678314,1.1091766,-0.24919128
1615,A,168794369594498,1.6354523,-8.795914,1.4785919,-0.40985107,1.1833954,0.02192688
1615,A,168794419948502,2.8283234,-8.1037445,-0.2116394,-0.068481445,0.363266,0.03942871
1615,A,168794470302506,1.8284912,-9.702072,-1.6828308,-0.46116638,-0.6744995,-0.5360565
1615,A,168794520656510,0.9220276,-10.27272,-3.267334,-2.1064148,-1.191742,-0.93777466
1615,A,168794571010514,2.0189362,-11.548828,-0.21195984,-3.38089,-0.43696594,-1.1908417
1615,A,168794621364518,6.1334686,-11.861969,-0.33239746,-1.8475342,-1.9020233,-0.024337769
1615,A,168794671718522,4.2338257,-12.1306,-4.2671967,-1.7944336,-1.1404266,1.1138763
1615,A,168794722072526,-1.0508423,-11.772568,-4.3882446,-1.1783752,-1.5801697,0.22851563
1615,A,168794772426529,-1.5207672,-15.548798,0.4857483,-0.7998657,-1.7610321,-0.9239197
1615,A,168794822780533,-2.1475983,-14.195389,-1.5084991,0.10585022,-1.5131073,-0.5802002
1615,A,168794873134537,-0.20222473,-10.359787,-0.75312805,1.6552582,-0.5933075,-0.19862366
1615,A,168794923488541,5.431076,-6.953415,-0.2826233,0.25724792,0.4423828,0.84820557
1615,A,168794973842545,0.70887756,-4.2697296,0.5474243,-1.7434692,-1.4779968,-0.16546631
1615,A,168795024196549,-3.0108032,-2.381195,2.0751038,0.6906891,-0.780838,-0.07072449
1615,A,168795074550553,-1.8100739,-2.2599335,0.7694702,-0.20970154,1.8661041,-0.1640625
1615,A,168795124904557,13.305008,-15.708542,-15.435104,0.78822327,-0.78707886,-0.9365692
1615,A,168795175258561,-1.336853,-5.3785553,-5.5744934,1.4012146,2.335617,1.4080048
1615,A,168795225612565,0.19369507,-6.3835297,-2.5111084,0.7602997,-1.1794739,0.28048706
1615,A,168795275966569,1.0041504,-10.6128235,1.1373749,3.3465881,0.44326782,0.08653259
1615,A,168795326320572,-9.948074,-4.3927307,3.0835876,0.85969543,2.1006012,-0.4323578
1615,A,168795376674576,0.21334839,-14.866318,2.5762482,0.32270813,2.2536926,0.22885132
1615,A,168795427028580,2.0269318,-8.911316,3.0101166,0.654068,0.75631714,0.27418518
1615,A,168795477382584,3.1233368,-9.291534,-2.4241028,1.217453,0.8766327,0.04525757
1615,A,168795527736588,1.5653534,-8.187393,-3.622467,1.9978333,1.2923279,-0.0907135
1615,A,168795578090592,0.13414001,-8.969177,-0.296875,-0.8957825,0.8347931,0.2242279
1615,A,168795628444596,1.8593445,-8.0550995,0.47434998,-0.21359253,1.2906036,0.09526062
1615,A,168795678798600,2.453247,-9.572571,-0.58828735,-0.480484,-0.31845093,-0.5741577
1615,A,168795729152604,2.0317688,-11.065491,-3.4505157,-1.2686615,-1.7108307,-1.1238098
1615,A,168795779506608,2.5771942,-11.335098,-3.8161316,-3.25914,-0.55892944,-0.9132843
1615,A,168795829860612,6.6373596,-11.158249,0.6917877,-2.2985077,-0.8509369,-0.6104431
1615,A,168795880214615,5.604965,-12.026047,-4.357239,-1.4210815,-2.6264954,0.97795105
1615,A,168795930568619,-0.24742126,-12.0004425,-3.473709,-1.4127502,-1.2622223,0.41775513
1615,A,168795980922623,0.082855225,-13.408844,1.1573334,-0.8515625,-1.2767487,-1.1044006
1615,A,168796031276627,-3.052246,-14.617264,1.0772095,-0.21864319,-2.015213,-1.0211945
1615,A,168796081630631,1.165329,-9.488556,-2.7373962,1.0260468,-0.96351624,-0.4915161
1615,A,168796131984635,2.917633,-7.2660217,3.4509888,1.8174896,0.35430908,-0.20097351
1615,A,168796182338639,2.1235504,-5.0534363,0.32226563,-1.4728088,-0.9784546,-0.19458008
1615,A,168796232692643,-2.9595947,-4.551773,1.4780273,-1.3736725,-0.6326904,-0.4045105
1615,A,168796283046647,-3.3506317,-3.5083008,1.7507629,1.3448181,0.0030212402,0.30474854
1615,A,168796333400651,-1.2938995,-9.093582,-3.9750519,0.62739563,2.2723694,-0.6942444
1615,A,168796383754654,7.4725647,-15.938309,-9.087219,0.8974304,0.684494,-0.53533936
1615,A,168796434108658,-5.007263,-1.6187286,-1.8249512,1.3007965,1.6306152,1.0671844
1615,A,168796484462662,0.3431244,-11.127136,-3.483963,1.7763062,-0.42271423,0.047592163
1615,A,168796534816666,-3.2606049,-15.851776,-11.986465,2.5707855,1.4116669,0.020370483
1615,A,168796585170670,-7.8810883,-6.227951,1.6867828,0.14414978,2.62529,-0.1027832
1615,A,168796635524674,-0.6085205,-13.480743,3.414856,0.42216492,1.5687866,0.47421265
1615,A,168796685878678,1.8894043,-9.84787,1.3162079,0.5433502,0.84965515,0.17034912
1615,A,168796736232682,2.2717743,-9.825211,-1.8877106,0.8976593,0.5023804,-0.09700012
1615,A,168796786586686,1.8781738,-7.9746857,-1.1535187,0.6222687,0.9217529,-0.02394104
1615,A,168796836940690,3.3020935,-9.04245,-1.9556885,-0.0925293,1.2434082,-0.006454468
1615,A,168796887294694,2.6517181,-8.632568,-0.7832794,0.034866333,1.3307495,-0.359787
1615,A,168796937648697,1.912674,-9.502472,-1.5899811,-0.9120941,-0.43933105,-0.85523987
1615,A,168796988002701,2.1779633,-10.530075,-2.837082,-2.813797,-0.50801086,-0.9909973
1615,A,168797038356705,3.568512,-11.477707,-1.293747,-3.0725098,-0.017227173,-0.6905365
1615,A,168797088710709,4.628845,-12.481613,-2.8194122,-1.8897095,-1.3852234,0.40612793
1615,A,168797139064713,2.5289612,-12.120453,-7.1052856,-1.6109924,-2.0399323,0.88897705
1615,A,168797189418717,0.3951416,-12.727051,-3.1008606,-1.2523041,-1.699585,-0.20574951
1615,A,168797239772721,-1.5446472,-15.014999,1.0465851,-0.62405396,-1.5596313,-0.7164917
1615,A,168797290126725,-1.8838043,-12.362976,-0.85401917,0.62358093,-0.9064636,-0.41482544
1615,A,168797340480729,3.8322449,-8.327744,1.2940674,2.2762146,0.029785156,-0.20518494
1615,A,168797390834733,3.2330933,-5.79039,2.5960846,0.18966675,-0.2763214,-0.3427124
1615,A,168797441188737,-1.6548309,-3.7890015,1.423584,-1.7596741,-1.0404663,-0.38839722
1615,A,168797491542740,-2.2108154,-2.3373413,2.0023804,0.48553467,-0.4974823,0.33226013
1615,A,168797541896744,-1.7584229,-6.1210785,-3.1400604,0.531662,1.2407227,0.08113098
1615,A,168797592250748,2.7317352,-13.869751,-7.3317566,0.540802,1.1334534,-0.29640198
1615,A,168797642604752,-0.9647522,-6.184265,-3.1272736,0.9380493,2.089569,1.119873
1615,A,168797692958756,-0.09248352,-4.825775,-1.5589294,1.3894806,0.44818115,0.5469513
1615,A,168797743312760,0.86016846,-11.197784,-1.9568787,3.0325165,0.4798584,0.17341614
1615,A,168797793666764,-6.1007843,-7.547806,1.0813751,1.3908081,2.301468,0.21376038
1615,A,168797844020768,-3.1631775,-11.575531,0.8699188,0.31628418,1.3487701,0.24505615
1615,A,168797894374772,1.2703857,-11.170853,2.2305908,0.239151,1.4307251,-0.10177612
1615,A,168797944728776,2.4417572,-9.285828,0.964798,0.9166565,1.169754,-0.103500366
1615,A,168797995082779,2.507187,-7.9918213,-2.9451904,1.2361603,0.82572937,-0.10479736
1615,A,168798045436783,2.3915863,-8.613251,-1.9641724,-0.027175903,0.86743164,0.14219666
1615,A,168798095790787,1.7301483,-8.213882,-0.065200806,0.29907227,0.8063812,0.18223572
1615,A,168798146144791,1.6334534,-9.708145,-1.4416504,-0.48329163,-0.6564331,-0.87350464
1615,A,168798196498795,1.6524353,-10.294327,-2.1271667,-2.2643585,-1.2071381,-0.87316895
1615,A,168798246852799,2.2383118,-11.37886,-1.5559235,-3.4230804,0.04963684,-1.1172638
1615,A,168798297230552,5.9244537,-12.040924,-2.2750397,-1.7484283,-2.1166382,-0.0211792
1615,A,168798347584556,3.4361877,-13.459152,-4.744873,-2.1718445,-0.06616211,0.728775
1615,A,168798397938560,-2.536789,-13.224869,-5.407593,-1.2864838,-1.1012878,-0.3059845
1615,A,168798448292564,-1.5442352,-17.200363,3.2678375,-1.3573303,-1.7400665,-0.96832275
1615,A,168798498646568,-4.2562256,-14.415253,-2.919876,-0.35072327,-1.6760559,-0.38790894
1615,A,168798549000571,1.388855,-10.475983,0.20410156,1.2124939,-0.22460938,-0.35905457
1615,A,168798599354575,4.6204987,-7.063797,0.903595,0.96118164,2.0307465,0.4655304
1615,A,168798649708579,-0.90885925,-4.0117035,0.7825012,-1.0003815,-1.7480469,0.2877655
1615,A,168798700062583,-2.2851105,-1.543457,3.0276337,0.09300232,-0.38084412,0.24168396
1615,A,168798750416587,-0.10292053,-3.1224518,0.029510498,0.7226105,3.2081604,-0.43214417
1615,A,168798800770591,-3.0210419,-18.475769,-18.650696,0.17564392,2.3594055,-0.1619873
1615,A,168798851124595,-0.76452637,-8.315063,-7.793915,1.4377289,3.8143616,1.5713196
1615,A,168798901478599,-3.0625763,-6.9762115,0.35081482,1.0202179,0.20054626,0.608078
1615,A,168798951832603,-2.689682,-19.04071,-9.967102,2.4093933,0.06959534,-0.22731018
1615,A,168799002186607,-7.5330505,-1.180893,1.748642,1.6811371,3.3332825,0.37480164
1615,A,168799052540611,-1.5873413,-13.742584,3.8421783,0.56173706,2.4011078,0.120010376
1615,A,168799102894614,2.8057404,-12.429031,1.7220306,-0.05430603,1.2179565,-0.83258057
1615,A,168799153248618,0.66822815,-9.470703,4.040924,0.16014099,1.2387543,0.12063599
1615,A,168799203602622,4.4358826,-7.6171417,-4.14682,1.1354828,0.048309326,0.42941284
1615,A,168799253956626,4.210785,-9.149826,-1.7512817,1.2375336,1.0857239,-5.187988E-4
1615,A,168799304310630,0.2658081,-8.502502,-0.43203735,0.48284912,1.328186,-0.0493927
1615,A,168799354664634,0.9092102,-8.753738,-0.91926575,-1.0103607,0.14898682,-0.32392883
1615,A,168799405018638,2.4449615,-10.305969,-0.9553833,-2.011032,-0.99427795,-1.1031952
1615,A,168799455372642,2.1463318,-11.868973,-0.82481384,-3.4278412,-0.78297424,-0.7184906
1615,A,168799505726646,2.951767,-12.845551,-1.8519897,-2.178131,-1.0423584,0.005630493
1615,A,168799556080650,7.1307983,-12.428345,-1.2792053,-1.8594818,-1.8689575,1.2296753
1615,A,168799606434653,-0.18351746,-11.838928,-3.6590424,-2.282196,0.3674469,0.55830383
1615,A,168799656788657,-0.53302,-12.971283,1.2062225,-0.92059326,-2.8074799,-0.7276306
1615,A,168799707142661,-2.4958801,-15.071625,2.395279,-0.3930359,-1.4254456,-0.40344238
1615,A,168799757496665,-1.0122375,-11.069672,-0.37294006,1.367157,-0.46696472,-0.19361877
1615,A,168799807850669,2.7622223,-7.7460938,3.1428528,1.3145447,0.22445679,-0.21002197
1615,A,168799858204673,2.7046509,-4.452484,0.02760315,-1.7563477,-0.7955475,-0.18130493
1615,A,168799908558677,-3.023758,-1.8429871,1.8505249,-0.35131836,-1.1429138,-0.09541321
1615,A,168799958912681,-1.4268341,-3.7985382,-0.6955414,1.0798492,0.6387634,0.1537323
1615,A,168800009266685,1.0615845,-11.559265,-9.737274,0.4282074,1.732727,-0.272583
1615,A,168800059620689,2.8057709,-11.752533,-6.4843597,1.2249908,0.9406128,0.47250366
1615,A,168800109974693,-1.3258514,-2.6331024,-1.1668243,1.0171967,1.529068,0.93167114
1615,A,168800160328696,2.344284,-10.504669,-5.7114716,1.6025085,-0.079589844,0.2629242
1615,A,168800210682700,-6.002533,-10.488419,-6.1348724,1.8015594,0.8018799,0.13760376
1615,A,168800261036704,-5.576584,-8.287125,0.58503723,0.9338074,1.8488617,-0.042099
1615,A,168800311390708,0.47239685,-12.669952,2.0358276,0.5301819,1.3002014,-0.3744812
1615,A,168800361744712,1.1263733,-9.0251465,2.5596466,0.7971649,0.7575226,-0.28857422
1615,A,168800412098716,2.7130127,-7.90744,-1.5387115,1.3468475,0.7531738,-0.017700195
1615,A,168800462452720,2.438736,-8.549011,-2.8342133,0.69285583,0.8221588,0.30833435
1615,A,168800512806724,1.2932587,-8.994675,-1.2483215,0.46453857,0.7366333,0.4195404
1615,A,168800563160728,0.60635376,-9.054504,0.18051147,-0.18284607,0.21913147,-0.14535522
1615,A,168800613514732,0.66038513,-10.550812,-1.9764557,-1.9132843,-0.8347473,-0.6964874
1615,A,168800663868736,2.0025177,-11.721649,-0.4100952,-3.258728,-0.6165314,-0.9527588
1615,A,168800714222739,4.9332123,-12.123154,-3.019516,-2.1434937,-1.8205109,-0.687912
1615,A,168800764576743,5.8945465,-12.138123,-5.0402374,-1.8496246,-1.1566925,0.4877777
1615,A,168800814930747,1.6138763,-12.235474,-4.344986,-1.6520996,-0.3315277,0.43295288
1615,A,168800865284751,0.19493103,-13.921967,0.6836395,-1.3108063,-1.8155975,-0.5917206
1615,A,168800915638755,-2.4657745,-14.190964,0.118255615,-0.6422119,-1.7560425,-0.5174713
1615,A,168800965992759,-1.9216766,-11.045364,-0.8346863,0.908432,-0.60621643,-0.25143433
1615,A,168801016346763,3.1883087,-7.8108826,0.9023895,1.7037506,0.9570465,0.25422668
1615,A,168801066700767,1.7375793,-5.174103,0.8717499,-0.98046875,-0.57447815,-0.15408325
1615,A,168801117054771,-2.715744,-2.971527,2.0776672,-0.53674316,-1.2020569,-0.090408325
1615,A,168801167408775,-2.111908,-2.268509,2.1135101,1.04393,1.4580383,0.044555664
1615,A,168801217762778,-1.9938965,-13.786758,-12.692017,0.7456665,1.499054,-0.45500183
1615,A,168801268116782,-3.034546,-10.184494,-8.809937,1.0924988,2.884079,0.7647095
1615,A,168801318470786,-3.720871,-6.0562286,0.23350525,0.75564575,1.2502136,0.5251312
1615,A,168801368824790,-0.24156189,-14.057144,1.9906616,2.6069794,6.866455E-4,0.5543518
1615,A,168801419178794,-5.2539215,-5.3368835,1.8708496,1.1271515,1.0140381,0.28042603
1615,A,168801469532798,-1.3453522,-8.15654,2.2712402,1.0229797,0.659256,0.18864441
1615,A,168801519886802,1.1949768,-13.605698,1.913269,0.88764954,1.6976318,-0.1616211
1615,A,168801570240806,2.9861603,-10.6623535,-2.9436493,0.7289734,1.5095978,-0.4979248
1615,A,168801620594810,2.3995361,-8.004654,-2.89151,2.1994476,0.17713928,-0.31321716
1615,A,168801670948814,2.6551971,-7.6795807,-0.23522949,-0.13545227,0.7368927,0.73143005
1615,A,168801721302818,2.4329834,-6.8476715,-1.138443,0.22924805,0.28070068,0.09207153
1615,A,168801771656821,0.18521118,-10.225845,1.2175293,-1.3553772,-0.7717285,-0.3840332
1615,A,168801822010825,-0.42041016,-10.517822,-1.5666962,-2.6851654,-1.6352386,-1.0444946
1615,A,168801872364829,3.808136,-12.632645,-1.8861389,-3.9177704,0.2546692,-1.2919006
1615,A,168801922718833,6.609787,-12.7191925,-4.23822,-1.8989563,-1.5036926,0.10562134
1615,A,168801973072837,4.795227,-14.535431,-3.768814,-2.6466675,-1.76857,0.78956604
1615,A,168802023426841,-1.7454529,-13.134384,-5.965332,-2.3746948,-2.4245453,-0.70448303
1615,A,168802073780845,-0.4082489,-16.716537,2.526291,-2.0451813,-3.27919,-0.5934601
1615,A,168802124134849,-5.9045258,-14.311691,-1.9839783,-0.9858093,-0.49621582,0.1325531
1615,A,168802174488853,1.9125366,-10.733734,-0.3827362,0.3296051,1.7956085,-0.036605835
1615,A,168802224842857,2.348755,-6.2123566,0.40213013,1.1182404,-0.4360962,0.015090942
1615,A,168802275196861,-3.7359924,-4.483917,2.2197876,0.35682678,-1.2432709,-0.154068
1615,A,168802325550864,-2.7032928,-1.8432312,0.26898193,1.8700409,2.50737,-0.12675476
1615,A,168802375904868,-0.9068146,-2.7851868,-6.0089874,0.6133728,0.6309204,0.016799927
1615,A,168802426258872,3.5063477,-12.189514,-14.579788,1.7355042,1.3175201,0.11817932
1615,A,168802476612876,-1.8476257,-5.906189,-3.332367,1.8120728,1.7173462,0.9123688
1615,A,168802526966880,-1.6119537,-9.95108,-0.57302856,2.16893,0.6800537,0.20777893
1615,A,168802577320884,0.32418823,-8.53627,1.1380615,1.2588654,1.7413635,-0.10096741
1615,A,168802627674888,-5.5594482,-8.574005,-3.2938995,0.8980408,0.7335968,0.52885437
1615,A,168802678028892,-0.5574341,-11.3793335,-0.3603058,1.035553,0.5411835,0.19085693
1615,A,168802728382896,1.4952087,-11.909851,-1.8808746,0.69485474,1.032074,-0.29273987
1615,A,168802778736900,1.9483185,-9.526413,-2.1248627,0.49945068,0.91937256,-0.09373474
1615,A,168802829090903,1.2055054,-7.862274,-1.2559052,1.4129333,1.0869904,-0.016098022
1615,A,168802879444907,3.1105042,-8.219666,-1.4915619,1.5687408,1.8807526,-0.23835754
1615,A,168802929798911,1.6404877,-8.266235,-1.0302277,-0.024276733,1.3046112,0.046340942
1615,A,168802980152915,1.451294,-8.935333,-0.24653625,-0.88331604,-0.0945282,-0.12817383
1615,A,168803030506919,2.0080872,-9.752258,-0.6888428,-2.0613403,-1.3921204,-0.62882996
1615,A,168803080860923,1.1175537,-12.015442,-3.8560486,-3.2665558,-1.1258545,-0.19833374
1615,A,168803131214927,2.9032135,-12.63446,-5.6829224,-2.9129791,-0.85380554,-0.06138611
1615,A,168803181568931,7.6877747,-12.325333,-1.6569824,-1.7557831,-1.0786285,0.5720978
1615,A,168803231922935,1.9241638,-12.113251,-3.4212952,-1.8993835,-1.4234619,0.41903687
1615,A,168803282276939,-0.63220215,-13.612473,0.47642517,-0.82473755,-3.0368195,-0.43974304
1615,A,168803332630943,0.26486206,-15.507782,2.000122,-0.3008423,-1.4870453,-0.34565735
1615,A,168803382984946,-1.7702026,-11.776291,-2.0985565,1.6414032,-0.3084259,-0.108306885
1615,A,168803433338950,2.0447693,-7.4048157,-0.67762756,1.0143738,0.079711914,-0.048217773
1615,A,168803483692954,2.0881348,-3.5925446,-0.20976257,-1.6119232,-1.3484955,-0.08720398
1615,A,168803534046958,-2.5710754,-1.6926117,3.0289307,-0.037597656,-0.78086853,-0.17576599
1615,A,168803584400962,-1.3714447,-2.4035034,1.9984894,0.31637573,0.7331238,-0.3460083
1615,A,168803634754966,4.6207275,-10.99292,-4.383957,0.14260864,0.3991394,-0.22476196
1615,A,168803685108970,2.5756989,-10.167206,-5.488983,1.2431335,0.57281494,1.0816193
1615,A,168803735462974,-1.4989471,-8.976059,-1.1358795,1.1330566,0.10827637,0.70854187
1615,A,168803785816978,0.55189514,-11.196045,-1.8714447,2.1047974,-0.44151306,-0.27819824
1615,A,168803836170982,-4.9730835,-4.8236084,3.287094,2.1050415,2.130951,-0.14480591
1615,A,168803886524986,-1.2636871,-12.865097,1.9545898,0.8305359,2.1547241,-0.13096619
1615,A,168803936878989,1.8017578,-13.173004,2.7515411,0.9351196,0.9238739,-0.23991394
1615,A,168803987232993,1.0386047,-7.810135,3.1619415,1.5021515,0.55311584,-0.12741089
1615,A,168804037586997,2.7531433,-7.4135895,-2.9339752,1.0935974,0.9927826,0.03918457
1615,A,168804087941001,2.2048798,-7.9593964,-3.1751556,0.108444214,1.443924,0.31617737
1615,A,168804138295005,0.6921387,-8.8582,-1.0914459,-0.4337921,0.41627502,0.2416687
1615,A,168804188649009,0.10572815,-10.334793,-0.80059814,-1.11763,-1.2221985,-0.5885315
1615,A,168804239003013,0.34355164,-11.006744,-4.370041,-2.8339996,-1.3270721,-0.81518555
1615,A,168804289357017,2.850998,-11.567963,-1.8419952,-2.6635895,-1.3468323,-0.9132538
1615,A,168804339711021,6.4621887,-12.428528,-4.066971,-1.7308807,-2.957016,0.3356018
1615,A,168804390065025,4.647888,-11.8467865,-4.036911,-1.4904785,-0.8794403,0.34169006
1615,A,168804440419028,1.7231903,-12.0000305,1.1381989,-1.8952026,-2.5679626,-0.45783997
1615,A,168804490773032,-0.86320496,-15.854034,2.4795837,-1.220047,-2.7708435,-0.7359314
1615,A,168804541127036,-1.2991028,-13.088058,-0.92811584,0.43978882,-1.563736,-0.73594666
1615,A,168804591481040,3.7915955,-10.020035,-0.052230835,2.932373,1.6902008,-0.6025543
1615,A,168804641835044,2.8412323,-5.435623,3.6663666,-1.0803528,-1.2217102,-0.1006012
1615,A,168804692189048,-2.5010376,-2.8554993,3.7205353,-1.0614777,-1.3497467,-0.2696228
1615,A,168804742543052,-2.1456146,-1.5744934,3.537262,1.8786011,1.3623505,-0.036987305
1615,A,168804792897056,-3.8456116,-7.6565704,-5.7552795,-0.31654358,-0.15458679,-1.351181
1615,A,168804843251060,2.9732513,-13.685135,-6.2885895,0.70414734,2.9112854,0.6516876
1615,A,168804893605064,-0.64527893,-1.7815704,-1.7355804,1.074585,2.362442,1.2926025
1615,A,168804943959068,3.1013489,-16.181015,3.5123596,1.8798828,-2.0135345,0.16033936
1615,A,168804994313071,-7.6638947,-1.7571716,0.61372375,2.4825592,3.5888977,0.33840942
1615,A,168805044667075,-6.807007,-9.548065,5.2633667,1.540863,5.201294,0.66474915
1615,A,168805095021079,1.9115295,-15.76889,-1.3743439,2.1552277,0.54512024,0.14393616
1615,A,168805145375083,2.0884094,-8.127975,3.7397156,0.5449219,0.70973206,0.014312744
1615,A,168805195729087,3.3621368,-8.874741,3.8594055,0.3996582,0.9217377,-0.05381775
1615,A,168805246083091,4.886368,-8.894485,-1.8232422,-0.9010925,0.10494995,0.23065186
1615,A,168805296437095,2.0384674,-9.048325,-5.5974884,0.79826355,1.064743,-0.074661255
1615,A,168805346791099,1.042572,-9.441818,-0.93356323,-1.2060852,-0.45783997,-0.916275
1615,A,168805397145103,0.5946808,-10.384201,-2.9377747,-2.7444153,-1.5526276,-1.1249695
1615,A,168805447499107,2.5037994,-10.918381,1.4228058,-3.118927,-1.658081,-1.347229
1615,A,168805497853111,7.167679,-11.232697,-2.2903442,-1.9780273,-1.9756317,-0.010284424
1615,A,168805548207114,1.8639221,-15.435822,-4.7553864,-1.8075256,0.66355896,0.15766907
1615,A,168805598561118,-2.5600128,-12.229401,-3.191864,-1.5071106,-4.0618134,-0.9917755
1615,A,168805648915122,-1.4423828,-18.11885,4.8081512,-0.90844727,-2.1361694,-0.8392029
1615,A,168805699269126,-3.1304016,-12.835266,-1.8187714,0.68170166,-1.2947845,-0.6541443
1615,A,168805749623130,4.1364136,-8.312897,3.1902008,2.2647095,-0.01663208,-0.29586792
1615,A,168805799977134,1.3075256,-4.8361206,1.3820648,-0.5331116,0.3529358,0.9675293
1615,A,168805850331138,-2.3548126,-3.097763,2.9769592,-1.082428,-0.97532654,-0.5453644
1615,A,168805900685142,-1.7082672,-1.7866364,3.6311188,1.5328217,0.7094116,0.26068115
1615,A,168805951039146,1.373764,-4.9284515,-1.510025,-0.29161072,1.6705475,-0.0069274902
1615,A,168806001393150,13.368927,-16.76828,-17.66774,0.9627075,0.8450928,-0.058013916
1615,A,168806051747153,-6.3253784,-0.73864746,-2.5105133,1.1685333,2.2458038,1.7354126
1615,A,168806102101157,1.78479,-9.491653,0.8452759,2.6065826,-1.0476837,-0.09248352
1615,A,168806152455161,0.8524475,-8.519745,0.15486145,2.9034424,2.436493,0.095199585
1615,A,168806202809165,-6.777832,-6.8382263,2.9792938,0.32182312,2.562851,-0.44078064
1615,A,168806253163169,1.2289734,-16.557938,1.5443115,0.047225952,1.5200653,0.21607971
1615,A,168806303517173,2.4379578,-7.4646606,2.697876,1.2271729,1.050003,0.2818756
1615,A,168806353871177,2.1311035,-8.894653,-0.76171875,1.6977539,0.13728333,0.018310547
1615,A,168806404225181,0.8240204,-8.048584,-2.0244446,0.36805725,1.1039734,0.043685913
1615,A,168806454579185,2.2197266,-9.149307,0.45899963,-0.4902649,0.8608551,-0.11268616
1615,A,168806504933189,3.257431,-9.516037,0.3701172,-1.3074188,0.19291687,-0.33969116
1615,A,168806555287193,1.5639191,-10.339981,-2.221939,-3.1188202,-0.8499603,-0.7596741
1615,A,168806605641196,1.5666046,-11.378769,-2.8534698,-3.0062714,-0.48162842,-0.8214264
1615,A,168806655995200,2.792801,-11.950302,-2.5480347,-1.921463,-1.1405334,0.21237183
1615,A,168806706349204,4.463455,-12.022446,-7.5524597,-1.5186615,-1.5580902,0.53964233
1615,A,168806756703208,3.5296783,-12.357849,-2.0444336,-1.0180206,-1.9536896,-0.5577698
1615,A,168806807057212,-0.97483826,-15.11113,-0.06643677,-0.60084534,-2.520401,-0.9299774
1615,A,168806857411216,-2.046585,-14.3016205,-0.7821045,0.69343567,-1.5639496,-0.46176147
1615,A,168806907765220,1.9795532,-9.162323,1.8897095,2.8307495,0.39143372,-0.11782837
1615,A,168806958119224,2.5403595,-6.107895,2.674652,1.2016602,0.3050995,-0.31845093
1615,A,168807008473228,-1.4882813,-3.2304382,2.852295,-0.98979187,-1.448288,-0.47503662
1615,A,168807058827232,-3.274704,-1.7202301,3.1495972,0.45335388,1.0952606,0.09257507
1615,A,168807109181236,-3.3304596,-7.2862854,-6.219574,0.33876038,0.70648193,-0.6508179
1615,A,168807159535239,0.12896729,-11.9300995,-11.847626,0.3186798,1.2558441,0.37434387
1615,A,168807209889243,0.1729126,-5.9552917,-2.5368805,1.3063354,-0.022125244,0.83447266
1615,A,168807260243247,1.280899,-11.623505,-3.575943,2.1306152,-2.4947357,0.01210022
1615,A,168807310597251,-2.775116,-8.743561,-2.1839142,2.4550781,1.3461761,-0.31285095
1615,A,168807360951255,-5.840805,-7.73645,4.5937195,1.0272369,3.2524567,-0.5917511
1615,A,168807411305259,-1.1821594,-11.86528,1.2108154,0.6599579,1.3326111,-0.30801392
1615,A,168807461659263,0.46572876,-9.436829,4.11055,1.4330292,0.05722046,0.09761047
1615,A,168807512013267,2.0925446,-8.169861,0.6637268,1.1356049,1.0181122,0.1149292
1615,A,168807562367271,1.9490204,-7.9310913,-3.965149,-0.23765564,0.8400116,0.43623352
1615,A,168807612721275,1.0543518,-8.944443,-0.29414368,-0.42288208,0.09680176,-0.117752075
1615,A,168807663075278,1.056015,-10.364548,-0.20762634,-1.9120178,-1.0756531,-0.8959656
1615,A,168807713429282,0.50219727,-10.394821,-5.118393,-3.769455,-0.12246704,-0.97380066
1615,A,168807763783286,4.2012634,-13.185608,-0.6220398,-2.2483063,-0.7001343,-0.41131592
1615,A,168807814137290,7.283844,-15.453735,-5.9750824,-2.1335754,-2.0373383,1.0218353
1615,A,168807864491294,-1.4109802,-12.735031,-6.97554,-1.8049774,-0.9647522,0.110198975
1615,A,168807914845298,-0.87138367,-12.172043,1.8646698,-1.6260376,-1.8969421,-0.6798248
1615,A,168807965199302,-4.527527,-16.03543,-0.37026978,-0.37451172,-1.6731415,-0.4811554
1615,A,168808015553306,0.7651062,-10.877716,0.28422546,1.5596161,-1.0930023,-0.51693726
1615,A,168808065907310,3.3014832,-8.080795,0.52485657,3.4221344,2.177597,-0.18571472
1615,A,168808116261314,0.17533875,-3.671692,2.5417633,-1.90242,-1.2095184,-0.56851196
1615,A,168808166615318,-2.1938782,-0.88435364,2.756958,0.6420593,-1.1405182,-0.3394165
1615,A,168808216969321,-0.9276581,0.01763916,2.8912964,-0.7843323,0.89593506,-0.051651
1615,A,168808267314353,-11.985962,-16.303162,-16.167313,1.350296,-1.9930267,-1.4073029
1615,A,168808317668357,-4.8320313,-6.3237,-5.3814697,2.3343506,5.352478,2.1181946
1615,A,168808368022361,-0.5652008,-7.620682,-1.9304047,1.5148773,-0.9954529,-0.17034912
1615,A,168808418376365,2.0971985,-5.4675903,9.016678,2.7361298,-1.1993866,0.83551025
1615,A,168808468730369,-10.784973,-3.0513153,5.3959045,1.1355591,3.6499176,-0.3474884
1615,A,168808519084373,-1.8948212,-17.363403,6.8981476,0.39872742,3.5529785,-0.05281067
1615,A,168808569438377,-1.4313202,-9.747253,-0.7303009,1.771225,0.19529724,-0.018005371
1615,A,168808619792381,2.1580048,-9.011551,2.2726898,1.3040619,1.3127594,-0.14971924
1615,A,168808670146385,1.742569,-8.05983,0.06504822,-0.30480957,0.80418396,0.32176208
1615,A,168808720500389,3.1152802,-8.70665,-3.5673523,0.2197876,0.02772522,-0.25254822
1615,A,168808770854392,1.645401,-9.764206,-2.2090454,-1.3405151,-0.040618896,-0.33262634
1615,A,168808821208396,0.8235626,-8.895752,-5.060211,-2.5661774,-1.7512207,-0.9291229
1615,A,168808871562400,2.8062286,-10.6315,-0.5182648,-3.5914154,-0.61473083,-0.8906708
1615,A,168808921916404,3.9317932,-13.879013,0.91249084,-1.5712891,-0.9460449,-0.053268433
1615,A,168808972270408,2.583603,-13.485931,-6.6350555,-2.1931458,0.19714355,0.71939087
1615,A,168809022624412,1.1247711,-13.353485,-5.4427032,-0.86042786,-2.215454,-0.5254059
1615,A,168809072978416,0.20542908,-14.550095,3.7149048,-1.3903503,-2.2273254,-0.6677551
1615,A,168809123332420,-6.2487946,-16.483551,-5.2255554,0.38002014,-1.3197937,-0.5506134
1615,A,168809173686424,2.9053802,-8.832855,0.8052063,2.1496582,-0.47639465,-0.23269653
1615,A,168809224040428,4.4453278,-6.4113617,0.06768799,1.8361359,1.103653,0.14074707
1615,A,168809274394431,-1.9946747,-1.346283,4.15271,-1.9288025,-1.321518,-0.2897339
1615,A,168809324748435,-2.7754822,-1.1340485,3.4904633,0.7921295,-0.38407898,0.03211975
1615,A,168809375102439,-3.1497955,-5.338516,-1.2854309,1.4530945,0.8044739,-0.20542908
1615,A,168809425456443,-10.3936,-15.905319,-15.768234,0.24536133,1.391571,-0.75593567
1615,A,168809475810447,-2.3518524,-2.6145325,-0.9038391,1.3552246,1.701477,0.8626404
1615,A,168809526164451,0.23832703,-5.3374786,-0.8025055,1.071106,0.9499359,0.69493103
1615,A,168809576518455,1.5067444,-15.065994,-1.6175079,2.7359772,-0.25810242,0.50549316
1615,A,168809626872459,-8.042175,-3.4860382,3.475525,2.4123993,1.3448639,7.6293945E-5
1615,A,168809677226463,-2.863083,-12.098328,3.9117126,0.73857117,2.1163177,-0.11430359
1615,A,168809727580467,1.4924164,-14.469772,-0.4738922,0.53564453,0.49188232,-0.17582703
1615,A,168809777934471,1.7519989,-8.816971,2.5874634,1.7559662,0.38476563,-0.1068573
1615,A,168809828288474,1.8883972,-7.610672,-1.4640808,0.8481293,0.4075775,0.006668091
1615,A,168809878642478,2.0792084,-8.431519,-3.8327942,-0.5082245,1.0973969,0.21949768
1615,A,168809928996482,1.1379852,-8.789169,-0.3983612,-0.3426361,0.2214508,-0.06575012
1615,A,168809979350486,0.5862427,-10.8029175,-2.0396118,-1.5394287,-1.2188568,-0.8088074
1615,A,168810029704490,0.4220276,-11.011063,-3.0886536,-3.026947,-1.9852142,-1.0760498
1615,A,168810080058494,2.610138,-11.811859,-1.802475,-2.6130066,-2.414383,-0.42520142
1615,A,168810130412498,4.7246246,-13.758865,-2.5861664,-2.0312347,-0.11982727,0.53375244
1615,A,168810180766502,0.530365,-14.397156,-7.025467,-2.1239777,-0.5099335,0.3718872
1615,A,168810231120506,-2.4465485,-15.585968,-0.6586609,-1.465622,-2.5962067,-0.2785492
1615,A,168810281474510,-4.1806335,-16.304047,1.939148,-0.505661,-1.2779388,-0.29515076
1615,A,168810331828514,-3.973175,-11.87616,-0.46951294,1.5003662,-0.548584,-0.28393555
1615,A,168810382182517,2.3598328,-7.5902557,1.6501007,0.54319763,-0.42962646,0.6325836
1615,A,168810432536521,0.9032593,-3.7963867,1.2628174,-1.5099792,-0.7177124,0.28330994
1615,A,168810482890525,-2.0398102,-1.2929993,2.4821167,0.61361694,-0.52890015,-0.4026947
1615,A,168810533244529,-1.0105133,-1.1356354,2.372757,0.5082092,1.5092316,-0.0010528564
1615,A,168810583598533,6.1573944,-11.403534,-10.301727,0.6244812,0.74134827,0.07980347
1615,A,168810633952537,0.2630005,-7.6571198,-9.0672,0.5910034,1.7736664,0.7357025
1615,A,168810684306541,-1.6198273,-6.5537415,-0.5156555,1.0113983,1.5863342,0.28070068
1615,A,168810734660545,-0.58872986,-11.927658,-2.5155487,2.8011322,0.64901733,0.24269104
1615,A,168810785014549,-5.2464294,-6.2418823,0.3058014,2.0757294,1.4179535,-0.04510498
1615,A,168810835368553,-2.3087616,-13.206985,1.3231506,0.6733551,1.6101379,-0.21217346
1615,A,168810885722556,1.5726624,-11.240952,4.5500336,0.8435364,0.30160522,-0.025375366
1615,A,168810936076560,2.6852417,-7.2209015,3.8813477,1.2239838,-0.010650635,0.3264923
1615,A,168810986430564,2.0737305,-8.389236,-4.7500916,0.72605896,0.2692871,0.3691101
1615,A,168811036784568,-0.020828247,-9.72934,-0.23651123,0.7852783,0.5586853,0.2555542
1615,A,168811087138572,-0.68434143,-9.67157,-0.053985596,-1.1000824,0.2492218,-0.18571472
1615,A,168811137492576,0.284729,-10.098297,-1.0198059,-2.5199432,-1.4273529,-0.71754456
1615,A,168811187846580,0.95196533,-10.8906555,-2.6985626,-3.986023,-0.77441406,-1.318512
1615,A,168811238200584,3.5117493,-12.420074,-0.10177612,-1.6563263,-1.4081116,-0.21269226
1615,A,168811288554588,3.789978,-14.598389,-2.205902,-2.2276611,-1.6570587,0.96710205
1615,A,168811338908592,-0.55500793,-13.027008,-3.740097,-1.9029083,-0.6826172,-0.37545776
1615,A,168811389262596,-0.13500977,-16.370163,3.43219,-1.6080627,-2.2482605,-0.7903137
1615,A,168811439616599,-6.0388336,-14.32283,-4.6896515,-0.16461182,-1.5753479,-0.5130615
1615,A,168811489970603,1.5578613,-9.456711,2.4376373,1.9858551,-0.506546,-0.587677
1615,A,168811540324607,1.6985016,-5.80661,1.1167145,1.7172241,1.2326355,0.9810791
1615,A,168811590678611,-2.9762115,-3.9321442,2.3762512,-2.1888885,-0.83677673,-0.39982605
1615,A,168811641032615,-2.1325226,-1.650238,3.3130188,1.4848328,-0.79937744,-0.30348206
1615,A,168811691386619,-0.14491272,-1.2671814,2.4453888,0.44152832,4.8098755,0.73373413
1615,A,168811741740623,1.2331085,-17.622314,-17.60498,0.7300415,-0.123413086,-0.78219604
1615,A,168811792094627,-6.393158,-2.4657898,-2.4069672,0.98812866,3.489029,1.0633698
1615,A,168811842448631,0.23249817,-2.6377563,2.1611023,0.06654358,-0.5352936,0.61405945
1615,A,168811892802635,-0.8128662,-18.823624,-9.202805,3.1475372,-0.7046051,0.4287567
1615,A,168811943156639,-7.5507355,-3.716629,2.1769562,2.4064484,4.179901,0.51911926
1615,A,168811993510642,-2.8736877,-12.331818,0.0234375,1.7901154,1.5548706,-0.42453003
1615,A,168812043864646,-0.6318817,-10.467499,-0.19569397,1.2170105,0.38970947,-0.41989136
1615,A,168812094218650,2.2593231,-8.562958,-0.10983276,0.5863037,0.3518982,0.40673828
1615,A,168812144572654,5.9913177,-8.329636,-0.58454895,0.26805115,0.0675354,0.14634705
1615,A,168812194926658,1.786377,-8.085251,-4.6759033,-0.1309967,0.5386658,0.28479004
1615,A,168812245280662,-2.0237885,-10.249863,-1.4732971,-0.48121643,0.28884888,-0.20002747
1615,A,168812295634666,0.68489075,-9.992752,-1.7356567,-2.4078522,-1.6160278,-0.80511475
1615,A,168812345988670,0.18708801,-10.241074,-1.1682892,-3.0486755,-1.9653778,-0.886673
1615,A,168812396342674,3.064148,-13.832245,-0.90489197,-1.7179871,-1.0747833,-0.34191895
1615,A,168812446696678,4.7849884,-13.502045,-8.49855,-1.9868622,-0.4664917,0.66882324
1615,A,168812497050681,1.2161713,-12.24823,-0.81814575,-1.7870636,-0.88871765,-0.15893555
1615,A,168812547404685,-0.43371582,-13.528046,4.210083,-1.8753357,-3.3914795,-0.5655365
1615,A,168812597758689,-4.5982513,-14.839523,0.3156891,-0.16955566,-1.5021057,-0.5441284
1615,A,168812648112693,0.1335907,-9.513184,1.6332092,1.8449249,-0.3728485,-0.45941162
1615,A,168812698466697,1.3994141,-7.464676,1.6842499,1.8686523,0.54019165,-0.3647461
1615,A,168812748820701,-0.43579102,-4.1984406,4.1413116,-2.017212,-1.9271393,-0.10261536
1615,A,168812799174705,-3.1520996,-2.0206604,2.9187164,-0.08906555,-0.73895264,-0.053222656
1615,A,168812849528709,-2.211975,-3.8238678,-1.764267,0.5102844,1.1421967,-0.21122742
1615,A,168812899882713,-4.5707703,-12.035248,-12.274658,0.5515747,2.3757935,0.14047241
1615,A,168812950236717,-0.7825775,-8.521103,-3.1674805,1.38768,2.6540985,1.1542969
1615,A,168813000590721,-0.08018494,-6.1546783,-0.20150757,0.9024658,0.9304199,0.18171692
1615,A,168813050944724,-1.8095245,-14.084473,-4.445587,1.9874573,0.2949829,0.2500763
1615,A,168813101298728,-6.7086945,-5.932495,-0.032577515,2.506485,1.076416,0.24368286
1615,A,168813151652732,-0.34143066,-12.978683,2.7371979,1.2804565,2.10141,-0.19166565
1615,A,168813202006736,-0.25445557,-11.772858,1.1871948,0.91342163,0.9945526,-0.3496399
1615,A,168813252360740,1.403717,-8.445175,3.1445313,1.6756134,0.3779297,-0.1322937
1615,A,168813302714744,2.4607239,-7.7527924,-1.9091644,0.6768036,0.69776917,0.3618164
1615,A,168813353068748,1.9092255,-8.828506,-2.9582672,0.03303528,0.76971436,0.43751526
1615,A,168813403422752,-0.12472534,-9.385834,-0.56848145,-0.36123657,-0.38705444,-0.2624817
1615,A,168813453776756,-0.4984131,-11.113754,-2.054947,-2.1825104,-1.0792236,-0.89009094
1615,A,168813504130760,0.31411743,-11.986099,-2.6881866,-2.9681396,-1.3421478,-1.1665192
1615,A,168813554484764,3.311554,-12.325333,-1.9422913,-2.1670074,-1.6526489,-0.74339294
1615,A,168813604838767,4.4262543,-13.955933,-1.7240753,-1.9264221,0.3518982,0.17633057
1615,A,168813655192771,-0.8560486,-13.896393,-3.8796387,-1.9098358,-1.0916138,0.0013427734
1615,A,168813705546775,-3.349228,-13.820145,-0.48857117,-1.5886993,-2.6523895,-0.5870819
1615,A,168813755900779,-4.52063,-14.804153,0.058288574,-0.7355194,-1.5289612,-0.4431305
1615,A,168813806254783,-3.1283875,-11.8107605,-1.3638763,1.1050262,-0.7350006,-0.29475403
1615,A,168813856608787,1.434082,-8.138306,0.53009033,2.9403076,0.43725586,-0.23951721
1615,A,168813906962791,-0.24850464,-4.699951,1.1562805,-0.35150146,-0.1503601,-0.3630371
1615,A,168813957316795,-2.1948547,-2.1841583,2.5409546,-0.5910034,-1.2523956,-0.3400116
1615,A,168814007670799,-1.4447021,-1.5502777,1.9956665,0.09458923,1.3764648,0.23712158
1615,A,168814058024803,-7.027527,-12.69928,-11.890915,0.5229492,0.98017883,-0.1719513
1615,A,168814108378806,-5.4625244,-11.192429,-9.974548,1.4600372,3.2541199,1.0250397
1615,A,168814158732810,-2.8098145,-4.010025,0.71739197,1.5911255,1.0874786,0.4111023
1615,A,168814209086814,-1.1737213,-11.428284,1.0446167,2.456192,-0.19403076,0.18708801
1615,A,168814259440818,-6.7109528,-7.7592316,2.9438782,1.9522858,2.214569,0.43240356
1615,A,168814309794822,-4.6438446,-10.417664,3.3072662,0.6937561,1.2854462,-0.025787354
1615,A,168814360148826,-1.0571136,-11.953995,3.1343384,0.9676666,1.218338,-0.24253845
1615,A,168814410502830,-0.23988342,-9.609497,3.7367706,1.7614746,0.20852661,-0.19500732
1615,A,168814460856834,3.877655,-7.805237,-4.2547607,0.044540405,0.9907074,0.14553833
1615,A,168814511210838,1.9911041,-8.413422,-3.1986694,-0.73028564,1.31781,0.3913269
1615,A,168814561564842,0.7238922,-8.178131,-0.5868683,-0.0087890625,0.1650238,-0.10443115
1615,A,168814611918846,0.09616089,-10.170197,-0.7067566,-1.7628479,-1.3363647,-0.56318665
1615,A,168814662272849,0.18565369,-10.406036,-4.477463,-3.372116,-1.2880859,-0.8447113
1615,A,168814712626853,2.6846619,-13.089584,-0.39172363,-1.7002869,-0.8317871,-0.73101807
1615,A,168814762980857,3.827423,-13.142136,-8.354309,-2.196579,-0.72506714,0.82354736
1615,A,168814813334861,0.99957275,-11.899368,-7.228714,-1.400589,-1.7362213,-0.23713684
1615,A,168814863688865,-0.19436646,-12.4795685,2.2580566,-1.8833313,-2.9290466,-0.84407043
1615,A,168814914042869,-6.1157684,-15.804428,-1.4963074,-0.47879028,-1.5564728,-0.66067505
1615,A,168814964396873,1.1100464,-10.825821,1.269928,1.5113678,-0.9581299,-0.53312683
1615,A,168815014750877,1.882843,-8.368729,1.2544403,3.819641,1.7611542,-0.31193542
1615,A,168815065104881,-1.7827759,-4.169113,4.517868,-2.8004913,-2.0014496,-0.22937012
1615,A,168815115458885,-3.5709076,-1.7975311,3.614853,0.26991272,-1.4603271,-0.15118408
1615,A,168815165812889,-1.1968536,-1.2612,3.0407104,1.558548,3.394104,0.27243042
1615,A,168815216166892,-7.665283,-15.402847,-19.374512,-0.013244629,-1.4609985,-1.3053589
1615,A,168815266520896,-0.5245209,-7.2097015,-2.7202148,1.1819458,4.359497,1.3006287
1615,A,168815316874900,0.7713318,0.6272583,1.6905212,0.5875397,0.63526917,0.5496521
1615,A,168815367228904,-0.16792297,-18.853485,-4.1194305,2.144577,-0.9451599,0.6629486
1615,A,168815417582908,-12.598068,-1.0995026,6.650894,2.4866028,0.57170105,0.44032288
1615,A,168815467936912,-2.2950745,-12.937485,4.2740784,1.6009216,3.0044098,-0.34832764
1615,A,168815518290916,-0.9078369,-12.99704,-0.60224915,1.9942627,0.70095825,-0.50135803
1615,A,168815568644920,1.1998749,-7.9842987,2.873825,1.3062439,0.17100525,0.16064453
1615,A,168815618998924,3.28302,-7.0455627,1.8480682,0.45443726,0.5554199,0.19796753
1615,A,168815669352928,2.182541,-9.2083435,-3.1523743,-0.4395752,1.3469849,0.65159607
1615,A,168815719706931,-0.7529602,-9.615173,-2.2346802,0.5326843,-0.017730713,0.099487305
1615,A,168815770060935,-0.8453827,-10.198563,-1.9966431,-1.8491364,-1.0491638,-0.594162
1615,A,168815820414939,-0.8414459,-11.53508,-2.980957,-2.8443756,-1.6171265,-1.0197601
1615,A,168815870768943,3.0073395,-11.939987,-0.68756104,-2.93779,-1.7308655,-0.80630493
1615,A,168815921122947,5.624054,-12.685944,-7.104065,-1.7575836,-1.2507782,0.15196228
1615,A,168815971476951,1.6205139,-14.168381,-2.4123993,-2.0617218,0.9027252,-0.06149292
1615,A,168816021830955,-3.8166351,-13.390717,-1.5131683,-1.3457489,-3.4270477,-1.105484
1615,A,168816072184959,-3.3746796,-16.581024,3.7045898,-1.0255432,-2.4806519,-1.0787354
1615,A,168816122538963,-3.2192535,-11.632202,-1.1582794,0.7755127,-1.1726685,-0.5711212
1615,A,168816172892967,1.1679382,-8.117508,0.92404175,1.716156,-0.43174744,0.29992676
1615,A,168816223246971,1.3496704,-5.7039795,1.5059967,-0.5945282,-1.0430298,0.80223083
1615,A,168816273600974,-2.5876923,-2.8890686,2.601883,-0.9269867,-0.7057495,-0.50338745
1615,A,168816323954978,-2.4732513,-1.6650238,3.003601,1.3308716,0.87831116,0.12780762
1615,A,168816374308982,-0.18934631,-7.8120117,-5.552826,0.26506042,2.2868958,0.7163391
1615,A,168816424662986,1.5443268,-12.038254,-14.039703,0.8389435,1.6568909,0.6976471
1615,A,168816475016990,-1.0770721,-1.7724762,0.28475952,1.4017181,1.3553162,0.5570221
1615,A,168816525370994,-0.17478943,-11.5160675,-1.9530487,2.405426,-0.8674774,0.15322876
1615,A,168816575724998,-5.648407,-13.578705,-9.447968,2.6235504,1.9881287,0.04714966
1615,A,168816626079002,-3.0596924,-8.72908,2.8039856,1.333374,3.4539032,-0.14100647
1615,A,168816676433006,-0.5449829,-11.884842,0.56077576,1.1132355,1.2902069,0.013717651
1615,A,168816726787010,0.45628357,-8.044678,3.6526031,1.2145538,0.089035034,0.05090332
1615,A,168816777141014,2.0076447,-8.333969,0.15948486,0.3672943,0.37399292,0.101760864
1615,A,168816827495017,2.4941254,-9.096024,-3.8491516,0.08743286,0.107788086,0.088012695
1615,A,168816877849021,0.9575348,-9.869125,-2.588852,-0.8587494,0.23214722,-0.25868225
1615,A,168816928203025,0.106674194,-10.48497,-3.1942139,-2.4891968,-0.7136383,-0.8198242
1615,A,168816978557029,0.35289,-10.547668,-2.3321228,-3.345047,-1.3473816,-1.2393799
1615,A,168817028911033,1.4256287,-11.714264,-1.6246185,-2.5677032,-2.16716,-0.29689026
1615,A,168817079265037,2.5521393,-13.316956,-2.2670593,-2.1417236,-0.42892456,0.35346985
1615,A,168817129619041,-0.031692505,-13.260269,-2.503769,-2.1428986,-1.5137482,-0.25534058
1615,A,168817179973045,-2.5494995,-16.31549,1.1299591,-1.6039429,-2.4516296,-0.73524475
1615,A,168817230327049,-3.0580597,-15.5336,-1.3637238,-0.14093018,-1.7124939,-0.6851196
1615,A,168817280681053,0.6195984,-10.643005,0.40653992,2.1984406,-0.25112915,-0.5027008
1615,A,168817331035056,2.0690918,-6.5731506,2.8661194,0.34365845,0.028701782,0.9547272
1615,A,168817381389060,-1.9981537,-3.321518,2.614914,-1.7107391,-0.62086487,-0.10583496
1615,A,168817431743064,-2.842102,-1.3075256,3.091156,1.0285797,-0.6576233,-0.3350067
1615,A,168817482097068,-1.8150787,-1.8355713,2.7825012,-0.21496582,1.9993439,-7.6293945E-5
1615,A,168817532451072,9.601501,-14.02713,-12.73436,0.5670624,0.19789124,-0.16854858
1615,A,168817582805076,-2.4322205,-4.2226563,-6.175522,0.8321686,3.01445,0.9245453
1615,A,168817633159080,-1.59758,-7.9903107,2.1620178,1.5047607,0.1454773,0.374588
1615,A,168817683513084,1.1381836,-9.57753,0.22937012,3.5647278,-0.2531891,0.31063843
1615,A,168817733867088,-6.3585663,-5.2128906,4.089386,1.4218903,2.8356628,-0.16123962
1615,A,168817784221092,-3.6375275,-15.041794,0.7094116,0.7606201,1.8721313,0.10058594
1615,A,168817834575096,0.36816406,-10.385788,2.7272034,0.9286804,0.22944641,0.18145752
1615,A,168817884929099,2.2469788,-8.312897,0.9823761,1.1325836,-0.21891785,0.29400635
1615,A,168817935283103,1.4544525,-8.777176,-2.0579834,0.33976746,0.50164795,0.29667664
1615,A,168817985637107,-0.20405579,-8.933273,-0.51498413,0.03666687,-0.002319336,0.17631531
1615,A,168818035991111,-0.2073822,-10.158615,-1.5523834,-0.69947815,0.85305786,-0.258255
1615,A,168818086345115,0.29574585,-9.7677765,-2.1058197,-2.7437897,-1.5122528,-0.7869415
1615,A,168818136699119,0.6759033,-10.218323,-2.357483,-3.4120178,-0.8171997,-1.331543
1615,A,168818187053123,0.47599792,-12.789368,1.118988,-1.7096863,-1.9169769,-0.32530212
1615,A,168818237407127,4.5273438,-14.123016,-6.645111,-2.3534546,0.08282471,0.40899658
1615,A,168818287756730,0.45863342,-13.472626,-4.5212097,-1.9609222,-1.7830048,-0.52175903
1615,A,168818338110734,-0.92910767,-15.3511505,3.079422,-1.671341,-3.3292236,-1.036911
1615,A,168818388464738,-5.339966,-14.197754,-4.6611023,-0.061920166,-1.9150848,-0.6546936
1615,A,168818438818741,1.6739197,-9.171967,3.1150818,2.1935577,-0.46765137,-0.40893555
1615,A,168818489172745,0.090408325,-5.9024963,0.62083435,3.4977417,2.206833,0.46975708
1615,A,168818539526749,-0.47077942,-4.035248,4.485718,-1.9885101,-1.4946442,-0.57810974
1615,A,168818589880753,-2.9009552,-2.0973663,3.968872,0.5102844,-0.87553406,0.021652222
1615,A,168818640234757,-2.2044525,-1.7748413,3.1917572,0.47875977,3.232956,0.33979797
1615,A,168818690588761,-14.296127,-19.091934,-19.38095,0.31987,0.3076172,-0.93811035
1615,A,168818740942765,-1.7198486,-5.948883,-2.7566376,1.248764,3.0316467,1.1663971
1615,A,168818791296769,-0.52615356,-4.1408386,0.78474426,1.4047394,-0.5777893,0.2615204
1615,A,168818841650773,-1.0615845,-18.218048,-5.959442,2.4693146,-1.3072357,0.33003235
1615,A,168818892004777,-7.691208,-3.0226593,3.480896,2.40065,2.3085327,-0.19416809
1615,A,168818942358780,-4.8881073,-13.780762,3.071045,0.76060486,3.9145203,-0.41610718
1615,A,168818992712784,-0.14074707,-9.788818,0.04133606,1.0864563,0.921402,-0.080093384
1615,A,168819043066788,0.08181763,-9.098572,2.7153625,1.1406555,-0.07917786,0.18559265
1615,A,168819093420792,1.6083374,-8.343048,-1.2702179,0.66900635,0.4350891,0.19256592
1615,A,168819143774796,1.3641663,-9.009979,-3.2755737,-0.52215576,0.71972656,0.3899994
1615,A,168819194128800,-1.2910767,-9.695053,0.628479,-0.233078,-0.061157227,2.2888184E-4
1615,A,168819244482804,0.32757568,-9.811539,-1.7340698,-2.6573486,-0.7404175,-0.9762726
1615,A,168819294836808,-0.070632935,-10.849472,-4.4497986,-3.2484894,-0.8894806,-0.9862671
1615,A,168819345190812,2.579239,-12.235748,-0.89556885,-2.0249786,-1.5653992,0.08937073
1615,A,168819395544816,5.1296997,-11.875504,-7.9177704,-2.327942,-0.66856384,0.91264343
1615,A,168819445898820,1.2829285,-12.942749,-3.79216,-1.4944458,-2.1359406,-0.21220398
1615,A,168819496252823,-3.8847961,-14.436783,3.828476,-1.6082458,-3.3102264,-0.59202576
1615,A,168819546606827,-7.7966003,-16.773865,0.26454163,0.037597656,-1.8128052,-0.6452484
1615,A,168819596960831,2.113968,-9.468475,1.788208,2.4946594,0.07060242,-0.7266693
1615,A,168819647314835,2.369812,-7.045212,2.1565704,1.3507996,0.720932,-0.5309601
1615,A,168819697668839,-0.62609863,-2.7696838,4.4009857,-1.7100525,-1.9425964,-0.1852417
1615,A,168819748022843,-2.4701843,-0.42329407,3.7554169,0.4872589,0.39361572,0.019210815
1615,A,168819798376847,-4.262314,-6.3482056,-5.051544,0.32228088,1.7574615,-0.4958954
1615,A,168819848730851,-5.553879,-12.451355,-11.874329,0.70770264,2.6391754,0.079711914
1615,A,168819899084855,-0.14776611,-4.3529816,-0.4729309,1.333435,3.1773834,1.2033997
1615,A,168819949438859,-0.37149048,-8.8107605,-4.0428467,2.150772,0.212677,0.55929565
1615,A,168819999792863,-3.2388458,-9.064392,-5.710144,3.290985,0.9047699,0.5057373
1615,A,168820050146866,-6.852539,-4.2153473,1.9736023,1.9425201,2.2331085,0.008987427
1615,A,168820100500870,-2.0148773,-13.980621,2.6341095,0.9994507,1.499176,-0.26123047
1615,A,168820150854874,1.3321838,-11.345398,-0.3963318,1.3210602,0.63656616,-0.02331543
1615,A,168820201208878,3.712555,-8.344376,-1.7955322,1.1170349,-0.11895752,0.31550598
1615,A,168820251562882,2.1564636,-8.71019,-3.145401,-0.21476746,0.47470093,0.48309326
1615,A,168820301916886,-0.023208618,-8.939072,-1.0253601,0.3618164,0.40174866,0.009460449
1615,A,168820352270890,-0.467865,-9.5603485,-0.36437988,-0.59384155,-0.51187134,-0.5447235
1615,A,168820402624894,-0.32965088,-10.376358,-3.5901337,-2.6301117,-0.66067505,-0.7842865
1615,A,168820452978898,0.6260834,-12.147736,0.5379791,-3.0078735,-0.66308594,-0.94436646
1615,A,168820503332902,2.275177,-12.352386,-3.530899,-2.1101837,-1.954361,0.0650177
1615,A,168820553686905,1.6069336,-12.466293,-5.0135956,-2.0179443,0.69914246,0.41108704
1615,A,168820604040909,-2.5530548,-12.291214,-1.1154938,-1.8196564,-1.517395,-0.18803406
1615,A,168820654394913,-4.6657104,-15.2966,1.4706116,-1.4398499,-2.3874512,-0.8007202
1615,A,168820704748917,-4.293503,-13.613098,0.40386963,-0.32025146,-1.7624359,-0.6813965
1615,A,168820755102921,-1.7140198,-9.435211,-0.21292114,1.8825378,-1.2324219,-0.66693115
1615,A,168820805456925,0.066223145,-6.260666,0.7192383,0.9853363,1.3803406,0.58187866
1615,A,168820855810929,-1.1315308,-4.0101624,1.5473022,-1.7488861,-0.7951355,-0.20425415
1615,A,168820906164933,-1.5443268,-1.7270508,2.915802,1.0753174,-1.0880432,-0.1758728
1615,A,168820956518937,-1.0728455,-1.6928864,2.6760864,-0.63664246,1.9277496,-0.015335083
1615,A,168821006872941,2.1701508,-14.8294525,-13.961197,0.9836426,-0.6333313,-0.8211365
1615,A,168821057226945,-4.4581146,-4.0220337,-5.541748,1.7011566,4.089157,1.0811005
1615,A,168821107580948,-1.5242615,-8.34491,3.5618896,1.2622681,-0.21490479,0.8066406
1615,A,168821157934952,-0.3990631,-8.49704,1.1159515,3.38385,-0.90397644,0.8631592
1615,A,168821208288956,-10.335251,-6.0221863,7.7742767,1.4758606,2.9817047,0.2024231
1615,A,168821258642960,-2.5463562,-14.154556,0.5502777,1.2374573,1.7243042,-0.12287903
1615,A,168821308996964,0.6450348,-9.95137,1.5665741,1.1836395,0.5592346,-0.17706299
1615,A,168821359350968,2.143097,-8.294861,0.593338,1.2615967,-0.18492126,-0.13168335
1615,A,168821409704972,3.5087738,-8.237717,-3.5654144,-0.24717712,0.29762268,0.24917603
1615,A,168821460058976,0.36680603,-8.939713,-1.0845337,0.6772156,0.5059662,-0.24832153
1615,A,168821510412980,0.26530457,-10.407089,-1.7536469,-1.1164398,0.64541626,-0.057617188
1615,A,168821560766984,-0.9672241,-10.69722,-2.6031036,-2.552765,-1.881424,-0.72865295
1615,A,168821611120988,0.4035492,-10.21756,-1.4363708,-3.5141907,-1.537674,-1.0725098
1615,A,168821661474991,-1.1996765,-12.435654,0.62709045,-1.7893219,-2.205307,-0.18286133
1615,A,168821711828995,2.8313293,-14.723648,-4.583267,-2.0965729,-0.035751343,0.69644165
1615,A,168821762182999,-0.040161133,-12.267563,-2.2832642,-1.8145905,-0.8302002,-0.43804932
1615,A,168821812537003,-0.41986084,-15.645279,3.4996338,-1.6535645,-3.9036255,-0.93888855
1615,A,168821862891007,-5.2143097,-15.045425,-3.7821655,-0.20471191,-1.6580963,-0.56604004
1615,A,168821913245011,0.8447876,-9.642838,2.2046356,2.0569,-0.6665497,-0.35606384
1615,A,168821963599015,-2.0684052,-6.2554016,0.05618286,3.672287,1.9897919,0.2098999
1615,A,168822013953019,1.5900116,-4.803787,5.656723,-2.0934906,-0.75575256,-0.9397583
1615,A,168822064307023,-3.3193512,-0.5129242,4.261307,0.881897,-0.17675781,0.123168945
1615,A,168822114661027,-1.9745636,-1.6560974,1.951004,-0.86860657,2.7313232,0.37631226
1615,A,168822165015030,-12.914047,-18.23616,-18.394135,0.81492615,0.52279663,-0.9043884
1615,A,168822215369034,-3.6515198,-4.2392426,-1.2285461,1.825592,3.9571533,1.8084412
1615,A,168822265723038,-2.0845795,-6.080261,2.9173737,0.8709717,0.29660034,0.4297943
1615,A,168822316077042,3.3059845,-9.046661,2.563446,3.4850006,-0.27749634,0.07809448
1615,A,168822366431046,-7.37941,-2.8440094,0.5517273,2.1064606,2.2171936,-0.028076172
1615,A,168822416785050,-2.6721802,-16.542374,0.4505005,1.1845093,2.6219025,-0.19145203
1615,A,168822467139054,0.7898102,-7.956909,0.39883423,1.0240021,1.0353546,0.09703064
1615,A,168822517493058,1.7331543,-9.46907,-0.67251587,1.1979065,0.36697388,0.3959961
1615,A,168822567847062,1.58078,-8.300659,-0.46784973,0.59269714,0.08418274,0.21534729
1615,A,168822618201066,-0.21664429,-8.999252,-3.5973816,-0.29762268,0.70632935,0.3476715
1615,A,168822668555070,-0.15029907,-9.793335,0.11442566,0.06440735,0.24880981,0.021469116
1615,A,168822718909073,0.95866394,-9.587906,-1.9525299,-2.2986145,-0.74134827,-0.85939026
1615,A,168822769263077,0.13644409,-10.281815,-3.297882,-3.2603302,-0.9247894,-1.0627594
1615,A,168822819617081,2.3865204,-12.166855,-2.0926666,-2.7641754,-1.3701324,-0.6332245
1615,A,168822869971085,5.0710754,-11.705231,-5.366852,-2.0622559,-2.246582,0.75813293
1615,A,168822920325089,0.17622375,-13.48645,-2.2942505,-2.3790894,-1.0569153,0.40716553
1615,A,168822970679093,-4.240036,-13.816391,2.666275,-1.9385376,-2.3145905,-0.43286133
1615,A,168823021033097,-6.945099,-16.752853,2.095932,-0.40914917,-1.5368042,-0.4664154
1615,A,168823071387101,-3.9571075,-10.83313,-0.23937988,1.8352051,-0.5707092,-0.49412537
1615,A,168823121741105,2.3980255,-7.649246,2.9910889,0.8648224,-0.5469971,-0.14379883
1615,A,168823172095109,-0.20924377,-3.8075714,2.340332,-1.9344635,-1.7667999,0.11997986
1615,A,168823222449113,-2.0465546,-1.4685669,2.9277039,0.33476257,-0.19807434,-0.16357422
1615,A,168823272803116,-2.2929077,-3.1085968,1.2205353,0.49794006,1.3582001,-0.48857117
1615,A,168823323157120,-1.4140778,-11.802887,-4.2501526,0.4714508,0.85324097,-0.20077515
1615,A,168823373511124,-1.1762848,-9.652283,-2.2821198,1.3753662,1.3947449,0.5595093
1615,A,168823423865128,-3.5003967,-8.149536,-0.75227356,1.4971771,1.7892151,0.42175293
1615,A,168823474219132,-2.6225739,-8.865906,-0.9620056,2.863083,0.12362671,0.24705505
1615,A,168823524573136,-6.1581573,-4.1841736,6.0608063,2.1518097,1.038559,0.15019226
1615,A,168823574927140,-4.6428986,-14.086365,3.9919891,0.5888977,1.7625732,-0.15264893
1615,A,168823625281144,0.40911865,-12.844391,2.0157166,0.8196411,0.61912537,-0.10951233
1615,A,168823675635148,1.0127411,-8.282608,1.3200378,1.6847229,-0.4172821,0.080963135
1615,A,168823725989152,1.7607117,-7.708496,-3.0270844,1.0982819,0.68466187,0.12620544
1615,A,168823776343155,0.5093689,-8.839325,-1.9492645,-0.10517883,0.74972534,0.11756897
1615,A,168823826697159,-0.90859985,-9.650269,-0.70848083,-0.6710663,0.03652954,-0.28263855
1615,A,168823877051163,-0.96325684,-10.420807,-1.0192719,-2.1008453,-0.9606476,-0.8925171
1615,A,168823927405167,-0.80708313,-10.502441,-4.6934814,-3.6211243,0.37335205,-1.0620728
1615,A,168823977759171,0.4791565,-12.099167,-0.8109894,-2.4684143,-1.1182404,-0.19810486
1615,A,168824028113175,2.8363953,-14.657684,-4.2777557,-2.1306763,-0.9012146,0.63671875
1615,A,168824078467179,-3.05336,-13.519684,-5.2539673,-1.629776,-1.4365082,0.05104065
1615,A,168824128821183,-6.0971985,-15.184525,1.3970642,-1.7093964,-1.9019012,-0.63238525
1615,A,168824179175187,-5.0142975,-13.900986,-0.84417725,-0.4963379,-1.7303619,-0.49266052
1615,A,168824229529191,-0.9067383,-10.775925,0.12397766,2.0856476,-0.8951721,-0.5560303
1615,A,168824279883195,1.7672577,-7.658371,-0.49821472,0.8717499,1.415741,0.9709015
1615,A,168824330237198,-1.6463928,-3.2310028,1.5952148,-1.8806152,-0.6834259,-0.40159607
1615,A,168824380591202,-2.3112793,-1.3070984,3.055893,0.70588684,-0.69410706,-0.6643982
1615,A,168824430945206,-0.5728302,-1.748703,3.5453796,-0.6898804,1.7984619,-0.36401367
1615,A,168824481299210,3.9865265,-15.6974945,-14.801743,1.1878052,-1.4199829,-0.42137146
1615,A,168824531653214,-6.0889587,-5.4369965,-5.097229,1.7294159,2.9953156,1.5518188
1615,A,168824582007218,-1.5861511,-10.193253,-2.2956238,0.9087372,0.9360199,0.72746277
1615,A,168824632361222,0.08804321,-4.6902313,2.9013214,3.2591095,-0.58695984,-0.019943237
1615,A,168824682715226,-9.62236,-4.362732,6.38118,2.1699219,2.2747192,0.23176575
1615,A,168824733069230,-1.334259,-14.700195,0.03465271,0.75219727,2.3747406,-0.16694641
1615,A,168824783423234,0.9551239,-9.973434,2.2290802,1.7505951,1.2280426,5.0354004E-4
1615,A,168824833777238,0.89193726,-8.5902405,-1.5360565,2.022705,-1.2308197,0.007232666
1615,A,168824884131241,3.1235352,-7.523636,-2.9808655,-0.45265198,1.2424774,0.4008026
1615,A,168824934485245,0.2315216,-7.7904816,-2.530777,-0.4454651,0.6512909,0.21897888
1615,A,168824984839249,-0.2584381,-10.13623,-2.1369781,-0.4563141,-0.2625885,-0.22006226
1615,A,168825035193253,-0.87509155,-10.40184,-1.1362,-2.4868317,-1.7576294,-1.2465057
1615,A,168825085547257,0.16870117,-10.83197,-1.6440582,-4.2148743,0.23439026,-1.0977173
1615,A,168825135901261,1.9717255,-14.206467,2.2846985,-1.782135,-1.7455292,0.019378662
1615,A,168825186255265,5.172104,-16.079803,-8.770065,-2.0701141,0.030044556,0.49012756
1615,A,168825236609269,-4.6848297,-11.688629,-3.6917572,-1.4844055,-1.9824677,-0.51745605
1615,A,168825286963273,-3.0720825,-15.472092,4.769699,-2.1463928,-2.1281738,-0.7507324
1615,A,168825337317277,-6.247299,-13.758865,-2.2239075,-0.21975708,-1.4423523,-0.4606018
1615,A,168825387671280,2.533905,-9.712631,1.1676483,1.9976807,-0.58839417,-0.41853333
1615,A,168825438025284,1.5333862,-6.526596,1.1078949,4.0268097,2.1658478,-0.037200928
1615,A,168825488379288,-2.297409,-2.9277802,2.6692047,-2.3396149,-1.6965942,-0.5391693
1615,A,168825538733292,-2.4549866,-0.75064087,3.121582,0.2613678,0.0047454834,-0.31684875
1615,A,168825589087296,-2.2082977,-2.0876923,0.9076996,-0.8041229,1.0727844,0.17771912
1615,A,168825639441300,-13.150848,-18.337967,-18.317734,1.7918701,-1.0462799,-0.1607666
1615,A,168825689795304,-3.184967,-6.5939636,-1.8646393,2.090332,3.3133698,1.7604218
1615,A,168825740149308,-1.5300446,-7.21521,-0.35134888,1.437851,-0.14778137,0.286026
1615,A,168825790503312,0.64030457,-3.1610718,5.974716,2.77417,-0.37249756,-0.21128845
1615,A,168825840857316,-8.807922,-7.4854736,4.5315704,1.0140076,3.2698517,-0.15005493
1615,A,168825891211320,0.4118805,-15.069107,-1.1071014,1.5082245,1.545639,-0.10194397
1615,A,168825941565323,-0.23921204,-8.915451,2.1600494,1.4675446,1.1868744,0.011245728
1615,A,168825991919327,1.3343964,-7.8489532,-1.650589,1.3675079,0.14239502,0.3816681
1615,A,168826042273331,1.2199249,-8.730103,-1.069931,0.0692749,0.359375,0.25724792
1615,A,168826092627335,-1.164917,-9.240677,-1.2943573,-0.334198,0.6809845,0.24003601
1615,A,168826142981339,0.09712219,-9.278656,-1.3594055,-1.2489624,-0.216568,-0.34809875
1615,A,168826193335343,0.11946106,-10.943253,-3.0696106,-2.6438446,-1.3572693,-0.8938751
1615,A,168826243689347,-0.7270813,-11.748749,-3.159851,-3.0069122,-1.0734711,-0.67630005
1615,A,168826294043351,2.6051636,-13.587997,-2.6625519,-2.2152557,-1.0753937,0.11325073
1615,A,168826344397355,2.7394562,-13.48555,-5.8150177,-1.8778839,-0.80319214,0.3999176
1615,A,168826394751359,-2.524704,-12.126465,-0.5255585,-1.8527374,-1.4666595,-0.5817566
1615,A,168826445105363,-3.4443207,-13.542877,3.174179,-1.6670074,-2.4699554,-0.874588
1615,A,168826495459366,-4.0927734,-13.400726,-0.31399536,0.19242859,-1.65242,-0.7077942
1615,A,168826545813370,0.6514435,-9.671249,1.6531677,2.6774445,-0.16056824,-0.67681885
1615,A,168826596167374,1.0059814,-6.668289,3.0694427,0.53411865,-0.27314758,-0.32473755
1615,A,168826646521378,-2.0575714,-3.3765106,3.6077576,-1.6564636,-1.8474579,-0.20845032
1615,A,168826696875382,-2.7850037,-1.3523712,3.2274475,0.33631897,0.64138794,-0.031173706
1615,A,168826747229386,-3.36409,-5.101471,-1.5993652,0.3209076,1.0733948,-0.79919434
1615,A,168826797583390,-1.6308289,-11.39093,-6.0038147,1.2818604,2.2869568,0.15545654
1615,A,168826847937394,0.58270264,-6.7337646,-0.25097656,1.3622589,3.0215302,1.0748291
1615,A,168826898291398,0.3496704,-10.086929,-3.7216187,2.1553345,0.5154877,0.7747803
1615,A,168826948645402,-4.4116516,-8.38472,-2.9463654,2.7386932,1.0837097,0.60066223
1615,A,168826998999405,-7.7913666,-7.5229034,4.3210297,1.3243561,1.8148956,-0.03933716
1615,A,168827049353409,-3.2954865,-13.886932,4.10791,0.8312073,0.30291748,-0.033706665
1615,A,168827099707413,0.5359802,-11.251678,1.3955383,1.0353088,-0.25238037,0.20770264
1615,A,168827150061417,3.6072845,-8.487045,-4.306717,1.4171906,0.38150024,0.060791016
1615,A,168827200415421,1.1878967,-7.763214,-3.7984467,0.23223877,0.71409607,0.34709167
1615,A,168827250769425,-0.7447357,-8.2291565,-1.3443298,0.33738708,0.5694275,0.3565979
1615,A,168827301123429,-0.746109,-9.745865,-0.55210876,-1.2779846,-0.23797607,-0.39561462
1615,A,168827351477433,-0.7354126,-10.148804,-1.7680511,-3.1089935,-0.33403015,-0.9522705
1615,A,168827401831437,0.40263367,-11.53389,-3.4837189,-2.9607544,-1.0113983,-0.99424744
1615,A,168827452185441,3.0780792,-12.127472,-5.5513306,-2.4989166,-2.5586243,0.22698975
1615,A,168827502539445,1.5972443,-13.195877,-5.365082,-1.7958069,-0.7590637,0.2705536
1615,A,168827552893448,-1.7069397,-11.351273,-0.47789,-2.0700989,-1.7806854,-0.20083618
1615,A,168827603247452,-7.2922363,-16.91397,2.996521,-1.3733826,-1.6880798,-0.6198425
1615,A,168827653601456,-7.3856964,-14.262772,0.3829193,0.40493774,-1.3818665,-0.5141144
1615,A,168827703955460,1.1300659,-9.634766,1.2789307,2.823822,-0.47375488,-0.8329773
1615,A,168827754309464,1.4842987,-5.5044403,2.600174,-1.5915985,-0.9426117,0.1454773
1615,A,168827804663468,-3.223999,-1.990387,2.5384216,-1.7018127,-1.4223938,-0.11299133
1615,A,168827855017472,-1.4980316,-0.94210815,2.9194183,1.5787811,0.10787964,-0.2680359
1615,A,168827905371476,-2.5084686,-4.489929,1.1537018,-0.70703125,0.92910767,-0.56744385
1615,A,168827955725480,2.4875336,-17.127304,-5.5035706,1.8278198,0.111312866,0.43450928
1615,A,168828006079484,-5.806366,4.5776367E-4,1.3431549,1.7934113,3.2081451,1.0760498
1615,A,168828056433488,-1.3636017,-16.434082,-2.7993927,1.6893768,2.0531158,0.34059143
1615,A,168828106787491,-3.0139923,-2.4842224,6.8697968,3.6354065,0.028533936,0.30664063
1615,A,168828157141495,-7.366913,-8.096054,8.447845,0.99920654,2.1785736,0.05316162
1615,A,168828207495499,0.36819458,-14.163467,-0.556427,0.26423645,1.1399536,0.123184204
1615,A,168828257849503,1.4372864,-10.506729,2.1977234,1.148056,0.3540039,0.33332825
1615,A,168828308215021,1.6327362,-7.6948547,-2.7648926,1.5521088,-0.49021912,0.11276245
1615,A,168828358569025,0.96139526,-8.868637,-3.7928314,0.9078522,1.3798828,-0.2350769
1615,A,168828408923029,-1.273529,-9.058716,2.276596,-0.23803711,-0.51472473,7.9345703E-4
1615,A,168828459277033,0.3274231,-9.388947,-1.8029633,-0.92185974,1.1568146,-0.39334106
1615,A,168828509631037,-0.3033142,-10.20369,-0.72543335,-3.117035,-1.5119629,-0.9984741
1615,A,168828559985041,-0.9545288,-10.595581,-2.8025513,-3.7493134,0.15213013,-1.0910034
1615,A,168828610339044,0.3021698,-13.477844,-0.64468384,-1.6181183,-2.0436249,0.09803772
1615,A,168828660693048,4.640732,-14.568558,-6.3672028,-2.550644,0.4805603,1.0349274
1615,A,168828711047052,-3.0528412,-12.631226,-4.478302,-1.4474487,-2.3241272,-0.30607605
1615,A,168828761401056,-4.6717224,-16.502426,3.3584747,-1.7048798,-2.4667969,-0.89427185
1615,A,168828811755060,-6.2767334,-12.946014,-5.330612,0.15203857,-1.4468384,-0.47044373
1615,A,168828862109064,0.37521362,-9.175781,-0.42053223,2.3656464,-0.27627563,-0.4200287
1615,A,168828912463068,0.86198425,-6.4505157,0.08847046,2.5648499,2.3716125,-0.02520752
1615,A,168828962817072,-2.3696747,-2.9927216,4.073242,-1.8810577,-1.6999054,-0.62161255
1615,A,168829013171076,-1.9953308,-0.8577423,3.8872986,1.2256622,-0.3234558,-0.26184082
1615,A,168829063525080,-3.7414856,-4.3326874,0.049118042,1.310257,2.956131,-0.27012634
1615,A,168829113879084,-16.770996,-16.301788,-16.500275,0.7455902,0.6125946,-0.8646698
1615,A,168829164233087,-3.0647888,-3.0463257,-1.3764496,1.3980713,3.2737732,1.1757507
1615,A,168829214587091,0.023834229,-6.3162384,0.49919128,0.5769043,0.93592834,0.8572998
1615,A,168829264941095,-4.481674,-14.56398,-6.996475,2.5596466,-1.289444,0.8860626
1615,A,168829315295099,-8.432297,-2.6289673,3.7483063,2.129776,1.0049438,0.16177368
1615,A,168829365649103,-4.29216,-13.404205,3.483902,1.7579346,2.3898315,-0.41975403
1615,A,168829416003107,-0.2948761,-10.974319,-0.77679443,1.5259705,0.7369385,-0.31921387
1615,A,168829466357111,2.5218964,-8.146332,-0.18951416,0.9172516,0.11480713,0.15960693
1615,A,168829516711115,1.6435089,-8.710251,0.5339203,0.086639404,0.7920227,0.28585815
1615,A,168829567065119,0.20678711,-9.801636,-2.8709564,-0.424057,0.6657715,0.38606262
1615,A,168829617419123,-1.6086121,-9.724426,-2.6385345,-1.295517,-0.6317444,-0.24014282
1615,A,168829667773127,-1.451004,-9.829285,-2.2167816,-3.2755737,-1.2777557,-0.99320984
1615,A,168829718127130,-0.543869,-11.174576,-2.4185333,-2.8918457,-1.3354492,-0.74380493
1615,A,168829768481134,2.8654785,-13.028305,-4.0452576,-1.9785767,-0.2581482,0.27142334
1615,A,168829818835138,3.0334625,-13.262451,-7.318985,-1.8900146,0.12142944,0.07972717
1615,A,168829869189142,-1.0878448,-14.016144,0.2523346,-1.5833893,-2.0947723,-0.65200806
1615,A,168829919543146,-5.23201,-15.466248,0.44259644,-1.1216125,-2.5324402,-0.7631836
1615,A,168829969897150,-4.917679,-13.930054,-2.6243896,0.66122437,-1.8659515,-0.5618439
1615,A,168830020251154,0.32530212,-9.106613,1.6968384,2.9208221,0.5006256,-0.15280151
1615,A,168830070605158,0.7315216,-5.7093964,3.1201477,0.4216156,0.3639984,-0.31585693
1615,A,168830120959162,-1.5440674,-1.8953247,3.52388,-0.7724304,-1.2640991,-0.44308472
1615,A,168830171313166,-2.4644318,-0.24900818,3.7072144,1.1506042,1.5621643,0.18423462
1615,A,168830221667169,-10.086884,-10.237137,-8.429382,0.5430603,1.464859,-0.99017334
1615,A,168830272021173,-10.672379,-10.526321,-9.475632,1.16362,2.4222412,0.14595032
1615,A,168830322375177,-1.7714386,-2.2257996,0.9223938,0.19200134,2.4967804,1.2009277
1615,A,168830372729181,0.60510254,-11.716843,-6.309143,1.9434967,-0.9474182,0.39315796
1615,A,168830423083185,-4.049759,-6.696121,-3.7097473,3.1449127,0.5505829,0.15484619
1615,A,168830473437189,-6.5632324,-7.468277,3.2717438,2.2625427,2.958664,-0.26649475
1615,A,168830523791193,-3.0124207,-12.577454,1.4351807,1.3251495,1.896759,-0.24343872
1615,A,168830574145197,0.46372986,-9.898804,0.23205566,1.1160278,0.23187256,0.123703
1615,A,168830624499201,2.3432312,-8.758514,0.44979858,1.219574,-0.26878357,0.21125793
1615,A,168830674853205,1.2172089,-9.298553,-3.7607422,-0.28804016,0.73262024,0.4881897
1615,A,168830725207209,-0.6389313,-9.26619,-1.1911621,0.50886536,-0.23443604,0.24513245
1615,A,168830775561212,-0.59436035,-9.815918,-0.4426422,-1.1127014,0.010314941,-0.47427368
1615,A,168830825915216,-1.0490723,-10.173859,-3.6694794,-2.6219635,-0.70199585,-0.9541626
1615,A,168830876269220,-0.022567749,-11.134445,-1.2523346,-3.2228546,-0.1222229,-0.9600067
1615,A,168830926623224,2.745346,-11.480789,-0.27731323,-2.058426,-2.4281464,-0.2862854
1615,A,168830976977228,1.3538055,-14.283203,-3.6691742,-2.385788,-0.439682,0.89953613
1615,A,168831027331232,-3.1141663,-11.491791,-2.4378815,-1.7914124,-1.9288788,-0.22737122
1615,A,168831077685236,-5.7574615,-17.353653,1.9152985,-1.4439697,-1.526001,-0.746048
1615,A,168831128039240,-8.436523,-13.348831,-1.2089081,0.037506104,-1.3079376,-0.4195404
1615,A,168831178393244,-1.4880066,-9.316055,2.4095306,2.2827759,-0.9280243,-0.5365753
1615,A,168831228747248,2.763443,-6.997879,0.38876343,-0.7233734,0.65600586,0.79278564
1615,A,168831279101252,-2.939682,-2.9911041,1.954071,-2.2947998,-1.4366608,-0.46487427
1615,A,168831329455255,-1.1296844,-1.69281,3.0507202,1.1273041,-0.21894836,-0.20848083
1615,A,168831379809259,-1.2628784,-2.9066925,1.6464386,-1.1808014,1.558136,-0.3851776
1615,A,168831430163263,2.515915,-17.464249,-17.253586,1.9601593,-0.13136292,0.6956787
1615,A,168831480517267,-7.3652496,-2.4736786,-0.7841644,1.1009827,2.2475128,1.087265
1615,A,168831530871271,-0.8114929,-17.707169,-2.8697357,2.7164764,-0.52090454,0.9489746
1615,A,168831581225275,-2.0583038,-2.855896,1.3645935,3.226654,0.23216248,-0.53878784
1615,A,168831631579279,-7.842499,-9.837753,8.145752,1.421341,2.8073883,-0.3221283
1615,A,168831681933283,-0.3835144,-16.631989,-2.476303,1.0642853,1.7858276,0.11427307
1615,A,168831732287287,2.9205017,-9.034592,2.1108246,1.8798523,-1.0692902,-0.31878662
1615,A,168831782641291,-0.72177124,-7.9715576,0.89019775,0.95858765,0.4224701,0.22750854
1615,A,168831832995294,-0.4812317,-8.767868,-4.2602234,-0.53230286,1.4340973,0.27490234
1615,A,168831883349298,0.9699402,-7.0374756,1.290329,0.53196716,-0.13113403,0.10902405
1615,A,168831933703302,-1.5862732,-10.602173,-2.1120453,-1.3366699,-0.10197449,-0.37625122
1615,A,168831984057306,-1.584137,-10.778809,-4.598465,-2.7618713,-1.2433624,-0.89712524
1615,A,168832034411310,-0.5179291,-10.601135,-0.80914307,-3.5074615,-0.16589355,-1.116745
1615,A,168832084765314,0.39935303,-13.2140045,1.1447449,-1.733139,-1.969574,-0.13786316
1615,A,168832135119318,1.8348541,-15.1332855,-4.880249,-2.2601166,0.19062805,0.55522156
1615,A,168832185473322,-2.4805145,-11.486053,-3.350998,-1.6223602,-0.76882935,-0.30447388
1615,A,168832235827326,-2.0386658,-14.394485,4.134491,-1.9384613,-2.4559479,-0.73902893
1615,A,168832286181330,-5.574356,-13.13884,-2.7895203,-0.19836426,-1.4353943,-0.55874634
1615,A,168832336535334,-0.112335205,-10.035217,0.8752289,1.8437805,-0.61135864,-0.5171356
1615,A,168832386889337,0.6939392,-7.388809,1.9406128,2.2863464,0.5218811,-0.44126892
1615,A,168832437243341,-1.2589722,-4.211502,2.6453705,-2.0278625,-1.479599,-0.16992188
1615,A,168832487597345,-3.4871368,-1.4007263,2.8989868,0.20155334,-0.34381104,0.0025634766
1615,A,168832537951349,-2.9225922,-3.4533234,-1.3979187,1.3837433,1.1339722,-0.3477173
1615,A,168832588305353,-6.187027,-12.047073,-14.0984955,0.013702393,1.3830719,-0.26846313
1615,A,168832638659357,-0.42843628,-7.115341,-2.104721,1.1643982,1.6086731,1.1496735
1615,A,168832689013361,-1.6009979,-3.8592987,-0.54219055,1.0051727,1.4663544,0.87846375
1615,A,168832739367365,-1.8096008,-14.474197,-3.288742,2.3115692,0.09655762,0.24195862
1615,A,168832789721369,-7.105438,-4.0930634,0.7076721,3.0716248,0.81573486,-0.23498535
1615,A,168832840075373,-3.8430939,-12.837845,2.7200012,2.092987,2.4065247,0.049453735
1615,A,168832890429377,-1.2106934,-14.221024,-1.1815491,1.0636292,0.8630676,-0.1531372
1615,A,168832940783380,0.54771423,-8.547791,2.9058838,1.4876556,0.065597534,-0.07928467
1615,A,168832991137384,0.66508484,-7.4044952,-0.48735046,0.62846375,0.46557617,0.23370361
1615,A,168833041491388,1.4238434,-8.919891,-2.714859,0.08119202,0.7726135,0.37130737
1615,A,168833091845392,-0.57774353,-8.799713,-1.0409088,-0.06951904,-0.0030975342,0.0041503906
1615,A,168833142199396,-1.2682343,-10.136017,-2.182541,-1.7839661,-0.58973694,-0.76971436
1615,A,168833192553400,-1.1917572,-10.392181,-2.6279144,-3.0013428,-1.1135559,-1.0974121
1615,A,168833242907404,0.69633484,-10.844788,-1.1229553,-2.7248077,-1.6766663,-0.52423096
1615,A,168833293261408,2.313324,-14.252731,-2.369339,-2.1014862,0.09762573,0.20922852
1615,A,168833343615412,-1.226593,-13.89621,-4.771942,-1.820755,0.75852966,-0.11856079
1615,A,168833393969416,-4.0265656,-13.134399,-0.5812683,-2.0166779,-2.0123138,-1.0295105
1615,A,168833444323419,-4.8631897,-14.60112,1.0364532,-1.5280609,-2.3208466,-1.0619049
1615,A,168833494677423,-3.8852386,-11.924454,-0.7791443,0.5727234,-1.2266083,-0.4982605
1615,A,168833545031427,0.7932129,-9.035065,2.7967834,2.6817932,0.07749939,0.08705139
1615,A,168833595385431,0.51971436,-6.1037445,4.2271423,-0.190094,-0.33247375,-0.17041016
1615,A,168833645739435,-2.4754639,-2.54747,3.4891357,-0.91000366,-0.98553467,-0.4119568
1615,A,168833696093439,-2.901001,-0.7668152,3.123291,0.60520935,2.3932495,0.060699463
1615,A,168833746447443,-8.663345,-11.601837,-10.448196,0.35169983,0.49450684,-0.45225525
1615,A,168833796801447,-6.4507446,-11.773331,-9.57637,0.98161316,2.1536713,0.4246521
1615,A,168833847155451,-1.1260681,-2.47966,-1.0831146,0.8650055,1.8552399,0.8195801
1615,A,168833897509455,-3.615921,-12.196213,-3.6213531,2.6045837,-1.642456,0.5123749
1615,A,168833947863459,-9.850311,-7.362091,4.197571,3.006775,0.8903656,0.33267212
1615,A,168833998217462,-5.663269,-8.802765,5.929962,1.6455383,3.4141846,-0.21342468
1615,A,168834048571466,-2.8565826,-13.741562,0.035125732,2.172882,0.4338379,-0.19087219
1615,A,168834098925470,0.078125,-9.21376,-1.585144,1.1979218,0.4303894,0.061416626
1615,A,168834149279474,2.5447845,-7.8411865,-0.5341034,0.04534912,0.73454285,0.13127136
1615,A,168834199633478,1.0431824,-8.48291,-1.8148651,-0.27861023,0.35656738,0.10992432
1615,A,168834249987482,-0.76197815,-9.504791,-3.3839111,0.015670776,0.4013977,-0.13644409
1615,A,168834300341486,-0.54641724,-9.515015,-3.671646,-2.4280396,-0.4490204,-0.23973083
1615,A,168834350695490,-0.6000824,-10.225616,-0.39637756,-3.7025452,-0.47709656,-0.5156555
1615,A,168834401049494,0.2581482,-12.519592,0.052963257,-1.8119965,-2.2043762,-0.32443237
1615,A,168834451403498,0.66911316,-13.923325,-9.656494,-2.2142334,1.0375977,0.70295715
1615,A,168834501757502,0.11746216,-14.175903,-9.07074,-1.8449097,-0.16409302,0.10543823
1615,A,168834552111505,-0.34545898,-11.438446,2.6153107,-1.5475159,-1.9782104,-0.7889099
1615,A,168834602465509,-9.2139435,-18.044937,-3.0538025,-0.58135986,-1.5862732,-0.6420746
1615,A,168834652819513,-1.3716125,-10.9938965,0.95835876,1.5048828,-1.7736511,-0.51486206
1615,A,168834703173517,0.58309937,-7.1232452,1.1837616,3.4796295,2.2095032,-0.32139587
1615,A,168834753527521,1.816803,-4.423813,2.169281,-2.3074493,-1.4682922,-0.6376648
1615,A,168834803881525,-3.2419434,-0.29187012,3.3074493,0.6535492,-1.820694,-0.20942688
1615,A,168834854235529,-1.6324158,-0.065200806,3.3074646,0.37654114,4.469696,-0.19709778
1615,A,168834904589533,-16.978973,-18.103226,-18.220871,0.20233154,-2.2894592,-1.5727234
1615,A,168834954943537,-4.268509,-2.6059875,-2.6660004,1.6654358,4.9172974,2.219345
1615,A,168835005297541,1.2428436,-1.7393036,2.702362,1.02211,1.326416,0.09376526
1615,A,168835055651544,-2.766327,-19.017212,-16.47902,4.3318176,-0.4093628,0.38687134
1615,A,168835106005548,-11.427353,2.0792847,3.536438,1.894455,2.5399475,-0.25482178
1615,A,168835156359552,-1.0623474,-15.318314,4.0965576,0.3682251,1.6022034,0.44511414
1615,A,168835206713556,-0.16168213,-12.945908,2.3617706,1.4431,0.6548462,0.39422607
1615,A,168835257067560,0.8879242,-9.954361,-0.9617615,1.8753815,-0.810379,0.07180786
1615,A,168835307421564,0.8787079,-7.111252,-7.820984,1.2718353,0.93074036,-0.13546753
1615,A,168835357775568,-0.8350525,-8.568481,-2.2851715,-0.7840729,1.0704193,0.39660645
1615,A,168835408129572,1.4395294,-8.84465,-0.3569336,0.49786377,-1.1723022,0.08232117
1615,A,168835458483576,-0.58210754,-10.350784,-2.091858,-1.7277374,-0.13432312,-0.84706116
1615,A,168835508837580,-1.6039429,-10.658264,-4.7646027,-3.1485748,-1.0932007,-1.036911
