Subject-Id,Activity Label,Time stamp,Accel_x,Accel_y,Accel_z,Gyro_x,Gyro_y,Gyro_z
1635,A,676163861324906,-2.4057007,-7.5319824,1.1260681,0.87472534,-0.098098755,0.8075104
1635,A,676163881466507,-4.1595,-10.4496765,0.55892944,0.5634308,-1.3596649,1.4324188
1635,A,676163901608109,-5.1779327,-10.687866,0.27902222,1.5076904,-3.0868835,0.6790161
1635,A,676163921749711,-6.348404,-10.366272,0.67648315,1.430603,-1.8603058,0.45103455
1635,A,676163941891312,-3.5948334,-6.8533783,2.384781,0.3251648,-1.735611,0.2523651
1635,A,676163962032914,-1.6271973,-5.442154,0.29907227,1.0207672,-1.1070251,-0.47756958
1635,A,676163982174515,-0.8267517,-8.493668,-2.36055,0.17964172,-1.3453369,-0.36697388
1635,A,676164002316117,1.2593079,-11.795944,-1.2956085,-0.44096375,0.11174011,0.4830017
1635,A,676164022457718,-0.63442993,-12.284668,14.364288,-0.30691528,-0.27601624,0.12683105
1635,A,676164042599320,2.1697235,-15.141205,11.746445,-0.08236694,-1.8129578,0.4088745
1635,A,676164062740921,5.848709,-17.267227,1.4221497,-0.30596924,3.1231995,2.746582E-4
1635,A,676164082882523,-2.24794,-18.971405,-2.1242218,-1.5361023,3.7741547,-0.5243988
1635,A,676164103024125,-5.9582825,-19.386353,-3.960205,-3.51445,-1.676651,-0.8505249
1635,A,676164123165726,7.8742065,-8.522797,-3.7378693,-3.2464447,-1.2213898,-0.9306946
1635,A,676164143307328,10.698959,-2.5191193,-0.09968567,-1.2608948,1.4446106,-0.20780945
1635,A,676164163448929,4.679001,-4.2272644,0.25491333,-1.0664368,1.1829987,-0.40901184
1635,A,676164183590531,4.650421,-4.0774384,0.46202087,-1.4516144,-0.79855347,-0.5939636
1635,A,676164203732132,5.8902435,-2.9986115,-0.77256775,-1.4844055,0.3254242,-0.46096802
1635,A,676164223873734,5.3068542,-2.5737152,-1.6676483,0.23579407,1.2021179,0.20977783
1635,A,676164244015336,4.8961487,-2.8722992,-0.51400757,3.238205,1.4018402,1.1264343
1635,A,676164264156937,4.370056,-4.511505,0.7918091,4.3613434,0.22723389,1.7899017
1635,A,676164284298539,3.2027435,-7.906021,4.2942657,2.7049713,-0.034973145,1.0489502
1635,A,676164304440140,1.9054871,-11.349564,14.888092,-0.34077454,1.0760956,1.3027496
1635,A,676164324581742,0.7170105,-12.994812,15.999405,0.88108826,-2.7769623,1.65271
1635,A,676164344723343,-4.593445,-12.756302,5.906784,2.1217194,-2.9054413,0.36079407
1635,A,676164364864945,-4.5064697,-11.572327,-2.5154877,1.5484619,-1.2698975,-0.046081543
1635,A,676164385006546,1.1174622,-12.235764,-0.45384216,-0.45092773,-2.8927155,-0.6373749
1635,A,676164405148148,5.9604034,-12.531006,2.9966736,1.7850647,-1.6632843,-0.10731506
1635,A,676164425289750,6.5421295,-14.770233,3.8653412,-1.8321075,0.21768188,0.91038513
1635,A,676164445431351,10.36853,-11.866409,5.6552124,-0.43164063,2.1551208,0.15548706
1635,A,676164465572953,8.156952,-4.479019,-2.5021362,0.7341461,-0.33999634,0.15042114
1635,A,676164485714554,6.0168457,-4.4721985,-4.328003,-2.4065094,0.4684143,-0.6406708
1635,A,676164505856156,7.02446,-5.659073,-4.052185,-2.9996643,0.15357971,-0.556015
1635,A,676164525997757,8.481689,-6.4959106,-4.759598,-3.1527405,-1.0268555,-0.9268799
1635,A,676164546139359,8.01889,-7.342209,-3.8155212,-1.8511047,1.6163025,-0.3143921
1635,A,676164566280961,5.6778717,-7.803467,-2.8267822,-1.0802765,0.7273712,-0.55610657
1635,A,676164586422562,0.96313477,-10.295456,-1.8682709,-1.4494781,-0.33784485,-0.38157654
1635,A,676164606564164,0.7533722,-11.70137,-0.9510803,-0.068984985,1.2781982,-0.28216553
1635,A,676164626705765,5.845703,-9.824646,-7.496109,1.0370789,0.35101318,0.4989624
1635,A,676164646847367,4.019394,-11.420212,-0.6001282,3.534546,0.8834686,1.3095093
1635,A,676164666988968,4.3247375,-10.1236725,1.7444153,4.2098083,-1.0029297,1.3366699
1635,A,676164687130570,2.646576,-7.79834,3.157013,3.021103,-1.2123413,0.81570435
1635,A,676164707272171,-0.3257904,-6.8892975,8.078598,0.20549011,0.46340942,0.8783264
1635,A,676164727413773,1.5979156,-8.814529,0.020187378,1.3844299,-2.184021,1.0149231
1635,A,676164747555375,3.2916412,-9.186279,-0.36878967,2.1286163,-3.1193542,0.16156006
1635,A,676164767696976,3.720108,-9.083923,-0.93888855,0.86369324,-0.13607788,0.3330841
1635,A,676164787838578,3.6868134,-8.580933,-1.0065155,-1.8144836,-1.793457,0.033554077
1635,A,676164807980179,5.0375977,-9.083588,5.521698,1.3319702,-0.87705994,0.10984802
1635,A,676164828121781,3.4407196,-10.509079,3.2651215,-1.2105713,0.11303711,0.8373718
1635,A,676164848263382,2.208191,-11.635956,0.5116577,-0.60147095,1.797348,0.37153625
1635,A,676164868404984,0.85209656,-11.732071,-1.1490326,0.9683075,-0.55059814,0.38824463
1635,A,676164888546586,-1.1899719,-11.096542,-0.81837463,-2.8215637,1.4721832,-0.5818329
1635,A,676164908688187,0.9294586,-10.753662,5.5707703,-3.2118683,2.092926,-0.78785706
1635,A,676164928829789,4.382538,-14.526993,13.221863,-3.166275,-0.3879547,-1.1461792
1635,A,676164948971390,3.1044312,-14.081711,7.943634,-2.330536,-0.06997681,-0.7179413
1635,A,676164969112992,3.9089203,-14.610413,3.612091,-2.037262,1.7367859,-0.5439606
1635,A,676164989254593,4.7868347,-14.968353,-5.51297,-1.9150085,-0.1302948,-0.13500977
1635,A,676165009396195,5.4270477,-16.52066,-6.6111755,0.03666687,1.144989,-0.46801758
1635,A,676165029537796,8.664978,-17.720886,-6.02359,0.03276062,-0.030136108,0.1869812
1635,A,676165049679398,8.523407,-15.894943,-4.8946686,1.4371185,2.0409698,1.071106
1635,A,676165069821000,4.503235,-12.020737,-3.6890411,3.9965515,1.4327087,1.6342316
1635,A,676165089962601,1.9264069,-8.261902,-4.1814117,3.3389587,0.30395508,1.0751953
1635,A,676165110104203,-1.4883423,-7.5336456,1.6425476,0.45254517,0.6476135,0.6109009
1635,A,676165130245804,-0.72528076,-7.0390015,2.2259521,0.6405487,-0.90686035,1.0948944
1635,A,676165150387406,2.7678833,-4.9628296,-1.0602722,1.7599487,-2.4240265,0.4771576
1635,A,676165170529007,3.8524628,-3.870285,-3.7025146,1.1797485,-1.375351,0.036346436
1635,A,676165190670609,3.7493591,-3.305542,-4.1198883,-0.605072,-2.4254456,-0.31570435
1635,A,676165210812211,3.2234802,-4.066864,-2.5793152,1.5704498,-1.4053192,-0.1275177
1635,A,676165230953812,3.4899292,-3.821106,-1.4016266,-0.43496704,-0.73786926,0.73527527
1635,A,676165251095414,4.0772247,-3.2740479,-2.9124298,-1.0421906,2.1052246,0.4507904
1635,A,676165271237015,5.097687,-2.9669495,-3.1749115,0.36079407,-1.0664978,-0.45028687
1635,A,676165291378617,7.4456024,-2.9064484,-1.6503754,-1.4353638,-0.72229004,-0.8020325
1635,A,676165311520218,9.116364,-4.1490936,3.924408,-2.7154388,-2.1120605,-0.52137756
1635,A,676165331661820,6.6874084,-7.343811,12.153061,-2.431015,0.21090698,-0.06336975
1635,A,676165351803421,5.0621185,-8.126434,7.066025,-1.1558838,0.877121,-0.24353027
1635,A,676165371945023,4.3459015,-7.2193756,3.6820831,-1.1426086,-0.35136414,-0.53692627
1635,A,676165392086625,3.9486084,-6.250519,3.8510895,-1.2076416,-2.1581116,-0.30955505
1635,A,676165412228226,2.591034,-5.649872,4.3825836,-0.39344788,1.7976074,-0.20928955
1635,A,676165432369828,1.3087463,-6.777817,5.449066,0.21243286,0.5198059,0.2046051
1635,A,676165452511429,1.6017609,-8.96788,6.7826385,2.7584991,2.4241486,1.2438965
1635,A,676165472653031,3.0617828,-8.67189,7.2100677,4.182419,-0.23768616,1.2474365
1635,A,676165492794632,2.7388153,-7.457489,8.117096,2.0764618,0.44760132,0.8113861
1635,A,676165512936234,4.8954315,-10.727005,13.177628,-0.21580505,1.6256866,0.9937439
1635,A,676165533077836,7.294159,-18.99823,2.6336517,1.6368713,-2.4419098,1.1174622
1635,A,676165553219437,8.357483,-16.983658,-16.467896,2.245453,-1.8480225,0.581604
1635,A,676165573361039,8.379547,-12.588791,-6.618866,0.42669678,-1.3260651,0.30732727
1635,A,676165593502640,3.8237457,-7.262268,-3.7343445,-1.448883,-1.4044952,-0.3035431
1635,A,676165613644242,7.5725555,-6.9589844,-4.101425,1.6395721,-1.4918823,0.0071411133
1635,A,676165633785843,12.314926,-10.346161,-5.6828003,-1.1863251,-0.791687,0.8065796
1635,A,676165653927445,10.658279,-12.697815,-7.6840973,-0.19282532,2.1862946,0.2574768
1635,A,676165674069046,7.1690063,-12.702637,-7.3033905,0.43043518,-1.0433197,0.042526245
1635,A,676165694210648,6.063034,-11.498398,-3.3460236,-2.556244,1.1195221,-0.41444397
1635,A,676165714352250,5.0346527,-9.730545,-1.0496826,-2.68161,0.42514038,-0.5409241
1635,A,676165734493851,2.0541992,-8.232803,2.1996002,-2.628952,-0.31924438,-0.84710693
1635,A,676165754635453,-2.4051056,-8.059311,9.385895,-2.8556519,1.7654114,-0.56144714
1635,A,676165774777054,-1.9648743,-8.125534,9.14534,-2.0476685,1.2302094,-0.6105957
1635,A,676165794918656,2.3052979,-6.87175,-0.09588623,-1.796875,-0.32514954,-0.24447632
1635,A,676165815060257,2.2911987,-5.8768005,-0.77319336,-0.0962677,1.4977417,-0.55459595
1635,A,676165835201859,1.4060822,-5.818741,-0.8218689,2.593994E-4,0.040390015,0.13816833
1635,A,676165855343461,1.6709595,-6.7001495,-1.4329224,1.8067322,2.3428345,1.0295563
1635,A,676165875485062,1.9561157,-8.776459,-2.1638947,4.149292,0.98928833,1.7144623
1635,A,676165895626664,2.3574371,-10.889252,-2.8652039,3.4238434,-1.2911987,1.2104492
1635,A,676165915768265,3.674881,-11.249451,-2.3028107,0.9081116,0.8796234,0.6619873
1635,A,676165935909867,3.6681366,-12.479385,7.7790833,0.5910797,-0.51916504,1.2663727
1635,A,676165956051468,1.4700165,-14.770691,11.858475,1.083725,-2.518753,0.73983765
1635,A,676165976193070,-0.42074585,-14.674515,-0.4092102,1.2880249,-0.91218567,0.058441162
1635,A,676165996334671,-0.3404541,-14.140457,-1.6342316,-0.68533325,-2.013092,-0.08081055
1635,A,676166016476273,-0.7126465,-15.801468,9.60083,0.7362213,-1.301117,-0.24250793
1635,A,676166036617875,-0.42765808,-16.017166,11.695374,-0.7230377,-0.9299927,0.8574219
1635,A,676166056759476,2.4810333,-13.926071,5.5556183,-1.1105957,0.5827179,0.30412292
1635,A,676166076901078,4.213516,-13.772537,0.45639038,1.0585785,0.058502197,0.100616455
1635,A,676166097042679,6.1469574,-14.897018,-5.3055725,-1.7957916,0.29769897,-0.27619934
1635,A,676166117184281,9.316376,-16.757584,-5.644821,-2.5377197,0.038589478,-0.50723267
1635,A,676166137325882,10.183899,-18.285477,-5.536957,-2.1394196,-0.56018066,-0.83903503
1635,A,676166157467484,9.733292,-16.573044,-5.2845764,-3.3689575,1.6877899,-0.61935425
1635,A,676166177609086,5.3365936,-11.251617,-1.7057648,-2.6625214,2.785141,-0.18388367
1635,A,676166197750687,-0.64727783,-8.160767,2.7059479,-1.4295654,-0.67240906,-0.4304657
1635,A,676166217892289,-1.1493225,-7.5479584,0.26820374,-0.038635254,0.810379,-0.51464844
1635,A,676166238033890,1.522522,-6.283661,-4.93219,-0.09310913,0.29112244,0.018966675
1635,A,676166258175492,2.6934662,-4.054901,-3.9081573,0.03678894,2.5184631,0.75079346
1635,A,676166278317093,2.7864227,-2.2202454,-3.6511688,2.9941711,2.528885,1.740509
1635,A,676166298458695,2.721939,-1.1572723,-4.6178894,4.0350647,-0.6419525,1.7964172
1635,A,676166318600296,3.0335083,-0.8316803,-4.667755,1.6350555,-0.20124817,1.0746155
1635,A,676166338741898,4.4848633,-0.39465332,-4.291931,0.13052368,0.48796082,1.2909851
1635,A,676166358883500,6.795578,0.35557556,-3.739746,1.7324066,-1.7714386,0.96147156
1635,A,676166379025101,8.939529,0.47860718,-3.1615448,1.3228455,-1.3523254,0.1423645
1635,A,676166399166703,10.922546,-2.9382324,-0.36749268,-0.14120483,-1.2745667,-0.55358887
1635,A,676166419308304,8.933823,-14.549255,13.24202,0.21107483,-1.7353516,-0.62776184
1635,A,676166439449906,7.57695,-19.386353,18.796753,0.22447205,-1.4980011,0.5070343
1635,A,676166459591507,3.3299255,-13.314743,7.185272,-1.270813,1.1793976,0.20167542
1635,A,676166479733109,0.44866943,-5.584488,-2.2003174,-0.05116272,0.24053955,0.0677948
1635,A,676166499874711,-1.1253662,-3.7638855,-1.2563324,-0.9242859,-1.1165771,-0.72102356
1635,A,676166520016312,0.6573334,-7.2850647,-5.7399597,-1.8496552,-1.5311737,-0.42417908
1635,A,676166540157914,4.4889374,-16.47998,8.2864685,-2.591568,-0.9221039,-0.49546814
1635,A,676166560299515,9.690079,-17.115662,5.8127747,-3.0722198,2.272995,0.032302856
1635,A,676166580441117,7.8878326,-7.7593994,-5.570938,-1.6832123,0.83766174,-0.62461853
1635,A,676166600582718,7.2888336,-3.9432678,-7.721176,-1.2156677,-1.2083282,-0.5129852
1635,A,676166620724320,7.210541,-3.7977142,-7.213852,-0.2026825,2.1839447,-0.45942688
1635,A,676166640865921,7.746399,-5.5619354,-5.5618744,-0.13291931,-0.2531128,-0.079193115
1635,A,676166661007523,7.543762,-9.040802,-4.369278,0.91041565,3.8036804,1.1978607
1635,A,676166681149125,6.33403,-11.114929,-2.913742,4.108078,1.2933502,1.9602203
1635,A,676166701290726,5.326126,-10.044968,-1.9627075,3.690445,-1.963089,1.3566589
1635,A,676166721432328,3.597412,-7.9776154,-0.9920807,0.33171082,1.4152374,0.8558502
1635,A,676166741573929,2.0871582,-6.484833,-3.4508057,0.34829712,-0.65859985,1.479599
1635,A,676166761715531,-1.339508,-9.823654,1.0735931,1.6461334,-2.7515259,0.6467743
1635,A,676166781857132,-1.1886749,-9.561462,9.631348,1.2842865,-1.2023926,0.04547119
1635,A,676166801998734,0.9163971,-8.353592,2.9311066,-0.5817566,-1.8558044,-0.31323242
1635,A,676166822140336,2.48703,-8.213516,-1.1941376,0.9338379,-1.5101013,-0.21377563
1635,A,676166842281937,2.2688446,-8.944382,-0.55392456,-0.7714081,-1.067749,0.9345398
1635,A,676166862423539,1.4448395,-9.893295,-0.6455841,-1.0541992,1.4104462,0.10206604
1635,A,676166882565140,1.2497711,-10.971725,-3.298355,0.8020325,-0.33636475,0.035995483
1635,A,676166902706742,1.3461914,-10.739151,-0.28338623,-1.7293854,0.4269104,-0.5044403
1635,A,676166922848343,3.629364,-10.049637,8.766632,-2.4040527,-0.17025757,-0.5216217
1635,A,676166942989945,1.7341003,-13.035416,2.2102814,-2.6934662,-0.8555145,-0.8223572
1635,A,676166963131546,-0.45729065,-13.909485,-2.1885986,-3.58049,1.4488678,-0.52734375
1635,A,676166983273148,-1.6979523,-14.417511,-0.26393127,-2.3115234,2.0385895,-0.26567078
1635,A,676167003414750,0.75520325,-16.655685,9.603836,-0.81677246,-1.0333252,-0.33953857
1635,A,676167023556351,2.3881683,-15.551178,9.749374,0.4752655,1.0074005,-0.52233887
1635,A,676167043697953,3.637207,-12.681015,9.776321,0.26026917,-0.4876709,-0.011245728
1635,A,676167063839554,4.54393,-12.147003,1.9423523,0.05770874,3.2524261,0.99868774
1635,A,676167083981156,3.1813812,-12.893692,-4.990036,2.8732605,2.453537,1.9847565
1635,A,676167104122757,4.543152,-14.5963745,-5.164032,4.092636,-0.62771606,1.688736
1635,A,676167124264359,6.4240723,-16.026276,-4.791382,0.66596985,0.42481995,1.0733185
1635,A,676167144405961,7.94812,-16.847519,-4.4045715,0.8197632,-0.67633057,1.272995
1635,A,676167164547562,8.567688,-15.6514435,-4.0373077,1.8679047,-1.4624329,0.68899536
1635,A,676167184689164,6.324646,-10.529373,-4.2877655,0.7698822,-1.4642487,0.13891602
1635,A,676167204830765,1.7393951,-5.5479584,2.4124298,-0.6537323,-1.5281067,-0.35240173
1635,A,676167224972367,0.55877686,-5.5677185,1.9146271,0.75772095,-1.271759,-0.5510559
1635,A,676167245113968,1.5253143,-5.1320953,-2.0475006,0.24267578,-1.5091858,0.48287964
1635,A,676167265255570,2.6525269,-4.02623,-4.6127777,-1.6391449,0.9341278,0.26626587
1635,A,676167285397171,3.1316223,-2.6688995,-3.755783,0.51768494,0.3400421,-0.053863525
1635,A,676167305538773,2.5335083,-2.2368622,-3.8616028,-0.2980194,-0.8964081,-0.69444275
1635,A,676167325680375,2.1418457,-1.9614258,-3.6413574,-1.8439026,-0.21568298,-0.53863525
1635,A,676167345821976,3.3745117,-1.8140869,-3.9731598,-2.988968,-1.5500793,-0.6505585
1635,A,676167365963578,6.936035,-1.0971527,-3.841156,-3.3367157,1.5245972,-0.08073425
1635,A,676167386105179,11.00824,-0.46784973,-3.778534,-1.9368134,1.1947632,-0.5178528
1635,A,676167406246781,11.21666,-3.6807556,2.62471,-1.0506134,-0.81285095,-0.59999084
1635,A,676167426388382,8.455902,-13.33873,16.882202,-0.39707947,0.8306885,-0.27192688
1635,A,676167446529984,7.887848,-18.644135,17.845627,0.13789368,0.13607788,-0.15907288
1635,A,676167466671586,3.462555,-13.521942,8.922852,0.51982117,2.2625732,0.6818085
1635,A,676167486813187,0.41493225,-6.230942,-0.4857788,3.0486298,2.5121765,1.6208191
1635,A,676167506954789,-0.49847412,-3.7428894,-1.0523987,4.076477,-1.2950287,1.6264954
1635,A,676167527096390,-0.33218384,-7.8426666,-1.6998749,1.5953522,0.20973206,1.0082092
1635,A,676167547237992,1.3916321,-15.871887,1.5340729,-0.086364746,0.192276,1.353363
1635,A,676167567379593,5.867996,-17.35527,13.201141,1.5879822,-2.5842896,1.0349579
1635,A,676167587521195,10.331024,-8.283279,-7.19664,1.7739258,-1.7149811,0.30078125
1635,A,676167607662796,8.049179,-1.395752,-8.8246765,-0.08294678,-1.2050171,0.10568237
1635,A,676167627804398,8.404556,-1.929306,-7.272949,-1.315918,-1.3472748,-0.6937866
1635,A,676167647946000,9.101166,-4.3785706,-4.7682037,0.8466339,-1.41156,0.36360168
1635,A,676167668087601,9.415421,-8.316696,-3.5992126,-1.3353577,0.24916077,0.45916748
1635,A,676167688229203,8.834549,-11.470657,-2.590393,0.8549042,0.92814636,0.16551208
1635,A,676167708370804,7.067459,-11.22142,-2.507965,-1.1621399,-0.43984985,-0.25308228
1635,A,676167728512406,4.242157,-9.03244,-2.4439392,-2.721283,0.79074097,-0.52427673
1635,A,676167748654007,1.3355103,-7.4196167,-2.0056458,-2.265274,-0.7750397,-0.77041626
1635,A,676167768795609,-0.23503113,-8.005173,-1.0150146,-3.0994873,0.60769653,-0.49066162
1635,A,676167788937211,-0.54667664,-9.371765,0.38586426,-1.9537354,1.8396912,-0.33831787
1635,A,676167809078812,-0.30055237,-9.237488,1.0971375,-1.3384857,-0.2318573,-0.5150757
1635,A,676167829220414,-1.1053314,-9.188614,1.8138123,-1.1077576,0.7685547,-0.30844116
1635,A,676167849362015,-1.7877655,-9.892838,-0.32832336,0.043518066,1.3155365,-0.48539734
1635,A,676167869503617,-0.9794464,-10.301163,-1.8538513,0.007385254,0.55796814,0.42913818
1635,A,676167889645218,0.53019714,-10.998856,-1.1944427,2.307663,3.2039642,1.4597015
1635,A,676167909786820,3.2883453,-10.7938385,0.79278564,4.18573,-0.22930908,1.8816376
1635,A,676167929928421,6.1818237,-9.210541,6.8694916,2.1590424,-0.14067078,1.1809998
1635,A,676167950070023,4.935974,-10.677399,5.3593597,-0.47860718,1.5407104,1.1785126
1635,A,676167970211625,1.2033997,-13.635971,-2.8778534,1.5016632,-2.2002716,1.2688904
1635,A,676167990353226,-0.94696045,-13.654266,-3.3942566,1.8824463,-1.4477234,0.33425903
1635,A,676168010494828,-0.8415985,-13.055527,-1.0473938,0.35040283,-1.3197327,0.18196106
1635,A,676168030636429,1.5552673,-14.579666,1.9967957,-1.5553436,-1.7824249,-0.6915741
1635,A,676168050778031,3.0213928,-16.116287,7.460968,1.7684021,-1.7991943,-0.26013184
1635,A,676168070919632,4.335312,-15.460007,9.72699,-0.856369,-0.5366516,0.41741943
1635,A,676168091061234,6.3482056,-13.390839,7.331711,-0.6519623,1.7888336,0.17071533
1635,A,676168111202836,6.924179,-11.67067,1.0975037,0.28018188,-0.8370514,-0.22247314
1635,A,676168131344437,6.5802307,-11.277222,-3.6479645,-1.4412384,0.044433594,-0.78248596
1635,A,676168151486039,7.4950256,-12.293198,-4.5432587,-1.8166962,-0.6641693,-0.5299835
1635,A,676168171627640,8.439804,-13.149307,-4.962509,-3.2458038,-2.1003113,-0.75006104
1635,A,676168191769242,8.3927765,-12.927826,-4.690094,-2.927765,2.0045166,-0.1000824
1635,A,676168211910843,4.733719,-11.578217,-2.6405487,-2.0395355,0.82029724,-0.5005493
1635,A,676168232052445,-0.092178345,-9.889984,1.4142151,-0.68092346,-0.13452148,-0.49606323
1635,A,676168252194046,-0.71195984,-7.824341,1.7284241,-0.10942078,0.621109,-0.43611145
1635,A,676168272335648,0.9588318,-5.6987762,-1.59906,-0.15991211,1.6304321,0.37528992
1635,A,676168292477250,2.0041046,-4.0961456,-3.7993011,2.2431946,2.688385,1.5093536
1635,A,676168312618851,2.1124878,-2.8917236,-4.3055115,4.3410797,-0.26246643,1.9388275
1635,A,676168332760453,2.249649,-1.8052979,-4.07283,2.8791046,-0.55018616,1.2225952
1635,A,676168352902054,2.925232,-0.90512085,-3.6987,-0.3781433,1.3214111,1.0936127
1635,A,676168373043656,4.2756653,-0.2780304,-3.7342072,0.85466003,-1.674469,1.4480743
1635,A,676168393185257,6.0731506,0.17129517,-3.68013,1.9883881,-1.7174988,0.47961426
1635,A,676168413326859,8.43811,-0.6484833,-2.858963,0.71339417,-1.171341,0.11795044
1635,A,676168433468461,8.74321,-8.834427,5.667511,-1.2246399,-1.7319183,-0.70329285
1635,A,676168453610062,7.741455,-17.195267,16.081024,1.7403107,-1.5487518,0.0038452148
1635,A,676168473751664,5.7758026,-19.362946,8.163391,-1.0490723,-0.15429688,0.47479248
1635,A,676168493893265,1.926178,-10.516083,0.042144775,-0.2780304,1.8180695,0.26527405
1635,A,676168514034867,0.86253357,-4.568329,-4.5312805,-0.42370605,0.095336914,-0.18859863
1635,A,676168534176468,2.9729767,-7.2633667,-8.109955,-2.1910095,0.5719147,-0.83158875
1635,A,676168554318070,5.7514954,-13.14534,3.9932556,-2.068039,-0.5749054,-0.78518677
1635,A,676168574459671,6.8489075,-9.197708,3.5146332,-3.25177,-1.3817596,-0.9294281
1635,A,676168594601273,6.5216675,-3.3559418,-3.4847717,-3.0211334,2.1641846,-0.27896118
1635,A,676168614742875,7.551956,-4.048874,-5.7816925,-2.0635376,1.0545197,-0.5918579
1635,A,676168634884476,8.090988,-6.6857452,-5.6756744,-0.80114746,0.4920349,-0.34666443
1635,A,676168655026078,7.5135193,-9.171524,-5.033844,0.28230286,0.58151245,-0.5139923
1635,A,676168675167679,6.5921173,-10.972366,-3.8773346,-0.29196167,1.1105042,0.4994812
1635,A,676168695309281,5.9610596,-10.098618,-3.329193,2.0268707,3.1839142,1.5787811
1635,A,676168715450882,4.497223,-7.3893127,-5.132553,4.348709,-0.43188477,2.0753326
1635,A,676168735592484,-0.14723206,-7.278839,3.0498047,2.4571075,-0.759079,1.5939941
1635,A,676168755734086,-1.6352692,-8.886993,10.579086,-0.13911438,1.4335327,1.1984711
1635,A,676168775875687,2.0559692,-10.604996,2.6883392,1.4326324,-1.53862,1.4150391
1635,A,676168796017289,3.8311462,-9.173477,-1.4378204,1.9611664,-1.9835663,0.4569397
1635,A,676168816158890,3.3580017,-6.809906,-0.9533081,0.42349243,-1.2951355,-0.10090637
1635,A,676168836300492,2.3330994,-5.5382996,-1.6917877,-1.0488434,-1.4190674,-0.7220764
1635,A,676168856442093,2.9272003,-6.2938538,-1.373703,1.5005188,-2.0830078,-0.010894775
1635,A,676168876577398,3.1253662,-9.255325,-0.45881653,-1.1836395,0.35888672,0.4249115
1635,A,676168896718999,3.3317413,-11.417648,-1.6222229,-0.7170868,1.3968964,0.18005371
1635,A,676168916860601,4.937027,-11.2886505,-2.5759888,-0.0074920654,-0.7946167,-0.5913849
1635,A,676168937002203,5.7299957,-10.337326,7.090271,-1.7570953,0.10218811,-0.86743164
1635,A,676168957143804,3.436142,-12.360947,7.6584015,-2.4151611,-1.421936,-0.69436646
1635,A,676168977285406,2.152832,-12.855255,-2.8599396,-3.767456,-0.23867798,-0.4653015
1635,A,676168997427007,0.4951172,-12.8589325,-3.1556702,-2.1572113,1.9383087,-0.28120422
1635,A,676169017568609,0.88394165,-14.21637,0.08615112,-1.2489014,-0.69488525,-0.5711975
1635,A,676169037710210,-1.2451477,-17.516373,13.709747,-0.8876648,1.0733337,-0.20297241
1635,A,676169057851812,2.5862885,-14.460632,8.688751,-0.53541565,0.73313904,-0.29537964
1635,A,676169077993414,5.9962006,-12.778107,7.2985535,0.34472656,1.4152527,0.4876709
1635,A,676169098135015,6.2640076,-12.276489,-2.0289001,2.8194275,2.2899017,1.4815521
1635,A,676169118276617,6.577896,-12.599274,-5.2203064,4.174301,-0.4329834,1.8441772
1635,A,676169138418218,7.9537506,-13.639694,-5.129135,2.7361298,-0.6936035,1.2724609
1635,A,676169158559820,8.4552,-13.915726,-5.0532227,-0.064712524,1.7490845,0.99446106
1635,A,676169178701421,7.690445,-12.959015,-4.886551,0.993927,-1.8694916,1.3690796
1635,A,676169198843023,3.0940552,-10.774567,1.3730011,1.8535461,-1.7431183,0.3919983
1635,A,676169218984624,-0.094055176,-8.747787,2.6380005,0.6054535,-1.1201172,0.1028595
1635,A,676169239126226,0.54525757,-7.974655,-2.6410828,-1.1907501,-1.8982849,-0.57022095
1635,A,676169259267828,2.0341492,-6.1993866,-2.4185028,1.5241241,-1.687439,0.20077515
1635,A,676169279409429,2.5090027,-4.718811,-1.7718506,-1.1376038,-0.19132996,0.6338959
1635,A,676169299551031,2.5117035,-3.710022,-4.313263,-0.088760376,1.954361,0.040985107
1635,A,676169319692632,2.7487488,-2.957901,-4.4533386,-0.3531494,-0.28741455,-0.0362854
1635,A,676169339834234,4.5518494,-0.9571686,-4.5566406,-2.6686707,0.6263733,-0.66716003
1635,A,676169359975835,5.9811707,-0.20341492,-4.3058777,-2.2105865,-0.96276855,-0.70851135
1635,A,676169380117437,6.6341248,0.02230835,-3.133728,-2.9870148,-0.7307434,-0.93948364
1635,A,676169400259039,7.040741,-0.8040161,-1.8779602,-2.2810059,2.1192627,-0.22764587
1635,A,676169420400640,7.437958,-5.3334503,2.471405,-1.5811005,0.15386963,-0.64785767
1635,A,676169440542242,7.735382,-14.166977,19.246399,-1.5635529,0.3069458,-0.21057129
1635,A,676169460683843,3.7293396,-19.071243,17.382675,-0.08155823,2.0715485,-0.36582947
1635,A,676169480825445,-1.0677795,-15.4795685,5.1583405,-0.1959076,0.22747803,0.3276825
1635,A,676169500967046,-1.350174,-5.756378,-1.7340088,1.9993896,3.490387,1.4316406
1635,A,676169521108648,-1.523056,-4.739456,-2.9573517,4.219162,0.07489014,1.7556152
1635,A,676169541250249,2.227768,-7.7263947,-8.962738,2.4888306,-0.5290222,1.3674927
1635,A,676169561391851,7.0238953,-14.373032,-1.252121,-0.039505005,1.8302002,1.0692444
1635,A,676169581533453,16.046356,-16.80243,13.079102,0.83473206,-1.6044769,1.3060303
1635,A,676169601675054,8.965591,-6.105545,-9.913986,1.8907623,-2.230484,0.45507813
1635,A,676169621816656,6.8871307,-3.6086884,-7.521637,0.81988525,-0.9557648,0.041290283
1635,A,676169641958257,6.2383575,-3.6180267,-6.4256744,-1.1574554,-2.109253,-0.5737915
1635,A,676169662099859,7.541336,-5.0442505,-5.9860535,1.3612976,-1.6078949,-0.20858765
1635,A,676169682241460,7.9665833,-8.537384,-5.0612793,-1.226532,-0.6626587,0.7533722
1635,A,676169702383062,7.1967773,-10.535294,-3.5415497,-0.7844696,1.4664764,-0.026351929
1635,A,676169722524664,5.9937897,-9.834625,-2.8266296,2.2888184E-4,-0.23399353,-0.22859192
1635,A,676169742666265,4.4518127,-8.338852,-2.2315216,-2.2429047,0.6737213,-0.46420288
1635,A,676169762807867,2.4103394,-7.1529694,-1.8085327,-1.7981873,-0.85705566,-0.6382904
1635,A,676169782949468,0.1816864,-8.255768,-1.0929565,-2.5022736,-1.0678253,-0.95539856
1635,A,676169803091070,-0.50627136,-9.88353,0.6977234,-2.7637024,2.0284424,-0.15240479
1635,A,676169823232671,-0.705246,-9.253159,2.0582275,-1.8601227,1.3022614,-0.48680115
1635,A,676169843374273,0.24356079,-8.441635,0.90966797,-1.2469788,-0.5741272,-0.2480011
1635,A,676169863515874,1.4648895,-8.957108,-1.0826111,-0.19692993,1.7037506,-0.46614075
1635,A,676169883657476,1.6170349,-10.4785,-2.0493317,-0.26512146,0.71813965,0.090148926
1635,A,676169903799078,1.3903961,-11.343689,-0.2853546,1.5956573,3.0935974,1.2028961
1635,A,676169923940679,3.4492493,-10.702164,3.3160706,3.9207306,0.8845978,1.9633942
1635,A,676169944082281,5.80336,-10.296188,7.4817047,3.2294006,-0.88726807,1.5368347
1635,A,676169964223882,4.3076324,-12.635284,1.5283203,-0.039108276,1.0463257,1.1693878
1635,A,676169984365484,1.049057,-14.196472,-3.6606598,0.5685425,-1.035202,1.4530487
1635,A,676170004507085,-1.6713562,-13.072632,-2.1147614,1.8144836,-2.7029724,0.61605835
1635,A,676170024648687,-0.5453186,-12.469284,1.7396088,1.2190247,-0.9242859,-0.0057373047
1635,A,676170044790289,2.27417,-14.165298,5.472992,-0.88993835,-1.8214569,-0.46211243
1635,A,676170064931890,2.953949,-14.397705,7.698395,1.1404266,-1.4344788,-0.34191895
1635,A,676170085073492,3.3319855,-12.751663,8.4040985,-1.054306,-1.0653687,0.7374878
1635,A,676170105215093,5.019928,-12.115799,5.1229095,-0.68032837,1.3543549,0.22601318
1635,A,676170125356695,5.5436096,-12.865295,-1.4835052,0.66893005,-0.8003082,-0.08728027
1635,A,676170145498296,5.956558,-13.872742,-4.6904907,-1.7626953,1.457901,-0.50935364
1635,A,676170165639898,7.2213135,-14.762253,-5.405075,-1.885849,0.22480774,-0.79730225
1635,A,676170185781499,8.458206,-14.159668,-4.5720367,-1.911972,-0.6635895,-1.1374664
1635,A,676170205923101,7.481415,-12.179871,-3.4790192,-3.313858,-0.2531891,-0.77716064
1635,A,676170226064703,3.3085785,-9.630646,-2.197403,-2.4923859,2.4387817,-0.45581055
1635,A,676170246206304,-0.06524658,-7.7101746,-0.08670044,-1.9450226,-0.61161804,-0.371109
1635,A,676170266347906,-0.048828125,-6.901428,0.099990845,-0.1162262,0.89889526,-0.49694824
1635,A,676170286489507,1.4423828,-6.3225403,-2.0398254,0.3481903,-0.1281128,-0.17338562
1635,A,676170306631109,2.826126,-5.526016,-3.6508484,1.0441589,2.7241821,0.94221497
1635,A,676170326772710,4.049225,-4.1150665,-3.6268005,3.3113556,2.0356598,2.1340027
1635,A,676170346914312,3.9448395,-2.7112274,-3.12471,3.5381165,-0.6555023,1.7466125
1635,A,676170367055914,3.2858276,-2.319107,-3.5394897,0.5726166,0.36480713,1.016098
1635,A,676170387197515,4.1932983,-2.2997742,-3.6537323,0.36038208,-0.39518738,1.4449158
1635,A,676170407339117,6.547226,-1.6469574,-3.9934845,1.7172546,-2.3058167,0.91970825
1635,A,676170427480718,9.3823395,-0.8841553,-3.0509186,1.4481049,-1.2855377,0.23768616
1635,A,676170447622320,9.2382965,-5.8922424,4.683014,-0.8952484,-1.5257721,-0.49272156
1635,A,676170467763921,5.956772,-15.662689,15.504135,1.3855438,-1.5184631,-0.56430054
1635,A,676170487905523,1.4299774,-19.386353,11.870697,-0.58465576,-1.2693329,0.60209656
1635,A,676170508047124,-1.4068451,-11.363403,1.1242523,-0.8939972,1.775116,0.33346558
1635,A,676170528188726,-1.5341339,-5.606537,-2.6916351,0.22323608,-0.9004059,-0.13497925
1635,A,676170548330328,1.3777313,-6.1574554,-4.393387,-1.4328613,0.7154541,-1.0314178
1635,A,676170568471929,4.230942,-10.532257,-5.5789337,-1.9617767,-0.81900024,-0.7123108
1635,A,676170588613531,8.272644,-16.665146,8.587769,-3.1285858,-2.1335144,-0.92611694
1635,A,676170608755132,11.420319,-13.116913,4.678314,-2.094345,2.2456512,-0.15882874
1635,A,676170628896734,9.422302,-4.9159546,-6.015045,-1.343216,-0.3732605,-0.6101837
1635,A,676170649038335,7.9495087,-3.4846954,-8.634354,-1.361618,-1.4937744,-0.41133118
1635,A,676170669179937,7.4036407,-4.8229065,-6.7078247,-0.30186462,2.7029114,-0.41931152
1635,A,676170689321539,8.298691,-6.5532837,-5.599045,-0.23600769,1.0651703,0.38937378
1635,A,676170709463140,7.631485,-8.224991,-5.1681976,2.2061615,3.4174194,1.8379669
1635,A,676170729604742,6.2933655,-9.265854,-3.041626,4.2051697,0.0692749,1.7930298
1635,A,676170749746343,5.219803,-8.618515,-2.5417023,1.852005,0.47753906,1.2973328
1635,A,676170769887945,4.0229187,-7.2841034,-2.2962189,-0.5667877,0.488266,1.3600922
1635,A,676170790029546,2.1096954,-7.65802,-2.0605621,1.7775726,-1.936264,1.2497864
1635,A,676170810171148,0.6429901,-9.429352,-1.1490021,1.8600464,-1.8316193,0.50146484
1635,A,676170830312749,-0.23939514,-10.002274,0.62042236,0.33277893,-1.3598785,0.07095337
1635,A,676170850454351,-0.50250244,-10.116638,1.8218231,-1.2547913,-1.8486328,-0.6671448
1635,A,676170870595953,-0.22502136,-9.329529,0.4300537,1.4199066,-1.2518463,-0.15859985
1635,A,676170890737554,0.7088165,-9.827026,-0.4824829,-0.89907837,-0.4908142,0.45483398
1635,A,676170910879156,1.2053375,-10.461777,-0.87734985,-0.26063538,2.1470795,-0.047668457
1635,A,676170931020757,1.7874451,-10.862045,-0.9083252,-0.5496826,-0.38084412,-0.35328674
1635,A,676170951162359,4.9686737,-9.259094,3.9334106,-1.8152008,-0.300354,-0.6665497
1635,A,676170971303960,5.535721,-9.860733,6.033554,-1.6989441,0.047286987,-0.68447876
1635,A,676170991445562,4.052353,-12.470871,0.3216858,-2.918335,-0.35655212,-1.1046753
1635,A,676171011587164,0.1786499,-14.467285,-4.8947296,-3.2419586,0.9869232,-0.5675354
1635,A,676171031728765,-1.2381287,-12.842285,-2.3955078,-2.6525726,1.5599823,-0.6092529
1635,A,676171051870367,0.91415405,-12.521103,-0.93507385,-1.2931366,1.4968872,-0.048690796
1635,A,676171072011968,3.4493713,-14.509781,7.627228,0.88926697,0.07054138,-0.7036743
1635,A,676171092153570,2.6490479,-15.004364,9.513153,0.3418274,0.99160767,0.8139343
1635,A,676171112295171,2.2161102,-12.301468,7.3011627,2.423645,3.2855988,1.9568024
1635,A,676171132436773,4.663254,-12.215363,7.6381683,4.1522827,-0.21517944,1.8788147
1635,A,676171152578374,5.234909,-12.74707,-2.8479462,1.1100769,-0.49760437,1.5058899
1635,A,676171172719976,6.320938,-13.661392,-3.7738647,0.14395142,0.25349426,1.3874512
1635,A,676171192861578,7.1505585,-14.659805,-5.3964844,1.625,-1.7425537,1.1897583
1635,A,676171213003179,7.867813,-14.709564,-4.278839,1.4376984,-1.9036407,0.50709534
1635,A,676171233144781,8.99263,-13.220612,-3.828598,-0.24636841,-1.1690674,0.05833435
1635,A,676171253286382,5.071274,-9.595627,2.326416,-0.91259766,-1.1047516,-0.8928528
1635,A,676171273427984,1.1611328,-7.187973,0.34552002,0.49839783,-1.3923187,0.2546692
1635,A,676171293569585,0.8818207,-6.2312775,-3.2210999,-1.0988159,-0.29756165,0.36346436
1635,A,676171313711187,2.3408356,-4.8992004,-2.2251282,0.6219635,2.3083649,-0.0067443848
1635,A,676171333852789,2.643814,-4.1651306,-0.67056274,-1.1240845,-0.16619873,-0.43989563
1635,A,676171353994390,3.776062,-2.4716492,-3.564911,-1.8621979,1.63974,-0.9143524
1635,A,676171374135992,3.6503296,-1.0049133,-5.3947906,-1.0620117,-0.012054443,-1.1923065
1635,A,676171394277593,4.6922607,0.066711426,-4.3830566,-2.4735413,-1.4613647,-1.3680573
1635,A,676171414419195,5.274872,0.45289612,-2.885849,-3.217331,0.5960846,-0.78970337
1635,A,676171434560796,5.8092804,0.2716217,-1.994278,-2.5694275,1.2916718,-0.627655
1635,A,676171454702398,7.2105255,-1.4697723,-1.8214569,-1.3199921,0.9905853,-0.2911682
1635,A,676171474843999,7.9609833,-8.836319,1.8973846,0.9947357,-0.1427002,-0.59924316
1635,A,676171494985601,-0.07675171,-19.386353,16.814987,0.5111389,1.3882599,0.751297
1635,A,676171515127203,4.254059,-17.66745,2.106491,2.660614,2.729187,1.9682312
1635,A,676171535268804,1.5151825,-7.0367126,-1.0790405,3.9510498,-0.7005005,1.9196625
1635,A,676171555410406,1.6032715,-1.668396,0.39053345,0.52830505,0.52601624,1.6985474
1635,A,676171575552007,3.653366,-5.277893,-5.4072266,0.48109436,0.4201355,1.4404297
1635,A,676171595693609,5.297714,-13.26857,-5.018631,1.717041,-2.3339539,1.2669525
1635,A,676171615835210,9.388046,-16.081802,13.802841,1.5053558,-1.9921417,0.49916077
1635,A,676171635976812,7.606064,-5.0739746,-2.1739044,-0.10127258,-1.2626953,0.07369995
1635,A,676171656118414,7.589981,-4.0281677,-6.706085,-0.33692932,-1.2570953,-0.7897186
1635,A,676171676260015,7.2203217,-6.5092773,-6.512024,0.5637207,-1.5684052,0.39683533
1635,A,676171696401617,6.3371124,-8.236191,-5.5995026,-0.9014435,0.33462524,0.30577087
1635,A,676171716543218,6.0307617,-10.429382,-5.167816,0.27799988,0.6611328,0.057785034
1635,A,676171736684820,5.634186,-10.8302765,-4.2083282,-0.3688507,0.0045776367,-0.7995758
1635,A,676171756826421,4.5714417,-8.883835,-2.8793335,-1.4025726,0.39074707,-0.92988586
1635,A,676171776968023,2.553955,-6.8915405,-1.8535461,-1.7028656,-1.1864777,-0.88760376
1635,A,676171797109624,0.7952881,-6.0485077,0.092285156,-3.794876,-2.4525757,-0.55921936
1635,A,676171817251226,0.22042847,-7.8408966,5.3229523,-2.4420776,2.750061,-0.36228943
1635,A,676171837392828,3.0904999,-8.611572,2.1898193,-1.9724274,0.16113281,-0.6603546
1635,A,676171857534429,4.1385193,-7.4561768,0.26774597,-0.49575806,1.084198,-0.3812561
1635,A,676171877676031,2.7714844,-6.8218384,-1.2098083,0.3483429,0.10272217,-0.5663605
1635,A,676171897817632,2.0656433,-7.969467,-1.3701935,-0.13450623,1.2863464,0.5072937
1635,A,676171917959234,2.1868744,-10.315491,-0.38224792,2.3046112,3.1822205,1.7067261
1635,A,676171938100835,3.0892334,-11.424438,-0.3133545,3.9631653,-0.4620819,1.922287
1635,A,676171958242437,5.1131744,-10.100861,5.379608,0.98991394,0.4315338,1.4943237
1635,A,676171978384039,5.9736633,-10.567398,6.75177,0.053619385,0.7526245,1.2845764
1635,A,676171998525640,2.6392822,-13.474197,-2.218216,1.9423065,-1.9632721,1.2967529
1635,A,676172018667242,-0.019973755,-14.058334,-4.6389923,1.5229034,-1.8696289,0.6465454
1635,A,676172038808843,-1.3686066,-14.17894,-2.5908356,0.10067749,-1.3142242,0.10083008
1635,A,676172058950445,-0.7279358,-15.879105,4.70636,-0.7625885,-1.2704315,-0.761673
1635,A,676172079092046,1.6093445,-15.905975,12.385147,0.9721832,-1.4715271,0.02935791
1635,A,676172099233648,5.080368,-12.586777,11.486725,-0.76579285,-0.05329895,0.24597168
1635,A,676172119375249,6.252136,-11.361618,6.806793,-0.7644806,1.5363617,-0.029129028
1635,A,676172139516851,5.5533447,-12.387024,-1.1677399,-0.3559265,-0.40133667,-0.48544312
1635,A,676172159658453,5.4750977,-13.723877,-5.180191,-1.0598907,0.5658722,-0.81178284
1635,A,676172179800054,6.843628,-15.674561,-6.2603607,-0.8298187,-0.04949951,-0.79367065
1635,A,676172199941656,8.497864,-16.261292,-5.801193,-3.0052948,-3.021637,-0.7942047
1635,A,676172220083257,7.3555145,-14.6311035,-4.950348,-2.7315063,-0.18572998,-0.40449524
1635,A,676172240224859,3.17836,-10.525925,-0.7292328,-2.5507813,1.7910614,-0.51872253
1635,A,676172260366460,0.22167969,-6.7556305,1.9726563,-0.6161194,0.9582977,-0.23590088
1635,A,676172280508062,0.7176056,-5.601364,-0.39768982,0.45300293,-0.17687988,-0.7811432
1635,A,676172300649664,2.1983643,-4.914276,-1.6611176,0.08024597,1.8366699,0.47158813
1635,A,676172320791265,2.8440094,-4.138687,-2.1827698,2.457367,2.9435883,1.8027802
1635,A,676172340932867,3.2832336,-3.3281403,-3.9191742,4.1199036,-0.5662384,2.0533752
1635,A,676172361074468,3.345398,-2.3631134,-4.6681366,1.206131,0.13742065,1.4946747
1635,A,676172381216070,3.4922028,-1.7072144,-4.194763,-0.23771667,0.7038574,1.4048462
1635,A,676172401357671,4.7114716,-0.953537,-4.0622864,1.75531,-2.6065826,1.393692
1635,A,676172421499273,6.541275,-0.2531128,-4.078186,1.9889832,-1.9389038,0.52479553
1635,A,676172441640874,8.521057,-0.40663147,-3.0216675,0.31143188,-1.4234772,-0.0032043457
1635,A,676172461782476,9.4783325,-5.48143,1.4264069,-0.5352783,-1.4103851,-0.7649994
1635,A,676172481924078,6.91922,-15.559906,13.684219,0.9742584,-1.7840271,0.112457275
1635,A,676172502065679,4.222229,-19.386353,11.651047,-0.8070526,0.91464233,0.37350464
1635,A,676172522207281,-0.19064331,-11.416214,0.11872864,-0.020095825,0.4862213,0.12913513
1635,A,676172542348882,-1.1078186,-4.933548,-2.6042023,-0.9217377,1.1363068,-1.0570831
1635,A,676172562490484,1.7817383,-5.41304,-3.4934082,-1.9159698,0.58200073,-0.8786316
1635,A,676172582632085,4.573242,-10.448914,-5.0505066,-2.7319946,-2.9476776,-1.0570526
1635,A,676172602773687,8.78598,-17.248962,11.6232605,-2.7844238,-1.1384888,-0.33451843
1635,A,676172622915289,11.194626,-10.97197,3.0988007,-2.2682037,2.403656,-0.38414
1635,A,676172643056890,8.843033,-3.8413086,-6.6725464,-1.7388763,-0.81947327,-0.5743408
1635,A,676172663198492,6.657364,-3.170578,-8.103348,-0.29544067,1.2609406,-0.54525757
1635,A,676172683340093,6.1423187,-4.3884125,-6.787079,-0.28479004,0.09875488,-0.08598328
1635,A,676172703481695,7.3138885,-7.1610107,-5.6551514,0.4222107,3.9470825,1.2718658
1635,A,676172723623296,7.592697,-10.193314,-4.9407196,3.600647,1.5054779,2.0706177
1635,A,676172743764898,6.8018646,-10.227402,-4.301956,3.679123,-1.0883179,1.7476044
1635,A,676172763906499,4.9886627,-8.520477,-3.5812225,-0.23272705,1.6150665,1.2414551
1635,A,676172784048101,2.8023224,-6.5065002,-2.2393036,0.44534302,-0.59739685,1.7279816
1635,A,676172804189703,1.1971588,-6.7935944,-1.7672577,2.1828918,-2.0683289,0.8690491
1635,A,676172824331304,0.49725342,-9.59729,-0.7922821,1.2577667,-1.7048035,0.32336426
1635,A,676172844472906,-0.5460968,-11.039154,3.0983124,-0.65219116,-1.5999756,-0.059829712
1635,A,676172864614507,-0.32939148,-10.228424,4.1518707,0.45799255,-0.8181,-0.6468506
1635,A,676172884756109,0.66864014,-9.333145,0.42826843,-0.11242676,-1.2968445,0.23078918
1635,A,676172904897710,0.92466736,-9.896271,1.2794952,-1.1454468,1.3937988,-0.0030517578
1635,A,676172925039312,2.2887268,-10.399765,0.08958435,-0.15193176,0.8145294,-0.17826843
1635,A,676172945180914,2.638794,-9.879837,-1.3277588,-1.5003662,0.68914795,-0.8197632
1635,A,676172965322515,6.4806824,-7.621567,7.7460327,-2.1375732,-0.42095947,-0.83555603
1635,A,676172985464117,4.864563,-9.879089,3.9096985,-1.9343109,-1.0830231,-0.9923706
1635,A,676173005605718,3.4086456,-13.008408,-0.994751,-3.0051727,0.51802063,-0.729187
1635,A,676173025747320,0.2518921,-14.208633,-4.499237,-2.8979187,2.4914093,-0.52415466
1635,A,676173045888921,-1.7328339,-13.519714,-2.2441254,-2.5164948,0.1025238,-0.35232544
1635,A,676173066030523,0.6436157,-13.935318,-1.194519,-0.13591003,2.1385193,-0.40582275
1635,A,676173086172124,3.0929718,-14.446701,8.996765,0.0693512,0.39897156,0.24819946
1635,A,676173106313726,4.3100433,-13.624634,11.806595,1.617981,3.0147552,1.4511261
1635,A,676173126455328,5.4533386,-12.74025,6.688904,3.911316,0.7914429,2.2081146
1635,A,676173146596929,6.750046,-12.908157,2.905548,2.643509,-1.0740509,1.8394012
1635,A,676173166738531,6.0781555,-11.467239,-2.4730682,-0.3843994,1.9470978,1.2975311
1635,A,676173186880132,6.1426544,-12.708878,-1.8464966,1.0968475,-1.5524292,1.6146088
1635,A,676173207021734,8.253006,-13.697571,-4.4505005,1.8804932,-2.1768646,0.7545929
1635,A,676173227163335,10.686707,-15.254044,-6.352051,0.8042755,-1.8027954,0.07582092
1635,A,676173247304937,7.3316345,-12.930252,-0.31629944,-1.0845184,-1.6882782,-0.7194214
1635,A,676173267446539,1.781784,-8.911011,0.84924316,1.805542,-1.4434967,-0.40338135
1635,A,676173287588140,0.34672546,-7.3550415,-1.7450409,-0.692749,-0.5231476,0.29553223
1635,A,676173307729742,1.119339,-5.6376343,-2.2228088,-1.3392792,1.9389496,-0.11129761
1635,A,676173327871343,2.3035278,-3.9183197,-1.6322479,-0.20306396,-0.0874939,-0.12312317
1635,A,676173348012945,2.7916565,-2.706833,-3.3825836,-1.4122772,0.43608093,-0.81451416
1635,A,676173368154546,3.2660065,-1.8776703,-4.948395,-1.4173737,-0.11854553,-0.9321594
1635,A,676173388296148,4.2478943,-1.1762848,-5.207382,-2.6401978,-1.9266663,-0.93937683
1635,A,676173408437749,4.6092834,-0.50627136,-4.0802917,-2.9104614,-0.26460266,-0.29441833
1635,A,676173428579351,5.284256,-0.023544312,-2.4139862,-2.2347717,2.0907593,-0.70822144
1635,A,676173448720953,6.3109436,-0.119659424,-1.7300873,-2.217636,0.99339294,-0.27737427
1635,A,676173468862554,7.7151337,-2.9615479,-0.5463867,0.016921997,1.2736816,-0.55740356
1635,A,676173489004156,8.186966,-12.2574005,8.222137,0.109313965,0.79577637,0.2909851
1635,A,676173509145757,2.770752,-19.386353,17.115265,2.2329865,2.5813446,1.4649658
1635,A,676173529287359,3.3804321,-17.343994,3.0980072,3.9691162,0.32603455,2.1315918
1635,A,676173549428960,0.9195099,-4.7005463,-1.4098511,2.307602,-0.21609497,1.5593414
1635,A,676173569570562,2.9254608,-0.44670105,-0.7658539,-0.32963562,1.0980225,1.2819214
1635,A,676173589712164,3.661148,-5.608185,-4.6430054,1.2848816,-1.962204,1.5239868
1635,A,676173609853765,5.2739563,-15.850555,-0.9845276,1.871521,-1.8591766,0.8153076
1635,A,676173629995367,7.5187225,-17.037567,14.236816,0.47575378,-1.2785339,0.1324768
1635,A,676173650136968,7.8615723,-6.343567,-3.9238434,-1.0328827,-1.7080078,-0.7985382
1635,A,676173670278570,7.327652,-3.7264557,-6.348282,1.4651031,-1.6034393,-0.018325806
1635,A,676173690420171,7.0722656,-5.1819763,-5.9080963,-0.7825165,-0.14019775,0.3449707
1635,A,676173710561773,5.962677,-6.800461,-5.0879364,-0.41497803,1.2565765,0.016143799
1635,A,676173730703374,6.6240845,-9.29538,-4.6701202,-0.80355835,0.5322571,-0.42965698
1635,A,676173750844976,6.4145355,-10.859467,-3.796341,-2.1921234,0.923584,-0.9687042
1635,A,676173770986578,5.0193634,-9.83963,-3.3674927,-1.7479553,-0.8177948,-0.89649963
1635,A,676173791128179,3.4645386,-7.294388,-3.6187744,-2.5544739,-1.2996521,-1.0477295
1635,A,676173811269781,1.6431122,-6.3126984,-3.9360046,-2.8706818,1.2658844,-0.4633026
1635,A,676173831411382,0.24113464,-8.87616,3.4528809,-2.5531921,1.371048,-0.54574585
1635,A,676173851552984,1.2327881,-9.573868,8.926865,-1.3160553,1.1852112,-0.35351563
1635,A,676173871694585,3.6947784,-8.403595,0.89881897,0.22886658,0.2932434,-0.61369324
1635,A,676173891836187,3.3245392,-7.790695,-2.142105,0.36643982,2.3955994,0.7446747
1635,A,676173911977789,1.7483826,-8.647049,-1.059372,2.994156,2.0043945,2.1662445
1635,A,676173932119390,1.9229126,-9.568222,0.99609375,4.132202,-0.9920349,2.0846405
1635,A,676173952260992,2.0661774,-10.790451,-0.0054626465,0.12953186,0.6850891,1.6310577
1635,A,676173972402593,3.0910797,-10.490631,2.3942413,0.03437805,0.98857117,1.4046326
1635,A,676173992544195,5.663208,-8.969162,6.784149,1.659256,-2.5203705,1.2180786
1635,A,676174012685796,4.3941193,-11.102463,0.99902344,1.7001953,-1.6441498,0.32344055
1635,A,676174032827398,1.9401245,-12.9279175,-2.5759277,0.20906067,-1.5682068,-0.18382263
1635,A,676174052968999,-0.42990112,-12.915634,-2.0549774,0.5227814,-1.5557251,-0.79063416
1635,A,676174073110601,-0.431015,-13.322144,0.84802246,-0.354187,-1.2604218,0.6333771
1635,A,676174093252203,1.4888,-14.939484,5.900406,-0.72332764,1.6549988,0.3555298
1635,A,676174113393804,2.6629639,-14.690384,8.387405,0.46095276,0.1421051,-0.07270813
1635,A,676174133535406,3.6147156,-13.138947,8.271179,-1.5175781,2.1795502,-0.8452301
1635,A,676174153677007,4.8558044,-13.002136,5.231186,-2.4676666,0.19953918,-1.0852051
1635,A,676174173818609,5.2956696,-13.0494995,-2.2368927,-1.9662628,-1.2677307,-1.2840118
1635,A,676174193960210,5.66951,-13.327637,-4.6693726,-1.8749847,-0.48599243,-1.2569427
1635,A,676174214101812,7.322418,-14.666214,-4.472946,-2.8196259,1.840622,-1.0407104
1635,A,676174234243414,8.146744,-15.025589,-4.664795,-3.0062256,1.3550873,-0.55947876
1635,A,676174254385015,6.677704,-13.58252,-3.0246124,-2.215683,1.8242188,-0.3363495
1635,A,676174274526617,3.8492737,-10.122238,-0.1795044,0.6863861,0.14962769,0.016525269
1635,A,676174294668218,1.2669678,-7.4713135,-0.37878418,1.711792,1.5464935,1.395462
1635,A,676174314809820,0.7512512,-6.290924,-1.8683777,3.3225098,1.5872192,2.326645
1635,A,676174334951421,2.1342163,-4.8159637,-1.887085,2.80336,-0.5482178,1.9426575
1635,A,676174355093023,3.0570526,-3.7519226,-2.6318665,-0.2106781,2.0157623,1.2684326
1635,A,676174375234624,3.395584,-3.0667877,-3.9420166,0.8342285,-1.0870361,1.548584
1635,A,676174395376226,3.7151947,-2.3756256,-4.0211487,1.7235718,-1.6810303,0.8108063
1635,A,676174415517828,4.430893,-1.4616852,-3.8815308,0.62753296,-1.6498718,0.23658752
1635,A,676174435659429,5.770645,-0.5665436,-4.081772,-0.9760742,-1.7188873,-0.3256836
1635,A,676174455801031,7.358383,0.006500244,-3.4479065,0.46240234,-0.86239624,-0.3746338
1635,A,676174475942632,8.411774,-0.5440979,-1.6110687,-0.6494446,-0.59198,0.39134216
1635,A,676174496084234,8.993881,-5.037277,2.2529907,-0.38807678,1.5012817,-0.13562012
1635,A,676174516225835,7.39093,-14.962341,13.603989,-1.1375427,0.7471466,-0.20147705
1635,A,676174536367437,3.915329,-19.386353,13.92955,-1.667984,1.3665771,-0.9477997
1635,A,676174556509039,-0.39004517,-13.748154,2.518982,-1.1417999,1.2041626,-1.0328064
1635,A,676174576650640,-1.1280212,-7.894943,-0.4954071,-1.2803345,0.23709106,-1.2344818
1635,A,676174596792242,0.9315491,-8.246063,-2.911255,-1.9988403,-0.112579346,-1.1749268
1635,A,676174616933843,3.3530579,-12.025772,-4.5,-2.187622,0.40011597,-0.9447174
1635,A,676174637075445,7.2605896,-16.011307,11.664169,-2.2825928,1.180603,-0.5779419
1635,A,676174657217046,9.822754,-8.324432,4.213791,-3.1294403,1.2219543,0.0020141602
1635,A,676174677358648,8.15538,-1.5888062,-6.060364,-0.42744446,2.7565308,0.43797302
1635,A,676174697500249,6.729904,-3.1778412,-8.262314,2.5206146,1.6710358,1.708374
1635,A,676174717641851,7.594986,-5.9037476,-6.3906403,3.406601,0.24453735,2.3750763
1635,A,676174737783453,8.173828,-8.999207,-5.0477295,1.7846832,-0.061935425,1.6737213
1635,A,676174757925054,7.982605,-10.445435,-4.2962036,0.060409546,2.1968536,1.3821259
1635,A,676174778066656,6.734253,-9.33226,-3.543747,1.820404,-2.8651886,1.4032288
1635,A,676174798208257,4.473175,-7.7457275,-2.7400665,2.2616272,-1.4337463,0.7491913
1635,A,676174818349859,2.552719,-6.464508,-1.9821472,0.6470642,-1.222229,0.31401062
1635,A,676174838491460,0.2760315,-8.927948,-0.79515076,-0.1864624,-1.60495,-0.60180664
1635,A,676174858633062,-1.7820435,-11.808762,4.222,0.792984,-1.2904816,-0.54039
1635,A,676174878774664,1.7837677,-9.535446,1.0421295,-1.1211853,1.3225708,-0.09378052
1635,A,676174898916265,1.6832886,-7.5700226,-0.15254211,-1.5785065,1.213028,-0.47631836
1635,A,676174919057867,1.223465,-7.3111877,-1.8453674,-0.85250854,0.25006104,-0.7511749
1635,A,676174939199468,1.5421295,-8.577408,-0.7882385,-0.69018555,-0.07571411,-1.4128418
1635,A,676174959341070,2.1256714,-10.157089,0.6929779,-0.6044464,-1.8336029,-1.1806335
1635,A,676174979482671,2.7566986,-11.341629,-1.093277,-2.9970856,-3.6536713,-0.78855896
1635,A,676174999624273,5.394623,-9.081589,4.3138275,-2.29068,1.5638733,-0.25883484
1635,A,676175019765874,5.4409485,-9.360397,5.2465363,-2.1665955,0.8747711,-0.1947937
1635,A,676175039907476,3.7678528,-11.927353,0.1335144,-1.0374908,1.320282,-0.3796692
1635,A,676175060049078,1.1830444,-14.012939,-4.1412354,-0.22761536,0.7716675,-0.20411682
1635,A,676175080190679,-1.9720917,-13.979797,-3.2742615,0.67962646,1.7235565,0.9284363
1635,A,676175100332281,-1.2961273,-13.777649,-1.1178741,2.8886566,2.1499481,2.0946198
1635,A,676175120473882,1.7358551,-15.09523,13.154663,3.230774,0.20201111,1.6902466
1635,A,676175140615484,3.3678741,-13.96347,6.7664337,0.58158875,0.20500183,1.4433441
1635,A,676175160757085,4.2055206,-12.300034,7.961548,0.15605164,0.34950256,1.4054718
1635,A,676175180898687,5.909363,-13.041595,3.3439178,2.5399475,-2.0132294,1.2154541
1635,A,676175201040289,5.1026,-13.011063,-3.184372,1.2194366,-1.302185,0.84350586
1635,A,676175221181890,6.4580383,-14.559494,-3.636963,-0.542572,-1.1389465,0.03213501
1635,A,676175241323492,9.11554,-15.720764,-4.0781097,-0.6161041,-0.72610474,-0.75686646
1635,A,676175261465093,9.559677,-15.955704,-5.8842926,-0.3929901,-1.316742,-0.12414551
1635,A,676175281606695,8.299835,-10.968567,-0.2884674,-0.8842468,1.483963,-0.044204712
1635,A,676175301748296,3.0131836,-7.7448273,1.6942749,0.03526306,0.8567047,-0.08074951
1635,A,676175321889898,-0.28955078,-6.891327,-1.293335,-1.7213745,1.5565796,-0.98184204
1635,A,676175342031499,0.8598938,-6.402054,-4.063858,-2.1219788,1.0153656,-1.2654877
1635,A,676175362173101,1.8917084,-4.6817017,0.49331665,-1.4493866,-0.17115784,-1.2917938
1635,A,676175382314703,3.39534,-3.2832184,-2.2773438,-1.3711548,-1.3454437,-1.5552979
1635,A,676175402456304,3.0258026,-2.344925,-5.247452,-2.2765045,-0.15141296,-1.1596069
1635,A,676175422597906,3.9284515,-1.429657,-5.1441193,-2.186554,0.5702057,-0.4189148
1635,A,676175442739507,4.959198,-0.79048157,-3.8493195,-1.9398041,0.4499359,-0.10575867
1635,A,676175462881109,5.9480133,0.24925232,-3.2900848,0.5015869,1.3727112,-0.037246704
1635,A,676175483022710,6.157074,0.486969,-2.6100006,2.4657135,1.571579,1.3136597
1635,A,676175503164312,6.035202,-1.73732,-1.2116699,3.5982819,0.5670471,2.2562408
1635,A,676175523305914,6.909195,-7.985794,3.4802856,2.2854004,-0.188797,1.6981354
1635,A,676175543447515,1.1000977,-19.386353,17.526321,-0.32635498,1.9533081,1.3485413
1635,A,676175563589117,3.0038757,-18.466232,5.285782,0.18527222,-1.8180084,1.8142548
1635,A,676175583730718,-0.057235718,-11.330917,-0.7651062,2.701355,-2.698639,0.8729706
1635,A,676175603872320,0.4790802,-2.562683,-1.173706,2.0105133,-0.88500977,0.3759613
1635,A,676175624013921,1.7911682,-3.5295105,-5.7121735,-0.90405273,-1.5927124,-0.44981384
1635,A,676175644155523,5.849777,-9.758743,-5.6561127,-0.116500854,-1.1436768,-0.5864258
1635,A,676175664297124,10.6688385,-17.860382,15.205307,-1.4945831,-0.05596924,0.71250916
1635,A,676175684438726,9.426346,-9.547852,-3.465332,-0.57273865,1.9040222,0.009246826
1635,A,676175704580328,6.869385,-3.0686493,-7.055496,-0.09587097,0.06060791,-0.053985596
1635,A,676175724721929,6.8671417,-3.7310333,-6.578186,-2.0787354,3.1444397,-0.9576111
1635,A,676175744863531,6.1664886,-5.0297394,-5.016693,-2.2928314,1.7896423,-1.4618225
1635,A,676175765005132,6.841736,-7.6808624,-4.503784,-1.2675323,0.08854675,-1.7280731
1635,A,676175785146734,6.933243,-10.475616,-3.7960968,-0.4837799,-2.5550995,-1.8232117
1635,A,676175805288335,5.7507477,-10.594543,-3.3360748,-2.0048676,-2.4034119,-1.0192871
1635,A,676175825429937,4.3858795,-8.069946,-2.9627838,-2.6949158,2.0205994,0.1287384
1635,A,676175845571539,2.7153168,-5.7476196,-3.378708,-2.1864624,1.544281,0.42137146
1635,A,676175865713140,1.3275604,-6.6358337,-3.6469269,0.8517761,1.6562653,0.57073975
1635,A,676175885854742,0.29319763,-9.804001,2.122528,2.603485,2.608017,1.8883057
1635,A,676175905996343,1.314209,-9.33754,5.599777,3.347046,0.5745239,1.9497681
1635,A,676175926137945,2.0368805,-8.508713,2.7808533,1.0578308,0.70918274,1.694397
1635,A,676175946279546,2.5077515,-8.4552,-1.6080933,0.3648529,1.9473114,1.4786072
1635,A,676175966421148,2.4322815,-9.277756,0.3010559,2.3040924,-1.4239655,1.4042969
1635,A,676175986562749,2.67807,-10.314346,1.0382233,2.0562744,-0.9918518,0.9990082
1635,A,676176006704351,4.556427,-9.758804,2.2996063,0.46115112,-1.2349243,0.91596985
1635,A,676176026845953,5.8974915,-9.418198,4.722931,-1.1632385,-0.8164215,0.16793823
1635,A,676176046987554,3.7104034,-12.0295105,-1.1072998,0.30055237,-1.5953674,-0.5135498
1635,A,676176067129156,1.0889435,-14.201477,-3.8426056,-0.88998413,0.13183594,-0.2462616
1635,A,676176087270757,-1.2234039,-15.093658,-1.4527283,-1.9599152,-0.89112854,-1.4644318
1635,A,676176107412359,-0.8088379,-15.592041,2.9398956,-2.0758667,2.4101563,-0.3574524
1635,A,676176127553960,0.96214294,-16.310501,5.597473,-1.5791168,0.38119507,-1.5699615
1635,A,676176147695562,2.0928497,-15.274231,6.8881836,-0.5733185,-0.7946472,-1.7031403
1635,A,676176167837164,3.6636963,-13.458923,9.636459,-1.8665314,-2.6138306,-1.3602753
1635,A,676176187978765,5.465271,-12.2395935,5.7355194,-2.2680511,0.19384766,-0.26359558
1635,A,676176208120367,5.418579,-12.220993,-3.1021118,-1.6874695,1.0457306,-0.06741333
1635,A,676176228261968,5.8210297,-13.321121,-4.5023956,-2.325821,0.8047638,-0.08201599
1635,A,676176248403570,8.167847,-15.108963,-4.8532257,-0.89945984,2.1498566,-0.24230957
1635,A,676176268545171,9.860107,-15.491486,-5.3638153,0.49624634,1.501831,0.46424866
1635,A,676176288686773,9.340271,-13.37915,-4.8838196,2.4528656,2.5034485,1.6236267
1635,A,676176308828374,5.815048,-8.668503,-1.7439117,2.925644,0.9062958,2.1472778
1635,A,676176328969976,1.573822,-5.1890106,1.3938599,1.4509125,0.7346649,1.7612915
1635,A,676176349111578,0.3428955,-5.1122284,0.11592102,0.29057312,2.3118134,1.08992
1635,A,676176369253179,1.4963837,-4.915863,-1.9641266,0.8943176,-2.1387482,1.3477325
1635,A,676176389394781,2.9917908,-3.6018524,-3.0359192,1.9154968,-1.8529053,0.5963745
1635,A,676176409536382,3.585022,-2.3287354,-3.934616,0.6363678,-0.7181244,0.17112732
1635,A,676176429677984,3.8597565,-1.2861023,-4.6077576,-1.2552643,-2.0245514,-1.0050812
1635,A,676176449819585,4.781143,-0.48358154,-4.734024,1.3681641,-1.6554871,-0.68296814
1635,A,676176469961187,5.8043823,0.25506592,-3.9115295,-0.8669586,-0.7819824,0.4363098
1635,A,676176490102789,6.940811,0.70925903,-2.84581,-1.0841064,0.73506165,-0.15005493
1635,A,676176510244390,7.952423,-1.6056671,-1.4122772,0.09687805,-0.073150635,0.049484253
1635,A,676176530385992,7.1022797,-11.742416,11.559082,-0.70578,1.6807098,-0.64712524
1635,A,676176550527593,4.4162903,-18.525406,19.246399,-1.3914185,1.8381195,-0.9133911
1635,A,676176570669195,1.2277527,-18.2639,7.035431,-1.8117828,-0.82369995,-1.2955627
1635,A,676176590810796,-0.18737793,-9.521927,-1.1150818,-1.9299927,-1.9433136,-0.70783997
1635,A,676176610952398,1.7629852,-4.1024475,-0.6754761,-1.3406525,-0.6077881,-1.1716461
1635,A,676176631093999,3.8884735,-6.8902893,-6.040329,-3.3693848,-0.58555603,-0.47128296
1635,A,676176651235601,7.3104553,-15.1259,-0.53570557,-1.6910553,4.853882,-0.07652283
1635,A,676176671377203,12.0416565,-15.310165,3.7550354,1.2000732,-1.019455,-0.031021118
1635,A,676176691518804,9.977524,-5.5057526,-2.938507,1.6734924,0.39372253,1.5280304
1635,A,676176711660406,7.3935394,-2.614746,-7.0761566,2.9591064,2.1014557,2.3972473
1635,A,676176731802007,6.943344,-3.692398,-7.218872,2.5013428,0.6855011,1.4012451
1635,A,676176751943609,7.571747,-5.8496857,-5.550232,0.57795715,0.4819641,0.9777374
1635,A,676176772085210,8.154083,-8.91304,-4.0463104,1.3863678,-0.78878784,1.0912476
1635,A,676176792226812,7.566452,-10.378693,-3.4239044,2.1733856,-1.4215088,1.072937
1635,A,676176812368414,5.700638,-9.300278,-3.186966,0.19694519,-1.4555054,0.17529297
1635,A,676176832510015,3.9399567,-7.0731506,-2.7418365,-1.0486298,-1.8200378,-0.9119568
1635,A,676176852651617,2.3662567,-5.9162903,-3.1365051,1.7596283,-1.7673492,-0.86994934
1635,A,676176872793218,0.23275757,-9.065201,-1.5097198,-0.90786743,-0.0026550293,0.30825806
1635,A,676176892934820,-0.37512207,-11.131653,1.0968018,-1.0592651,2.1176605,0.5372467
1635,A,676176913076421,0.6531677,-10.003586,3.1653595,-0.530426,1.0828705,-0.7863159
1635,A,676176933218023,1.3157196,-8.511398,2.3716125,-1.1363068,0.35849,-1.2293396
1635,A,676176953359624,1.2351227,-7.9522095,-2.1125183,-2.2495422,-2.97464,-0.819046
1635,A,676176973501226,0.65008545,-9.817413,-0.5132446,-2.0341644,-2.0596466,-0.6830292
1635,A,676176993642828,1.338211,-11.388275,-0.33039856,-1.6092682,0.67503357,-0.13568115
1635,A,676177013784429,5.649643,-8.823029,7.9372406,-1.4306641,-0.35646057,-0.48788452
1635,A,676177033926031,5.5203705,-9.794815,5.48497,-1.1503754,0.7525482,-0.5352783
1635,A,676177054067632,3.9493103,-12.783997,-1.7453156,-0.24272156,1.1405182,-0.4253235
1635,A,676177074209234,0.43099976,-14.983307,-4.888138,-0.114151,1.625473,0.45889282
1635,A,676177094350835,-2.913269,-14.681213,-3.7277985,2.4889526,3.219925,1.9122162
1635,A,676177114492437,-0.9766388,-14.096237,0.610672,4.387451,-0.591568,2.0338593
1635,A,676177134634039,2.7763062,-15.193527,10.489227,1.5864105,-0.41555786,1.2050781
1635,A,676177154775640,2.6717224,-15.115173,5.579712,-0.34065247,1.3908691,1.2159576
1635,A,676177174917242,3.1350708,-13.143768,8.607407,1.5642242,-2.8976135,1.1480713
1635,A,676177195058843,5.1854706,-13.305817,4.3952026,1.9128876,-1.2927704,0.40711975
1635,A,676177215200445,5.7138367,-12.629669,-2.48938,0.26739502,-1.3863983,-0.044036865
1635,A,676177235342046,5.6555023,-14.218704,-2.542801,-0.9060669,-1.5731812,-0.6889496
1635,A,676177255483648,8.276581,-15.603836,-4.5845184,1.3965607,-1.9399261,-0.06718445
1635,A,676177275625249,10.554138,-16.40274,-7.0500183,-1.3353729,0.11653137,0.7227936
1635,A,676177295766851,11.796707,-11.23056,-0.39649963,0.134552,1.8175659,0.32278442
1635,A,676177315908453,4.8099213,-7.733719,1.2551727,0.047607422,0.20829773,-0.35307312
1635,A,676177336050054,0.10746765,-6.0341644,-2.2720032,-1.6686249,1.4352875,-0.80189514
1635,A,676177356191656,1.0825043,-5.8695526,-3.7603302,-2.1711578,0.08151245,-0.72802734
1635,A,676177376333257,1.8598175,-4.648285,-0.35902405,-2.021698,-0.8987732,-0.9299774
1635,A,676177396474859,2.5202484,-3.49086,-2.9609833,-2.0056458,-0.94070435,-1.003418
1635,A,676177416616460,4.1277924,-1.9515228,-4.373062,-2.7562866,0.102890015,-0.77534485
1635,A,676177436758062,4.38678,-0.9668274,-5.14386,-3.2121582,2.6144867,0.10739136
1635,A,676177456899664,4.3488617,-0.44195557,-4.5008545,0.34095764,1.8572235,-0.4817047
1635,A,676177477041265,5.1933594,0.58151245,-3.2490845,0.368515,0.22543335,0.46903992
1635,A,676177497182867,6.255722,0.9772186,-2.4838104,2.5005646,2.8674927,2.112732
1635,A,676177517324468,7.276825,-1.9168091,-1.0120087,4.52063,-0.7817688,2.1989288
1635,A,676177537466070,6.8746796,-10.31691,8.044952,1.0631104,-0.41249084,1.4047241
1635,A,676177557607671,0.38624573,-19.386353,17.450699,-0.4457245,2.0856323,1.3109436
1635,A,676177577749273,2.9641266,-17.917435,3.543686,1.3724213,-2.9116516,1.1523285
1635,A,676177597890874,1.6582794,-7.560852,-0.5993805,1.5101166,-1.5592499,0.4149933
1635,A,676177618032476,3.825714,-3.0931244,0.2592926,0.15327454,-1.715622,-0.15449524
1635,A,676177638174078,5.467499,-6.3829193,-4.2422485,-0.51023865,-1.6554871,-0.92004395
1635,A,676177658315679,5.8179016,-13.519272,-3.4168549,1.1428528,-1.4461212,0.14289856
1635,A,676177678457281,8.144714,-14.567871,12.493011,-1.1654968,0.014678955,0.6013031
1635,A,676177698598882,8.623352,-4.6623993,-3.257019,0.7259369,1.7067871,0.22000122
1635,A,676177718740484,8.482941,-4.4686127,-6.29953,-0.63960266,0.42338562,-0.43247986
1635,A,676177738882085,7.9010773,-5.6957397,-6.2334747,-2.2593079,1.9046936,-0.8511963
1635,A,676177759023687,6.4440002,-6.779175,-5.046219,-2.0005646,-0.35055542,-0.87942505
1635,A,676177779165289,6.4199524,-8.904587,-4.611557,-1.4929504,-1.5339813,-1.0663452
1635,A,676177799306890,5.8936005,-10.622101,-4.507065,-2.3701782,-0.37106323,-1.0300903
1635,A,676177819448492,5.168503,-9.962952,-3.8530579,-2.6218262,1.7991333,-0.4917755
1635,A,676177839590093,3.6978607,-7.69545,-3.947113,-3.1867065,1.5135498,-0.09614563
1635,A,676177859731695,1.497467,-6.895462,-2.1782837,0.37661743,2.0925293,-0.46250916
1635,A,676177879873296,-1.5771484,-9.580292,6.805176,1.3179169,0.3085327,0.822525
1635,A,676177900014898,0.66352844,-8.901215,5.033676,3.119278,2.7988434,2.5874481
1635,A,676177920156499,3.6091309,-6.827362,-0.7206116,4.5606384,-1.0752869,1.9358826
1635,A,676177940298101,2.174942,-7.6146393,-2.8179474,0.048095703,-0.16235352,1.1066284
1635,A,676177960439703,1.5349274,-9.386154,0.061538696,-0.096710205,1.1342468,1.5039063
1635,A,676177980581304,2.6530914,-10.526062,1.5396271,1.7106323,-2.9468536,0.790329
1635,A,676178000722906,3.3932953,-10.471039,2.2580566,1.0945282,-1.7013397,0.025161743
1635,A,676178020864507,4.4735413,-8.966187,3.2473907,-0.03465271,-1.6484375,-0.4306183
1635,A,676178041006109,4.5067444,-10.148422,-0.6748657,1.1237335,-1.8859253,-0.8038025
1635,A,676178061147710,2.7786865,-12.868561,-2.8291779,-0.51976013,-1.1942596,0.7120819
1635,A,676178081289312,-0.22718811,-14.282013,-1.5527802,-0.7463684,1.9438782,0.32688904
1635,A,676178101430914,-1.6323853,-14.367615,1.7367554,0.7918396,-0.1481781,0.10592651
1635,A,676178121572515,0.19642639,-14.909119,3.8312378,-0.75346375,0.6010132,-0.80415344
1635,A,676178141714117,2.066269,-15.568024,5.305313,-2.0384216,0.7467499,-0.5916443
1635,A,676178161855718,2.2418976,-14.559113,7.347595,-2.3577423,-1.1879578,-0.9843445
1635,A,676178181997320,3.6743927,-13.077408,8.029205,-2.7509766,-1.9963226,-0.893219
1635,A,676178202138921,5.3775024,-12.321579,2.1707458,-2.2469788,0.96577454,-0.44091797
1635,A,676178222280523,5.8704376,-12.971542,-3.9059296,-2.193161,-0.10015869,-0.277771
1635,A,676178242422124,6.504471,-14.779205,-3.5891266,-0.5378723,2.1518097,-0.28292847
1635,A,676178262563726,8.371643,-16.190796,-3.7339325,0.72369385,0.059143066,-0.33451843
1635,A,676178282705328,10.558044,-15.4631195,-4.343857,0.4758606,2.2138824,0.93507385
1635,A,676178302846929,10.104858,-10.909637,-1.4096069,2.5419922,3.1942902,2.40654
1635,A,676178322988531,5.2357025,-6.3890533,1.2913818,3.9712982,-0.52163696,1.6350708
1635,A,676178343130132,0.6926422,-5.6727905,-2.4848633,0.6423187,-0.049362183,0.8457184
1635,A,676178363271734,0.288208,-5.877762,-4.0354614,0.2709961,-0.86779785,1.1972351
1635,A,676178383413335,1.6932373,-4.9013824,-1.3006134,1.9542694,-2.2045135,0.6196289
1635,A,676178403554937,2.2886658,-3.5329285,-2.3148499,0.8414459,-1.4381256,0.2820282
1635,A,676178423696539,2.7593384,-2.2578278,-4.363693,-0.76371765,-1.4265137,-0.28640747
1635,A,676178443838140,3.2761383,-1.1689453,-4.1971283,0.6398163,-0.9098511,-0.4527588
1635,A,676178463979742,3.8559875,-0.34158325,-4.3749847,-0.10646057,-1.5092163,0.41775513
1635,A,676178484121343,5.219925,0.22351074,-4.1913605,-0.6823425,1.1415253,0.35301208
1635,A,676178504262945,6.719681,0.17904663,-2.957718,0.21122742,0.19335938,0.016616821
1635,A,676178524404546,7.7238464,-2.9345093,-0.5986786,-1.138504,1.0056,-0.78167725
1635,A,676178544546148,6.547867,-13.667053,11.8246,-1.7460022,0.25578308,-0.60092163
1635,A,676178564687749,4.2382507,-19.386353,17.512222,-2.5518951,-2.68219,-0.9255066
1635,A,676178584829351,2.1714172,-16.491516,6.8408966,-2.3468018,-1.591568,-0.3441925
1635,A,676178604970953,0.5046234,-8.120544,-0.22084045,-1.8786163,1.6584015,-0.1605072
1635,A,676178625112554,-0.108551025,-4.2286224,-0.5378876,-1.8525848,-0.3899994,-0.3023529
1635,A,676178645254156,1.6548615,-6.642456,-6.6964264,-0.6695404,2.1598969,-0.33894348
1635,A,676178665395757,6.442322,-13.406601,-0.7807007,0.14100647,0.8491821,-0.20639038
1635,A,676178685537359,12.856659,-15.827103,4.5986633,0.4296112,2.7560272,0.89216614
1635,A,676178705678960,10.083694,-6.9748383,-3.4884949,3.488556,1.8064423,2.293991
1635,A,676178725820562,6.4627686,-2.947235,-8.022156,4.0932617,-0.9102783,1.4905548
1635,A,676178745962164,6.122925,-3.705124,-7.1609955,0.39042664,-0.13122559,0.92349243
1635,A,676178766103765,7.278885,-5.7833557,-5.86705,0.29335022,-0.21670532,1.2017517
1635,A,676178786245367,7.957855,-9.142105,-4.746689,2.0571136,-2.3957825,0.6499481
1635,A,676178806386968,7.386139,-11.048691,-3.9922485,1.4152832,-1.3967285,0.13543701
1635,A,676178826528570,5.9826965,-9.966309,-2.6651611,-0.45388794,-1.4832153,-0.3390808
1635,A,676178846670171,4.3824463,-7.763489,-1.9096069,1.1095581,-1.354248,-0.4743805
1635,A,676178866811773,2.343048,-6.296097,-1.6502686,-0.30046082,-1.0477448,0.6023712
1635,A,676178886966614,-0.57902527,-8.974899,0.7534485,-1.7176819,1.5478058,0.17251587
1635,A,676178907108216,-1.9659424,-10.812622,4.516815,-0.31880188,0.8225708,0.35116577
1635,A,676178927249818,2.2442322,-8.476761,1.8501587,-0.97595215,0.65979004,-0.4677124
1635,A,676178947391419,2.5138702,-6.8706207,0.022201538,-1.7593231,1.5424805,-0.6908264
1635,A,676178967533021,1.8638153,-7.6668396,-2.465042,-2.125061,-0.65393066,-1.1787567
1635,A,676178987674622,1.2993011,-9.377747,-1.1959229,-2.7528229,-1.8952484,-0.8308563
1635,A,676179007816224,1.8383331,-11.337479,-0.33235168,-2.46875,1.1284332,-0.81311035
1635,A,676179027957825,2.6033936,-11.544708,0.21723938,-2.7599487,1.719635,-0.28800964
1635,A,676179048099427,6.948181,-8.669876,10.355316,-0.6503296,1.1348267,-0.33439636
1635,A,676179068241029,5.02536,-11.4704895,2.430832,0.66241455,-0.1377716,-0.05731201
1635,A,676179088382630,1.2817993,-14.207733,-4.638214,1.0613251,2.5577545,1.1662903
1635,A,676179108524232,-1.5778503,-14.311569,-4.519806,3.8755188,1.1243744,2.275528
1635,A,676179128665833,-1.4709625,-13.696838,-2.2623901,4.196686,-1.6098328,1.5494995
1635,A,676179148807435,0.87275696,-15.700272,12.644409,0.22007751,0.49057007,0.9221802
1635,A,676179168949036,2.767456,-15.405441,7.4480133,0.27371216,-0.25624084,1.3466644
1635,A,676179189090638,5.12883,-12.881638,8.277725,1.9982452,-2.7218933,0.6733551
1635,A,676179209232239,6.1084595,-12.428894,6.13649,1.0680847,-1.0399323,0.010787964
1635,A,676179229373841,5.483963,-12.131607,-3.43927,-0.7005005,-1.8797302,-0.52171326
1635,A,676179249515443,6.1322937,-13.5221405,-4.350052,1.5805664,-1.7397766,-0.34718323
1635,A,676179269657044,7.0737457,-15.028366,-4.9422455,-1.2443085,-0.85035706,0.8538971
1635,A,676179289798646,9.03331,-15.9466095,-5.196472,-1.0504303,1.6800842,0.10153198
1635,A,676179309940247,10.27652,-13.18515,0.4465332,0.14897156,-0.56677246,-0.050094604
1635,A,676179330081849,4.34198,-8.695145,2.5167236,-2.0098724,1.8520203,-0.47532654
1635,A,676179350223450,1.3021088,-6.188965,-0.8069763,-1.9964905,1.4432068,-0.8568573
1635,A,676179370365052,0.6290283,-6.4825287,-5.0127106,-1.3871765,-0.17922974,-1.0644836
1635,A,676179390506654,1.8789215,-5.2456512,-3.8539581,-1.3085327,-1.4306335,-1.0737
1635,A,676179410648255,2.5143127,-3.7200012,-1.3323212,-2.3851318,-0.7763672,-0.8121948
1635,A,676179430789857,2.9608917,-2.906433,-3.9348145,-3.4851227,1.3378906,0.087509155
1635,A,676179450931458,3.24411,-1.9056091,-4.3647766,-1.3722382,2.8368073,0.057159424
1635,A,676179471073060,3.8320007,-0.97229004,-4.6411133,0.8588257,-0.4960785,0.09072876
1635,A,676179491214661,4.81958,-0.030075073,-4.2346497,2.322586,2.7593384,1.631958
1635,A,676179511356263,6.371994,0.26930237,-3.3588715,4.1913147,-0.105163574,2.0416412
1635,A,676179531497864,7.5563354,-0.41085815,-1.5577698,1.9169006,-0.39337158,1.2460938
1635,A,676179551639466,8.155029,-6.3345184,2.8173218,-0.21170044,1.5617676,1.1080475
1635,A,676179571781068,3.4527435,-19.386353,18.238174,1.5368805,-2.3128357,1.2300568
1635,A,676179591922669,4.299118,-18.611313,9.038605,1.512146,-1.3134613,0.5403595
1635,A,676179612064271,0.34960938,-11.97551,-0.4464264,0.20968628,-1.4834595,-0.013031006
1635,A,676179632205872,-0.642746,-4.5407104,-1.4859924,-0.04336548,-1.7035828,-0.7470093
1635,A,676179652347474,-0.42933655,-6.0253296,-1.4757233,1.0826416,-1.939148,-0.14485168
1635,A,676179672489075,2.595581,-7.984848,-8.055222,-0.8903351,0.6846161,0.3142395
1635,A,676179692630677,9.332001,-12.4665985,-0.65960693,-0.26106262,1.3783875,0.025100708
1635,A,676179712772279,15.8615265,-15.290756,7.9013824,-0.8606262,0.53793335,-0.7465515
1635,A,676179732913880,9.864365,-5.79097,-4.798218,-1.6989594,0.43118286,-0.6396637
1635,A,676179753055482,6.9700623,-4.033737,-6.035095,-2.033081,-0.9563446,-0.85209656
1635,A,676179773197083,5.239258,-3.8562775,-6.237976,-2.2581635,-1.7597351,-0.728714
1635,A,676179793338685,5.3325043,-5.649811,-5.2836,-2.655365,-0.08828735,-0.44049072
1635,A,676179813480286,6.7576294,-8.780945,-3.8419037,-3.5500946,2.052719,-0.07917786
1635,A,676179833621888,6.208969,-9.858688,-2.5453033,-1.1520538,3.4035034,-0.33651733
1635,A,676179853763489,4.4697876,-8.701553,-1.7221375,0.66197205,-0.18971252,-0.17007446
1635,A,676179873905091,3.0657654,-6.9115906,-2.141922,2.2709656,3.2498932,1.740799
1635,A,676179894046693,1.2379303,-7.3256836,-2.4434357,4.4343414,0.24249268,2.3588715
1635,A,676179914188294,-0.9980774,-10.429886,0.90419006,2.494995,-0.87309265,1.2752533
1635,A,676179934329896,-0.47886658,-10.65303,4.760727,-0.8499603,0.9607849,1.3763428
1635,A,676179954471497,2.623886,-8.809738,1.6598206,0.6520691,-2.627121,1.4426575
1635,A,676179974613099,1.7786407,-8.656174,-1.0298004,1.8804169,-2.7992554,0.13090515
1635,A,676179994754700,0.6465912,-8.961609,-1.4214935,1.2908173,-0.7642822,-0.14445496
1635,A,676180014896302,1.2845612,-9.9861145,-0.32296753,0.2702942,-2.976593,-0.6814575
1635,A,676180035037904,2.8868713,-10.115173,-0.14352417,1.2242584,-1.4636841,0.4599762
1635,A,676180055179505,5.45932,-9.371292,4.547119,-1.743866,0.34054565,0.6900177
1635,A,676180075321107,6.0619965,-10.393906,5.371216,0.28842163,1.6259308,0.33836365
1635,A,676180095462708,3.3533325,-12.962967,-1.6000824,-0.6315155,0.1725769,-0.12121582
1635,A,676180115604310,0.20768738,-14.099075,-3.7939758,-2.4330597,1.4972839,-0.6331177
1635,A,676180135745911,-1.3381958,-13.702515,-0.6711731,-2.0912476,0.3070984,-0.8462982
1635,A,676180155887513,0.07891846,-14.319046,5.077606,-1.7366486,-0.6703186,-1.1373291
1635,A,676180176029114,1.5022125,-15.650528,7.060791,-1.9747162,-0.49031067,-1.0225677
1635,A,676180196170716,2.1757965,-14.290985,6.9491577,-2.417221,0.82247925,-0.5316467
1635,A,676180216312318,4.0551147,-12.507828,8.104996,-2.9766388,1.130249,0.0055389404
1635,A,676180236453919,5.532837,-12.41803,0.7081604,-0.15177917,1.8800507,-0.30433655
1635,A,676180256595521,6.221176,-13.0937805,-4.0694885,1.4160767,0.9037781,0.65501404
1635,A,676180276737122,7.2078247,-14.725967,-4.4996796,3.334793,2.2595215,2.1127625
1635,A,676180296878724,8.460251,-15.69252,-5.21521,3.9188232,-0.93499756,1.8569946
1635,A,676180317020325,9.528442,-14.521378,-4.64299,0.4966278,0.5599365,1.1730957
1635,A,676180337161927,6.8793488,-11.017517,-0.62083435,0.39050293,0.4212799,1.2951965
1635,A,676180357303529,2.355011,-7.8069,1.729187,1.7876892,-2.87706,0.8150635
1635,A,676180377445130,0.5976715,-6.646408,-1.6967773,1.2201843,-0.908905,-0.013366699
1635,A,676180397586732,1.235611,-5.74588,-3.4506989,-0.14273071,-1.6169281,-0.61408997
1635,A,676180417728333,2.542282,-4.2915497,-3.0753021,1.3197937,-2.4043732,-0.4605255
1635,A,676180437869935,3.1985016,-3.0544739,-3.8741913,-0.70614624,-0.80207825,0.54034424
1635,A,676180458011536,3.640335,-2.015854,-4.493759,-0.51005554,1.3993835,0.31585693
1635,A,676180478153138,3.9025726,-1.2879181,-3.969757,0.109191895,-0.27531433,-0.1737976
1635,A,676180498294739,4.961334,-0.730011,-3.8348846,-1.3883972,1.5757446,-0.73880005
1635,A,676180518436341,6.7243805,-0.120666504,-3.8340607,-1.9918671,0.2743988,-0.702652
1635,A,676180538577943,8.159119,-0.16790771,-2.2570038,-2.6019897,-2.3523407,-1.047821
1635,A,676180558719544,8.804764,-3.68898,0.99269104,-2.3006287,-1.9780731,-0.5705719
1635,A,676180578861146,5.1047516,-13.816299,12.200775,-2.4295502,0.9029236,-0.35150146
1635,A,676180599002747,1.6998901,-19.386353,13.133255,-2.201645,2.581833,-0.071624756
1635,A,676180619144349,-1.6694336,-14.6492,1.2881317,-0.2000122,1.1347351,-0.4268036
1635,A,676180639285950,-1.6458435,-7.5182343,-2.0575714,0.20535278,1.9502106,0.6780853
1635,A,676180659427552,0.3420105,-5.9766846,-3.0600433,2.82901,2.520523,1.953186
1635,A,676180679569154,3.2027283,-7.9029236,-7.4673004,4.4142303,-1.2470245,2.001175
1635,A,676180699710755,7.248337,-13.707657,1.7580566,1.0012054,-0.25871277,1.382019
1635,A,676180719852357,12.94426,-13.648956,6.162506,-0.5040436,2.4612427,1.4011688
1635,A,676180739993958,10.980774,-5.010559,-2.134201,1.8162842,-3.2639465,1.1367035
1635,A,676180760135560,8.037735,-3.0162964,-6.1301117,1.7329254,-1.8742981,0.28211975
1635,A,676180780277161,7.348068,-4.4892883,-6.310013,0.28562927,-2.1920624,-0.3895111
1635,A,676180800418763,8.004578,-6.0332336,-5.690918,0.26452637,-1.9990692,-1.0909576
1635,A,676180820560364,8.115768,-7.9432983,-4.652939,0.79556274,-1.7244873,0.33403015
1635,A,676180840701966,6.9630127,-9.040909,-3.3274078,-1.5492249,1.5904541,0.36647034
1635,A,676180860843568,5.205368,-8.9729,-2.232727,-0.14894104,1.7071991,-0.14533997
1635,A,676180880985169,4.0335083,-7.4032593,-1.7798004,-1.1405792,0.1890564,-0.64501953
1635,A,676180901126771,3.1868744,-6.683182,-2.282364,-1.6918945,0.3554535,-0.67510986
1635,A,676180921268372,1.441391,-9.179321,-3.4944763,-1.9052429,-0.53886414,-0.72006226
1635,A,676180941409974,-0.1403656,-10.90657,-0.11853027,-2.2093048,-1.1202393,-0.6976166
1635,A,676180961551575,-0.6105957,-10.130478,2.5515442,-3.255066,-0.119766235,-0.7130585
1635,A,676180981693177,-0.27427673,-9.056976,2.806015,-4.000885,2.3408356,-0.33746338
1635,A,676181001834779,0.50305176,-8.699921,0.6893921,-0.79533386,2.783249,-0.21089172
1635,A,676181021976380,0.8852997,-10.57811,-2.6524658,1.0636749,-1.2071533,-0.2060852
1635,A,676181042117982,1.7926788,-11.464294,-0.8933563,1.9992218,3.013794,1.5935211
1635,A,676181062259583,3.268341,-10.2608185,1.1168213,4.1968384,0.24736023,2.0895844
1635,A,676181082401185,6.338333,-9.496201,7.829544,3.1826477,-0.8918915,1.3856964
1635,A,676181102542786,5.2522125,-12.067871,3.3036804,-0.5574188,1.1567078,1.2055817
1635,A,676181122684388,3.057724,-13.394684,-1.9583588,0.6607208,-2.052597,1.5226593
1635,A,676181142825989,0.07147217,-13.248032,-2.007782,2.1160126,-2.8150024,0.35412598
1635,A,676181162967591,-0.099609375,-14.925125,-1.5411987,1.3150024,-0.8498993,-0.07765198
1635,A,676181183109193,0.43641663,-16.694717,5.869446,-0.38865662,-2.1411133,-0.51930237
1635,A,676181203250794,0.46043396,-15.753174,6.191147,1.5186462,-2.1361847,-0.066207886
1635,A,676181223392396,3.4177399,-13.940353,7.8341827,-1.4125824,-0.24377441,0.7353821
1635,A,676181243533997,6.619049,-12.905899,6.2162933,0.05029297,2.2088318,0.15315247
1635,A,676181263675599,5.827591,-11.488358,-1.3953705,-0.34625244,0.29048157,-0.092163086
1635,A,676181283817200,6.6509247,-12.194885,-3.4250336,-2.064972,1.3782349,-0.73384094
1635,A,676181303958802,7.423523,-13.74202,-5.544037,-2.4235077,0.15156555,-0.6294098
1635,A,676181324100404,9.337479,-14.003952,-6.698456,-2.1525574,-0.84576416,-0.8254547
1635,A,676181344242005,8.302383,-12.248886,-5.205612,-2.0420074,-0.635376,-0.92892456
1635,A,676181364383607,4.190048,-9.372345,0.2907257,-2.6528473,1.3753357,-0.7649689
1635,A,676181384525208,0.5219879,-7.6749268,2.8408813,-4.0331573,2.5226288,-0.0034637451
1635,A,676181404666810,0.81840515,-6.6452484,-1.8435669,-0.01864624,1.9188538,-0.18441772
1635,A,676181424808411,2.924118,-4.8575897,-2.5977173,1.6179199,0.098236084,0.7566986
1635,A,676181444950013,3.2722015,-3.3597565,-3.032898,3.36557,1.9183655,2.1698303
1635,A,676181465091614,3.0590515,-1.58815,-4.050949,4.157913,-0.7061615,1.7662506
1635,A,676181485233216,3.0431976,-0.43910217,-4.1879272,0.2127533,0.7896271,1.1684418
1635,A,676181505374818,4.4395447,6.1035156E-5,-4.008774,-0.055374146,0.5315399,1.499527
1635,A,676181525516419,6.097458,0.48634338,-3.668213,1.6330109,-3.2252045,0.88760376
1635,A,676181545658021,6.964386,-0.16014099,-2.3260803,1.3435364,-1.531662,0.060531616
1635,A,676181565799622,7.2132263,-3.6857147,2.1674957,0.12011719,-1.9516296,-0.38331604
1635,A,676181585941224,6.302765,-12.052246,14.893967,1.1226196,-2.322464,-0.8462677
1635,A,676181606082825,-0.4468689,-19.386353,17.585648,-0.02520752,-1.6278381,0.59710693
1635,A,676181626224427,-0.950943,-17.943588,4.427231,-0.9520111,2.3123016,0.38200378
1635,A,676181646366029,-0.46427917,-9.080154,-1.5346527,0.38624573,0.3534546,-0.04750061
1635,A,676181666507630,0.55111694,-6.802429,-1.2382965,-1.0124817,0.10823059,-0.83255005
1635,A,676181686649232,4.259857,-9.527832,-4.6355743,-2.021225,0.50827026,-0.5006256
1635,A,676181706790833,9.151321,-14.24263,-0.7920532,-2.3726044,-0.5929718,-0.78359985
1635,A,676181726932435,13.567566,-13.202774,8.355392,-2.3687897,-0.73483276,-0.75608826
1635,A,676181747074036,9.181595,-0.9426117,-2.541977,-2.4599457,0.8456726,-0.76612854
1635,A,676181767215638,7.9024963,-3.1164093,-6.058182,-3.7773895,1.3990936,-0.20825195
1635,A,676181787357239,7.670471,-5.203644,-5.8578796,-0.6557312,2.942978,-0.24365234
1635,A,676181807498841,6.815201,-7.8385925,-4.8852386,1.0050964,-1.1169891,0.08088684
1635,A,676181827640443,6.933792,-10.422546,-4.812683,2.1504822,3.6165771,1.8119049
1635,A,676181847782044,6.605896,-10.497711,-4.357666,4.7145386,-0.6156006,2.2776337
1635,A,676181867923646,4.4561462,-8.189682,-2.7518005,2.5640259,-1.6864624,1.3408813
1635,A,676181888065247,2.6396332,-6.1728363,-2.8437347,-0.8586731,2.6663666,1.3280487
1635,A,676181908206849,1.0447845,-6.4978333,-2.7216644,0.85098267,-2.8506927,1.365036
1635,A,676181928348450,-1.9976807,-10.666901,6.8192444,1.7361755,-1.9233551,0.15377808
1635,A,676181948490052,0.57014465,-9.619385,6.356903,0.8246155,-1.3035126,-0.18618774
1635,A,676181968631654,3.557907,-7.400696,-0.48345947,-0.56929016,-2.6045074,-0.80636597
1635,A,676181988773255,2.27417,-6.986252,-2.616394,1.695816,-1.8552856,0.09857178
1635,A,676182008914857,2.0185394,-7.88031,-1.1372375,-1.368393,-0.034805298,0.4122467
1635,A,676182029056458,2.872879,-9.539307,-0.4190216,0.43572998,1.5491486,-0.040740967
1635,A,676182049198060,3.5962524,-11.165665,-1.3065796,-0.3358612,-0.46166992,-0.2867279
1635,A,676182069339661,6.0202026,-10.7341,4.48851,-1.9554138,0.95617676,-0.3237152
1635,A,676182089481263,6.4882507,-11.3702545,7.87265,-2.484253,0.2088623,-0.51257324
1635,A,676182109622864,2.8055115,-13.513519,-1.5042267,-3.1080627,-1.761795,-0.5072174
1635,A,676182129764466,-0.094055176,-14.363678,-5.0668488,-2.143631,-0.2552185,-0.5104065
1635,A,676182149906068,-1.7906036,-15.2573395,-1.3782654,-2.4742432,0.82473755,-0.5987091
1635,A,676182170047669,-1.5323944,-16.72699,7.1928406,-1.7559967,2.6639557,-0.24691772
1635,A,676182190189271,1.0232086,-16.391037,9.492111,0.050231934,0.79203796,-0.16293335
1635,A,676182210330872,5.6718903,-13.681946,8.32515,1.5502777,3.2486267,1.1835175
1635,A,676182230472474,7.2461853,-12.519104,5.724121,4.1966705,0.9227905,2.1937866
1635,A,676182250614075,7.258667,-12.608597,-3.1680756,3.8802185,-1.8486176,1.1863708
1635,A,676182270755677,7.2751923,-14.003586,-4.329117,0.27926636,1.3502045,1.0319672
1635,A,676182290897279,8.782333,-15.362839,-4.9447174,0.006729126,-1.2062836,1.6986694
1635,A,676182311038880,10.164566,-14.777084,-6.4844055,2.0844574,-2.9428253,0.50234985
1635,A,676182331180482,8.001663,-10.894562,-3.3213959,1.5011292,-1.2247467,0.0370636
1635,A,676182351322083,2.6587372,-7.067856,2.5392303,-0.53567505,-2.3778229,-0.21601868
1635,A,676182371463685,0.42375183,-5.8007507,0.50541687,0.93370056,-1.3287506,-0.39918518
1635,A,676182391605286,1.5697327,-4.982544,-2.0470276,-1.0413818,-0.2863922,0.631073
1635,A,676182411746888,1.781189,-4.234909,-2.3264923,-0.16545105,1.6559143,0.30091858
1635,A,676182431888489,2.362793,-3.4400482,-3.716507,0.5645294,0.27537537,-0.45687866
1635,A,676182452030091,3.568634,-2.384491,-4.7141266,-1.4509583,0.45306396,-0.77760315
1635,A,676182472171693,4.0922394,-1.6463013,-4.381714,-3.2572021,-0.39471436,-0.3798523
1635,A,676182492313294,4.902481,-0.7686615,-3.761917,-3.7345123,-1.469162,-0.4252777
1635,A,676182512454896,5.7884674,0.11929321,-3.2282562,-2.3981628,1.8760529,-0.40711975
1635,A,676182532596497,6.473755,-0.040985107,-2.7422943,-1.963211,0.165802,-0.47459412
1635,A,676182552738099,7.820923,-2.4974365,-1.0457916,-1.5209808,1.2215729,-0.46687317
1635,A,676182572879700,6.834671,-13.073166,11.467712,-0.171875,1.7586365,-0.44734192
1635,A,676182593021302,4.0206757,-19.329407,15.924805,-0.11639404,0.6564331,0.2607422
1635,A,676182613162904,0.91352844,-17.974762,5.103119,2.4816895,3.2474518,1.9256134
1635,A,676182633304505,-0.21733093,-8.66777,-0.0031585693,4.846283,-1.1875,1.9584808
1635,A,676182653446107,-0.044281006,-3.247116,-2.5125732,2.1625671,-1.3304596,1.0365906
1635,A,676182673587708,2.5516815,-5.9210205,-9.408096,-0.18493652,1.2431183,1.010025
1635,A,676182693729310,10.912903,-15.1401825,4.961899,1.7675323,-2.9366913,0.90686035
1635,A,676182713870911,12.977753,-15.00267,2.1040802,1.954071,-1.259201,0.24038696
1635,A,676182734012513,8.93074,-6.9170074,-6.4833527,-0.08013916,-1.2405396,-0.24758911
1635,A,676182754154114,6.9266357,-3.753067,-7.7746735,-0.20568848,-0.8948059,-0.6620941
1635,A,676182774295716,6.312561,-4.179245,-6.521164,0.1539154,-1.4754639,0.46569824
1635,A,676182794437318,6.425049,-6.0779877,-4.8307953,-1.6575775,1.4547424,0.36909485
1635,A,676182814578919,7.0645447,-8.879868,-3.6373749,0.74086,0.87353516,0.3791504
1635,A,676182834720521,7.1484985,-9.771225,-2.767868,-0.77638245,-0.050231934,-0.37582397
1635,A,676182854862122,5.323883,-8.817459,-2.3717346,-1.8396301,1.5964813,-0.62002563
1635,A,676182875003724,3.6806335,-6.5519257,-1.9748077,-2.3929596,-0.9130707,-1.0488129
1635,A,676182895145325,2.638626,-5.3241577,-2.2835236,-3.017273,-2.9499512,-0.56340027
1635,A,676182915286927,1.7618408,-7.6582794,-2.6242676,-2.0675507,1.3151245,-0.5617676
1635,A,676182935428529,1.2775574,-9.822311,-0.13642883,-1.7044983,0.062210083,-0.52249146
1635,A,676182955570130,0.4653473,-10.178757,0.7566376,-0.17504883,1.101059,-0.36416626
1635,A,676182975711732,0.5109558,-9.240021,1.1201019,-0.18173218,0.6939697,-0.11331177
1635,A,676182995853333,0.43655396,-9.409882,1.3476715,0.5209656,3.1567383,1.0049438
1635,A,676183015994935,0.64198303,-11.952805,-1.1148529,3.6763153,1.3720856,2.00766
1635,A,676183036136536,1.003952,-12.987213,-0.9310913,3.7400208,-1.1831512,1.476471
1635,A,676183056278138,6.1749725,-8.395279,13.165009,0.49957275,0.29374695,1.0496674
1635,A,676183076419739,5.7907867,-10.359512,5.563965,0.16595459,-0.26200867,1.3336792
1635,A,676183096561341,4.468033,-13.328857,-2.0268555,1.9064484,-2.57753,0.64624023
1635,A,676183116702943,-0.026443481,-14.31163,-3.1908417,1.2276917,-1.2689056,0.28910828
1635,A,676183136844544,-3.126587,-14.222031,-3.4736633,-0.60188293,-1.838501,-0.35279846
1635,A,676183156986146,-1.2210999,-15.453857,1.3420563,1.20018,-1.4021149,-0.45681763
1635,A,676183177127747,1.8470001,-15.661636,11.398941,-0.36112976,-1.2679138,0.70254517
1635,A,676183197269349,5.2807465,-13.649826,6.743286,-0.17585754,1.51268,0.37806702
1635,A,676183217410950,6.7473297,-12.356049,8.558502,0.19221497,0.30648804,-0.13847351
1635,A,676183237552552,6.257889,-11.891815,-0.99864197,-2.5793762,2.2009583,-0.89108276
1635,A,676183257694154,5.498169,-12.994598,-1.9324799,-2.910492,0.40885925,-0.7623749
1635,A,676183277835755,7.449997,-14.571381,-3.8143463,-2.1228943,-0.4867401,-1.0278931
1635,A,676183297977357,9.089508,-15.879837,-6.2684937,-1.901947,0.2467804,-0.8865967
1635,A,676183318118958,10.356079,-14.029037,-5.46463,-1.9914246,1.534195,-0.6450653
1635,A,676183338260560,7.1050873,-8.602585,2.3412018,-2.9151154,-0.09690857,-0.3113098
1635,A,676183358402161,1.22229,-6.040756,1.4100342,-1.5475006,2.4387512,-0.17781067
1635,A,676183378543763,0.04373169,-5.4259033,-2.3397675,0.78523254,-3.0517578E-5,-0.0031585693
1635,A,676183398685364,2.109665,-4.14357,-2.469284,1.991333,3.2569427,1.469635
1635,A,676183418826966,3.061432,-3.4038239,-2.2023163,4.2180023,0.1855011,2.2832336
1635,A,676183438968568,3.8163605,-3.0979767,-4.550537,2.9694977,-1.709259,1.3484344
1635,A,676183459110169,4.35643,-2.663025,-4.528549,-0.1595459,2.4806976,1.1508484
1635,A,676183479251771,4.812042,-1.4176636,-3.550064,0.56129456,-2.7693176,1.45961
1635,A,676183499393372,5.192459,0.2954712,-3.5249634,2.0596466,-2.3974915,0.26608276
1635,A,676183519534974,6.0137177,1.1791077,-3.1434631,1.1040497,-1.1102142,0.009719849
1635,A,676183539676575,7.2722626,-0.18539429,-1.8657074,-1.142273,-2.569992,-0.5988922
1635,A,676183559818177,7.9639587,-5.707596,2.97789,1.6129761,-1.5652924,-0.05203247
1635,A,676183579959779,3.0885468,-19.386353,18.63916,-1.0735779,-0.19007874,0.6094818
1635,A,676183600101380,0.9081726,-19.086761,11.592728,-0.1269226,1.5462341,0.3585205
1635,A,676183620242982,0.45440674,-15.171082,-0.40359497,-0.0048217773,-0.078567505,-0.18992615
1635,A,676183640384583,0.5962219,-4.2052917,-0.17506409,-1.7623901,1.3600616,-0.70677185
1635,A,676183660526185,1.1284637,-4.0294952,-4.760742,-2.277893,0.2835083,-0.44029236
1635,A,676183680667786,4.8421173,-9.116287,-11.457779,-2.264511,-0.44085693,-0.86546326
1635,A,676183700809388,9.030945,-16.768173,3.0262756,-1.9299927,-1.30336,-1.0326843
1635,A,676183720950989,15.7730255,-13.194031,2.748703,-2.5900269,-0.6311035,-0.8881531
1635,A,676183741092591,8.65329,-2.53656,-8.284439,-3.275299,3.1596222,0.13619995
1635,A,676183761234193,6.423874,-3.9617462,-8.682007,-0.16127014,2.116455,-0.02079773
1635,A,676183781375794,6.841568,-4.9433594,-5.6007385,0.9650421,0.32206726,0.61650085
1635,A,676183801517396,7.6818085,-7.1962433,-3.185669,3.3245544,2.1470337,2.0054474
1635,A,676183821658997,8.621338,-9.720352,-2.8529816,4.165436,-0.8289795,1.5650177
1635,A,676183841800599,7.046707,-10.283646,-2.9448242,0.7823639,0.44058228,1.1250458
1635,A,676183861942200,4.467804,-8.78038,-2.704193,0.13119507,0.81378174,1.1362
1635,A,676183882083802,2.4850616,-6.375183,-1.7833557,1.9592438,-2.2466278,1.0544739
1635,A,676183902225404,1.8197937,-6.106964,-2.50589,1.3555756,-1.703949,0.43156433
1635,A,676183922367005,1.3102112,-8.667511,-3.6781921,-0.32650757,-1.7855225,-0.25402832
1635,A,676183942508607,-0.07858276,-10.550262,-0.20826721,0.7581177,-1.3448486,-0.71810913
1635,A,676183962650208,0.056640625,-9.437622,1.56781,0.38389587,-1.8530579,0.13113403
1635,A,676183982791810,0.3132782,-8.650406,2.2689667,-0.5927887,1.27742,0.17442322
1635,A,676184002933411,0.14704895,-9.44133,1.4206696,-0.26496887,1.2464752,-0.16777039
1635,A,676184023075013,0.5386963,-11.666489,-1.5323334,-1.8865662,1.9827728,-0.9828644
1635,A,676184043216614,1.8887177,-12.584137,-1.9843445,-2.591385,-0.016799927,-0.9063263
1635,A,676184063358216,5.36821,-9.950226,8.488815,-2.2630463,-1.3109283,-1.0762024
1635,A,676184083499818,8.159012,-10.267288,11.768539,-2.2834778,-0.9175873,-0.89334106
1635,A,676184103641419,3.778778,-13.579544,-1.1268616,-2.7261505,2.0578613,-0.37329102
1635,A,676184123783021,-0.3240204,-14.136337,-4.3356934,-3.2547607,1.4923859,-0.11672974
1635,A,676184143924622,-2.9684906,-14.457672,-4.197113,-0.41159058,1.8851013,-0.39767456
1635,A,676184164066224,-0.0063323975,-14.760605,4.340973,1.3318176,0.60150146,0.6048889
1635,A,676184184207825,2.7175903,-15.122543,9.4086,3.2773743,2.2687225,1.8093414
1635,A,676184204349427,3.7289276,-13.820206,6.255966,3.968048,-0.599823,2.023285
1635,A,676184224491029,5.144943,-12.181442,5.3051453,0.652771,-0.58810425,1.5527649
1635,A,676184244632630,5.71846,-12.231262,0.07194519,-0.30256653,2.110962,1.5837097
1635,A,676184264774232,5.7479095,-13.187958,-3.2024384,1.4420319,-4.075531,1.1070862
1635,A,676184284915833,7.3584595,-15.207764,-4.5456085,1.7032471,-1.7906647,0.10688782
1635,A,676184305057435,9.37883,-16.355118,-5.1570435,0.48353577,-1.7606354,-0.23509216
1635,A,676184325199036,10.278198,-13.683334,-1.6272888,0.94725037,-1.9205322,-0.8751373
1635,A,676184345340638,7.366806,-8.670975,2.0333557,0.37701416,-1.7849579,0.64183044
1635,A,676184365482239,2.6325226,-6.1598663,0.15176392,-1.1457062,1.4802094,0.490448
1635,A,676184385623841,0.83717346,-5.609146,-3.146698,0.54634094,0.8205261,0.1343689
1635,A,676184405765443,1.9191742,-4.996414,-2.9371338,-0.9944763,0.88098145,-0.4580078
1635,A,676184425907044,3.0646515,-3.8047028,-2.5862732,-1.939621,0.34895325,-0.93133545
1635,A,676184446048646,3.6288757,-2.3767548,-4.402878,-2.1460419,-1.1483307,-0.71032715
1635,A,676184466190247,4.0409546,-1.1655731,-4.7383423,-2.7346344,-1.7120361,-0.77256775
1635,A,676184486331849,4.7127686,-0.35798645,-3.9272919,-3.0093384,0.90574646,-0.54907227
1635,A,676184506473450,5.3977356,0.2061615,-3.437622,-2.9494476,0.95033264,-0.4028473
1635,A,676184526615052,6.052017,0.17230225,-2.9729004,-0.16543579,2.9629517,-0.4245758
1635,A,676184546756654,6.65419,-1.741394,-0.91041565,0.07601929,0.31866455,-0.41073608
1635,A,676184566898255,7.411392,-7.3151093,6.957443,0.25541687,4.1198883,1.3769379
1635,A,676184587039857,1.7366333,-15.667328,16.135376,4.02124,0.10340881,2.5501404
1635,A,676184607181458,-0.74980164,-19.386353,9.819565,3.1753998,-2.4060516,1.6755981
1635,A,676184627323060,1.1479034,-12.259064,0.44026184,-0.19433594,2.8998413,1.1801605
1635,A,676184647464661,1.8776093,-5.3385468,0.24308777,0.56518555,-2.0887604,1.302185
1635,A,676184667606263,2.765091,-6.2934723,-3.544281,2.0852356,-1.8684998,0.5831909
1635,A,676184687747864,5.294235,-11.130753,-7.5965576,1.0370941,-1.8126526,0.06364441
1635,A,676184707889466,11.2323,-16.614334,9.473358,-0.41340637,-1.9119263,-0.77919006
1635,A,676184728031068,11.4904785,-7.749069,4.3406677,1.5822144,-1.5734406,-0.10821533
1635,A,676184748172669,9.174835,-3.2065735,-5.6692963,-0.9621124,-0.45458984,0.92852783
1635,A,676184768314271,7.7786713,-4.8552704,-6.447891,0.23364258,2.20047,0.24301147
1635,A,676184788455872,7.020859,-6.172287,-5.704376,-0.023483276,0.08239746,-0.10682678
1635,A,676184808597474,7.583008,-8.345581,-4.9606934,-1.7835693,1.4105377,-0.9683075
1635,A,676184828739075,7.497635,-10.473938,-4.0794525,-2.118515,-0.12872314,-0.8115845
1635,A,676184848880677,5.901062,-10.610306,-3.1273346,-2.6464844,-1.8482513,-1.0020752
1635,A,676184869022279,3.9246216,-8.43248,-2.2231293,-2.9209747,-0.81333923,-0.7625122
1635,A,676184889163880,2.6020813,-5.276993,-5.069809,-2.95755,1.9701233,-0.7976074
1635,A,676184909305482,0.97572327,-7.1012726,-3.9270172,-1.7573853,2.1494446,-0.13684082
1635,A,676184929447083,0.5321655,-9.96611,0.9451752,0.6639252,0.2861786,-0.4196167
1635,A,676184949588685,1.2390594,-9.464096,6.135254,-0.16241455,2.1054688,0.9623108
1635,A,676184969730286,2.0737762,-8.704605,4.2400055,3.3322906,1.5239716,2.3766327
1635,A,676184989871888,2.781372,-8.403397,-0.50697327,4.4674683,-1.9632416,1.6894836
1635,A,676185010013489,2.3530579,-8.92215,-2.153595,0.34509277,1.381958,1.2921143
1635,A,676185030155091,1.37677,-10.29921,0.15939331,-0.35586548,1.0911407,1.5817413
1635,A,676185050296693,2.7411652,-10.563217,1.0128174,1.6589355,-2.985611,0.9653168
1635,A,676185070438294,6.8933563,-8.179977,9.764862,1.3626404,-1.9311981,0.22981262
1635,A,676185090579896,5.658554,-10.791122,2.564087,0.042312622,-2.2693176,-0.2691803
1635,A,676185110721497,3.4911804,-13.226181,-3.4636536,1.532547,-1.9269562,-0.88571167
1635,A,676185130863099,-0.59313965,-14.464462,-4.650421,0.2862854,-1.353653,0.3411255
1635,A,676185151004700,-1.4850159,-14.599396,-3.3487244,-0.38468933,1.3579407,0.0045776367
1635,A,676185171146302,-0.25073242,-15.814026,2.8091736,-0.377182,0.8357086,-0.4700775
1635,A,676185191287904,1.5970764,-15.377975,10.503845,-1.4573364,1.2220917,-0.84994507
1635,A,676185211429505,3.9644165,-13.5060425,5.399582,-2.6004333,-1.1680603,-0.6638031
1635,A,676185231571107,5.767212,-11.973724,8.928223,-3.850174,-1.701767,-0.6628113
1635,A,676185251712708,6.3261566,-11.64621,0.6251068,-1.9864655,1.9461365,0.10923767
1635,A,676185271854310,5.4999847,-11.796555,-2.6291199,-1.8282623,0.31452942,-0.4418335
1635,A,676185291995911,6.406204,-13.459518,-3.7375488,-2.1031342,0.22982788,-0.47569275
1635,A,676185312137513,8.762634,-14.613724,-5.7787933,-0.30371094,2.4761963,-0.53123474
1635,A,676185332279114,10.216034,-14.344742,-4.5110626,-0.11102295,0.046066284,-0.21403503
1635,A,676185352420716,7.942383,-9.184402,2.4487152,0.96328735,3.0863647,1.507904
1635,A,676185372562318,3.3867493,-6.6262054,1.5264587,4.410843,0.33981323,2.2029572
1635,A,676185392703919,0.54603577,-6.6884766,-2.5608978,3.9295197,-1.3019409,1.3881989
1635,A,676185412845521,1.7913513,-6.1128387,-2.1239014,-0.1585846,0.5790405,1.1160431
1635,A,676185432987122,2.8216553,-5.3216248,-0.4394989,0.6421814,-1.0274506,1.4881287
1635,A,676185453128724,3.6163635,-3.5086365,-4.309662,1.9587097,-2.2440643,0.57440186
1635,A,676185473270325,3.6353607,-1.9386139,-5.5752563,0.7936249,-1.6898193,0.11239624
1635,A,676185493411927,4.5119324,-1.0762482,-4.3691254,-1.0179443,-1.5255432,-0.5296173
1635,A,676185513553529,5.3039093,-0.40304565,-3.3670807,1.448349,-1.1160126,-0.28430176
1635,A,676185533695130,5.385788,-0.26446533,-2.5386658,-1.1044769,-0.8678131,0.5599823
1635,A,676185553836732,6.091049,-0.47268677,-2.0742645,-0.15893555,1.8534241,0.3091278
1635,A,676185573978333,6.918457,-3.7964783,2.612259,0.18551636,-0.15913391,0.09399414
1635,A,676185594119935,6.100342,-13.282608,19.246399,-2.129364,1.8974609,-0.8166809
1635,A,676185614261536,-1.4539948,-19.386353,17.60411,-2.0709534,0.07785034,-0.858902
1635,A,676185634403138,-0.13476563,-17.944519,1.7817078,-2.5091705,-2.6675262,-1.0223389
1635,A,676185654544739,1.1915741,-5.6094666,0.29258728,-2.3819885,-0.6585388,-0.6782532
1635,A,676185674686341,1.397995,-3.1774597,-1.561966,-2.2720947,1.8471527,-0.48695374
1635,A,676185694827943,4.8150787,-6.075989,-9.517044,-2.142746,1.41539,-0.2381134
1635,A,676185714969544,8.686722,-12.448837,-4.6905975,0.31025696,1.5579529,-0.2677765
1635,A,676185735111146,14.216721,-17.27353,15.9809265,-0.081466675,1.2566986,0.5953064
1635,A,676185755252747,9.101044,-4.8884735,-3.4718018,2.644516,2.663269,2.272873
1635,A,676185775394349,7.8543396,-4.322174,-6.177536,4.760269,-1.4733276,1.5880432
1635,A,676185795535950,6.2427673,-5.0423584,-5.8368683,1.4369354,-0.5986328,1.1365662
1635,A,676185815677552,6.418915,-6.5121307,-3.9036713,-0.35134888,1.8409424,1.1695862
1635,A,676185835819154,7.358841,-9.072754,-2.8278198,1.604599,-2.5732727,1.110672
1635,A,676185855960755,6.090927,-10.223938,-1.9318237,1.6459503,-1.9057922,0.41374207
1635,A,676185876102357,4.179291,-8.911865,-1.8112335,0.16897583,-2.00354,0.17338562
1635,A,676185896243958,2.7473602,-5.9087677,-3.0592194,-0.60920715,-1.4211426,-0.78556824
1635,A,676185916385560,1.5443878,-4.5866394,-6.5252686,1.5253754,-2.2727814,0.09944153
1635,A,676185936527161,0.5953064,-8.399353,-1.8652039,-0.6806488,0.8323517,0.3589325
1635,A,676185956668763,2.005066,-9.834747,0.9894562,0.061019897,1.3768005,0.06576538
1635,A,676185976810364,2.4391174,-8.917114,2.3906097,-1.1014404,1.452301,-0.7340088
1635,A,676185996951966,2.1107025,-8.745071,3.2031403,-2.1763153,0.5002136,-0.7147827
1635,A,676186017093568,2.2636719,-9.546539,1.9303436,-2.312683,-1.1056213,-0.8376312
1635,A,676186037235169,2.2591553,-10.734283,0.00869751,-2.2544403,-1.1714172,-0.77557373
1635,A,676186057376771,2.7061157,-10.576614,2.857727,-3.0172424,1.7976532,-0.5012512
1635,A,676186077518372,4.4871063,-9.08168,6.056488,-3.262207,1.6172485,-0.5154877
1635,A,676186097659974,5.9746094,-9.972183,3.8035736,-1.1231232,2.0858307,-0.25976563
1635,A,676186117801575,4.6298523,-12.986877,-1.7865143,0.51535034,-0.7912903,-0.31933594
1635,A,676186137943177,1.0055237,-14.59761,-3.9970245,0.74572754,2.3499146,0.9429474
1635,A,676186158084779,-2.0414734,-14.771378,-1.8950653,3.4976044,1.3997955,1.8905792
1635,A,676186178226380,-1.1117401,-15.345703,3.3062744,4.047043,-1.7377014,1.8551636
1635,A,676186198367982,0.46426392,-15.724808,7.4052734,0.7303009,0.86720276,1.2131958
1635,A,676186218509583,2.6375732,-13.895447,7.745575,-0.13104248,0.59399414,1.5359802
1635,A,676186238651185,5.008728,-12.531998,7.33815,1.8404083,-2.359665,0.8367157
1635,A,676186258792786,5.6655884,-12.7729645,0.48587036,1.338623,-1.6270905,0.123809814
1635,A,676186278934388,5.8517,-13.250916,-3.2888489,-0.2947235,-1.4928284,-0.17362976
1635,A,676186299075989,7.447754,-14.5864105,-4.3780212,0.3356781,-1.1895599,-0.7706146
1635,A,676186319217591,9.395035,-15.425446,-5.973419,0.5765228,-2.0236511,0.4332428
1635,A,676186339359193,10.031448,-13.575562,-4.4168396,-1.3177795,0.7804718,0.2863617
1635,A,676186359500794,7.879303,-9.306335,1.1091309,0.060333252,0.5957031,-0.14692688
1635,A,676186379642396,2.8471985,-6.677307,2.7834015,-1.0645294,0.61273193,-0.6080017
1635,A,676186399783997,0.48498535,-6.4055786,-1.9789581,-1.5938873,0.40296936,-0.648468
1635,A,676186419925599,1.3346252,-6.1230774,-2.3437653,-1.5809326,-0.73013306,-0.8530884
1635,A,676186440067200,2.1023254,-4.813507,-1.7813263,-2.7576141,-1.45607,-0.5727234
1635,A,676186460208802,3.044632,-3.0031433,-4.0385437,-2.6330414,1.3023529,-0.40837097
1635,A,676186480350404,3.8913574,-1.6208191,-4.886032,-2.8529053,1.2796173,-0.356781
1635,A,676186500492005,4.915161,-0.5998688,-4.7160034,-1.3533478,2.7038422,-0.37464905
1635,A,676186520633607,5.9136963,0.19100952,-3.9438477,0.4769745,-0.15826416,-0.1803894
1635,A,676186540775208,6.0949554,0.31114197,-2.9517975,1.7443848,2.5970612,1.2955933
1635,A,676186560916810,6.1533203,-1.1264496,-1.5700531,4.1402893,0.62805176,2.1034393
1635,A,676186581058411,7.8587646,-5.1623077,4.521698,3.35849,-1.7054901,1.5169678
1635,A,676186601200013,3.5984497,-14.336975,14.733658,-0.26539612,2.2883759,1.3074951
1635,A,676186621341614,0.54255676,-19.386353,12.134552,0.3164215,-1.2849579,1.5015869
1635,A,676186641483216,1.0334473,-14.238647,2.8377533,1.6925507,-3.0058746,0.569397
1635,A,676186661624818,2.635666,-7.790268,0.57366943,1.3500366,-1.4541168,0.017333984
1635,A,676186681766419,5.410385,-8.395004,0.032974243,-0.3292389,-2.3035126,-0.43112183
1635,A,676186701908021,5.435623,-12.269272,-3.036499,1.5037689,-1.4981537,-0.308609
1635,A,676186722049622,6.968216,-10.630478,-0.4729004,-1.0407104,-1.0858765,0.9842224
1635,A,676186742191224,8.886658,-3.9639435,-0.54104614,-0.67977905,1.6864166,0.21981812
1635,A,676186762332825,9.117172,-3.2111053,-4.4769745,0.4823761,-0.050216675,0.17692566
1635,A,676186782474427,9.02002,-5.249878,-5.6720734,-1.7290497,1.1069794,-0.4190216
1635,A,676186802616029,8.366257,-7.2503357,-4.6920166,-1.9400177,1.6398773,-0.6527252
1635,A,676186822757630,7.302765,-9.774002,-3.728836,-1.8769073,0.07223511,-1.118866
1635,A,676186842899232,6.5079193,-10.967834,-3.3161316,-2.3850555,-1.1299286,-0.9042969
1635,A,676186863040833,5.543518,-9.528549,-3.016632,-2.1423187,0.08129883,-0.9536438
1635,A,676186883182435,3.5220642,-6.9633484,-4.122345,-3.2233887,1.2490387,-0.38476563
1635,A,676186903324036,1.2706604,-6.665329,-2.5825043,-1.9138641,2.460373,-0.24195862
1635,A,676186923465638,0.20259094,-8.692032,0.8499603,0.9306793,-0.25917053,-0.020202637
1635,A,676186943607239,-0.37957764,-9.747635,7.054138,2.1759796,2.4928284,1.3628387
1635,A,676186963748841,1.0102997,-8.714218,3.4227448,4.163742,0.6161499,1.9827881
1635,A,676186983890443,2.9196777,-7.61644,-0.8210144,3.0389404,-1.3852844,1.3621521
1635,A,676187004032044,2.097702,-8.093048,-3.5285187,-0.24638367,2.180832,1.1408997
1635,A,676187024173646,2.705185,-9.175522,-0.06539917,0.48390198,-1.8296051,1.4465485
1635,A,676187044315247,2.6989746,-10.738358,-0.13618469,1.7063141,-2.644333,0.36653137
1635,A,676187064456849,5.6286926,-9.683975,6.385544,1.0814209,-1.2522583,0.108566284
1635,A,676187084598450,6.210327,-10.073425,6.6691437,-0.60639954,-2.2447815,-0.42790222
1635,A,676187104740052,3.67482,-12.633133,-0.69444275,1.8912354,-1.6477203,-0.084991455
1635,A,676187124881654,0.20379639,-14.612152,-5.0435333,-0.8796997,-0.3409729,0.5130615
1635,A,676187145023255,-1.9071045,-14.7127075,-3.7236176,0.035751343,1.1532898,0.080947876
1635,A,676187165164857,-1.4980164,-14.814697,5.122925,-0.020477295,0.46600342,-0.43849182
1635,A,676187185306458,1.2669373,-16.144196,9.793594,-1.8390808,1.4229431,-0.76779175
1635,A,676187205448060,3.9501038,-14.078735,5.68631,-2.7221527,0.33117676,-0.66192627
1635,A,676187225589661,5.430069,-12.697968,10.784103,-2.6443787,-0.28186035,-1.0393829
1635,A,676187245731263,6.678116,-12.908386,0.34786987,-2.6254425,0.6383667,-0.682724
1635,A,676187265872864,6.3233185,-13.555115,-3.4874115,-2.742752,1.8105927,-0.5662384
1635,A,676187286014466,7.4929657,-15.420059,-4.657196,-2.7939758,0.7792053,-0.36520386
1635,A,676187306156068,9.639023,-16.809341,-6.383133,0.39624023,0.7058563,-0.647522
1635,A,676187326297669,13.5017395,-13.314255,-3.0471344,0.8764801,0.699173,0.5097046
1635,A,676187346439271,8.418015,-7.959137,3.4147491,3.0695038,2.314743,1.8239594
1635,A,676187366580872,0.45454407,-5.8771973,0.07989502,4.661865,-1.4510956,1.9863434
1635,A,676187386722474,0.11955261,-6.5814514,-5.947876,1.156189,-0.34669495,1.4540558
1635,A,676187406864075,1.5085754,-5.735428,-0.9259491,-0.15287781,1.5956726,1.3791656
1635,A,676187427005677,1.4261627,-5.2634125,-0.58703613,1.279419,-3.5650024,1.2053528
1635,A,676187447147279,3.006897,-3.2661743,-5.2569275,1.8457947,-1.59906,0.2929077
1635,A,676187467288880,3.9839935,-2.1718292,-4.8178253,0.3291626,-1.3914795,-0.19384766
1635,A,676187487430482,4.66481,-1.0975494,-4.0079193,0.36175537,-2.4153595,-0.8246155
1635,A,676187507572083,4.879471,-0.35359192,-3.750061,0.38583374,-1.7910614,0.65719604
1635,A,676187527713685,5.5527344,0.48591614,-3.4414673,-0.51049805,1.4833221,0.27122498
1635,A,676187547855286,5.324173,-0.7420349,-2.3362885,0.30169678,0.38835144,-0.04902649
1635,A,676187567996888,6.5345764,-4.5849915,2.7947998,-1.2649689,1.6307983,-0.8409729
1635,A,676187588138489,7.7638702,-12.921539,19.246399,-2.3250275,0.6602478,-0.68258667
1635,A,676187608280091,3.4015503,-19.386353,18.229568,-2.2026672,-0.94125366,-0.99583435
1635,A,676187628421693,0.97535706,-18.356476,3.9299927,-2.6776123,-1.1565552,-0.8815918
1635,A,676187648563294,0.8619995,-6.7354736,0.56285095,-2.8523712,1.5338593,-0.44573975
1635,A,676187668704896,3.0040436,-3.439804,0.8758545,-2.884552,0.466156,-0.39878845
1635,A,676187688846497,4.9686737,-5.2351685,-7.905731,-0.8395691,2.1236572,-0.53808594
1635,A,676187708988099,8.302567,-10.155319,-5.5156097,0.18128967,-0.08532715,-0.12683105
1635,A,676187729129700,12.724899,-17.899612,16.330276,1.5152893,2.6264648,1.4167786
1635,A,676187749271302,7.8334656,-6.9990387,-4.5595245,4.6139984,0.5417938,2.1248474
1635,A,676187769412904,8.0673065,-4.3584137,-6.7233276,3.6656647,-1.4648132,1.539917
1635,A,676187789554505,6.8416595,-4.664505,-6.735916,-0.43292236,1.6954498,1.26297
1635,A,676187809696107,6.4331512,-6.1675415,-4.6322784,0.24725342,-1.319458,1.6948242
1635,A,676187829837708,6.098694,-8.700592,-3.7637482,1.7639313,-2.4975739,0.7089691
1635,A,676187849979310,5.915207,-10.089676,-3.2542877,1.248169,-1.7892609,-0.111709595
1635,A,676187870120911,5.1773376,-9.111954,-2.4594269,-0.19055176,-2.1722717,-0.7838898
1635,A,676187890262513,3.537201,-7.3898926,-1.492096,1.9097443,-2.125702,2.2888184E-4
1635,A,676187910404114,1.9915619,-6.451935,-1.1796722,-0.9068756,-0.25280762,0.55133057
1635,A,676187930545716,0.8705902,-8.277939,-1.1659698,-0.4869995,1.8408966,0.28092957
1635,A,676187950687318,0.2771759,-10.217209,-0.9951935,-0.17370605,0.07383728,-0.2753296
1635,A,676187970828919,0.2612915,-9.930847,1.2042694,-1.8331451,-0.22814941,-0.81752014
1635,A,676187990970521,1.3132782,-8.816895,1.1943359,-3.0326843,-1.4335175,-0.43022156
1635,A,676188011112122,1.2177277,-8.834824,-0.44018555,-3.4134064,0.02810669,-0.3232422
1635,A,676188031253724,1.2624817,-10.581253,-2.4245605,-2.3634796,2.588028,-0.08369446
1635,A,676188051395325,2.150467,-11.481506,1.2106018,-1.9225464,-0.24163818,-0.70373535
1635,A,676188071536927,4.9173584,-10.037384,7.506775,-1.5247192,1.4454346,-0.54634094
1635,A,676188091678529,5.9538727,-11.536652,5.5958557,-0.42651367,2.004074,-0.4363861
1635,A,676188111820130,2.2037354,-14.627228,-3.4694061,-0.0335083,1.5125122,0.55307007
1635,A,676188131961732,-1.9448547,-15.03302,-3.852234,3.1164093,2.6108704,2.2016602
1635,A,676188152103333,-2.8851929,-14.885513,0.7995148,4.8376923,-0.99150085,1.9851379
1635,A,676188172244935,-0.39982605,-15.847733,7.4093933,1.5490112,-0.55545044,1.3042603
1635,A,676188192386536,2.1076965,-15.3598175,7.0717163,-0.29455566,1.32724,1.2719574
1635,A,676188212528138,4.118683,-12.794525,7.9634705,1.5661163,-2.6832428,1.1261749
1635,A,676188232669739,5.4060974,-11.980591,5.0871887,1.5305023,-1.4313049,0.39346313
1635,A,676188252811341,5.8159027,-12.743713,-2.6170197,0.26046753,-1.5136414,-0.14875793
1635,A,676188272952943,6.500244,-14.415161,-3.674347,0.44059753,-1.6684418,-0.72558594
1635,A,676188293094544,8.54747,-16.32042,-5.7546387,0.55545044,-2.3877869,0.4503479
1635,A,676188313236146,10.548248,-15.878845,-4.0868073,-1.5535889,0.9334259,0.39111328
1635,A,676188333377747,11.085083,-11.342682,1.9100189,0.1078949,1.1683807,-0.01109314
1635,A,676188353519349,5.7877655,-7.231476,1.4364166,-1.0521393,0.80548096,-0.47981262
1635,A,676188373660950,0.9458771,-5.842514,-3.0436096,-2.1922607,0.81921387,-0.6440582
1635,A,676188393802552,1.0677795,-5.6446075,-3.5469513,-1.91745,0.1842804,-0.72862244
1635,A,676188413944154,2.1468506,-5.1544952,-0.6913605,-2.303131,-0.036239624,-0.94000244
1635,A,676188434085755,3.0689087,-3.846878,-2.2503357,-2.566101,0.8664398,-0.79649353
1635,A,676188454227357,4.2026825,-2.1952362,-4.8947906,-2.6913147,1.1820374,-0.84236145
1635,A,676188474368958,4.8868866,-0.78152466,-4.3524017,-2.8881836,1.6077881,-0.41786194
1635,A,676188494510560,5.168564,0.48503113,-3.0822296,0.4061737,0.7754364,-0.074920654
1635,A,676188514652161,5.478668,1.382019,-3.0583954,1.833664,1.8876953,1.1628876
1635,A,676188534793763,5.6974792,0.9086304,-2.8216705,3.804016,1.3304443,2.2316895
1635,A,676188554935364,6.0081635,-2.259674,0.062561035,3.6713257,-1.7342529,1.7270966
1635,A,676188575076966,4.07547,-12.673676,11.591019,-0.13438416,1.7739258,1.3054962
1635,A,676188595218568,2.7257385,-19.386353,12.127441,0.251297,-1.0577393,1.6280518
1635,A,676188615360169,2.3790283,-19.086548,1.7418213,1.5933838,-3.0696716,0.6782379
1635,A,676188635501771,1.2194061,-9.351334,-0.80563354,1.3648071,-1.5084229,-0.105667114
1635,A,676188655643372,1.9455109,-0.4616394,-0.30567932,0.22377014,-2.4024353,-0.5937042
1635,A,676188675784974,3.20755,-2.5050201,-8.855301,2.1091156,-2.549118,-0.5451813
1635,A,676188695926575,8.459747,-12.552383,1.7528076,-0.9650574,-0.7253723,0.89178467
1635,A,676188716068177,10.37207,-15.841522,4.513962,-0.4462433,2.7145538,0.46299744
1635,A,676188736209779,8.438019,-8.875626,-3.6448364,0.095214844,-0.17947388,0.09963989
1635,A,676188756351380,7.57489,-4.900299,-5.201294,-1.6058197,0.86026,-0.7847748
1635,A,676188776492982,6.780136,-4.598938,-5.203598,-1.9797974,0.529953,-0.6277771
1635,A,676188796634583,5.888626,-5.598709,-4.487488,-2.3282318,-0.78030396,-0.89038086
1635,A,676188816776185,6.7291718,-8.3160095,-3.281433,-2.6929321,-1.1995544,-0.6408386
1635,A,676188836917786,6.4258575,-10.292313,-2.4453735,-2.5926208,1.0025024,-0.8400421
1635,A,676188857059388,4.889908,-9.516037,-1.95401,-3.1284485,2.5065613,-0.15922546
1635,A,676188877183027,3.082489,-7.2543335,-1.6975708,0.049316406,2.1962128,-0.44145203
1635,A,676188897324629,1.8793182,-5.425415,-4.550354,0.5410156,0.4459381,0.35639954
1635,A,676188917466231,0.4019165,-8.024307,-1.671524,2.7765045,2.3845367,2.2233276
1635,A,676188937607832,1.412323,-9.18512,1.0564117,4.619934,-1.1703033,1.865387
1635,A,676188957749434,2.0371857,-8.774139,2.2392426,1.118576,-0.8179474,1.3689575
1635,A,676188977891035,2.5786896,-8.281189,2.270935,-0.4229126,2.2023163,1.209549
1635,A,676188998032637,2.1692963,-8.513412,0.56455994,1.2124481,-3.1006317,1.0285492
1635,A,676189018174238,2.2956848,-10.304718,-3.0236816,1.6515045,-1.3843231,0.407135
1635,A,676189038315840,1.6459045,-12.32428,-1.3240356,-0.029724121,-1.8091736,-0.04548645
1635,A,676189058457442,3.8875122,-9.879547,8.541443,-0.15933228,-1.4178467,-0.85302734
1635,A,676189078599043,5.4029236,-10.9466095,6.0456543,1.5494385,-1.9854889,0.03404236
1635,A,676189098740645,4.4249268,-13.510361,-1.4235077,-1.1642761,0.655777,0.6279297
1635,A,676189118882246,-0.25506592,-15.146439,-3.796402,0.42173767,1.0022278,0.068344116
1635,A,676189139023848,-2.0628204,-14.255737,-1.8539276,-0.28181458,0.8464813,-0.7797699
1635,A,676189159165449,0.4871521,-15.408295,6.9547424,-2.155426,0.7967224,-0.72283936
1635,A,676189179307051,1.3739014,-16.034546,5.828888,-2.550293,-0.64505005,-0.911911
1635,A,676189199448652,1.9560852,-14.042389,5.3164673,-2.2693634,-0.96447754,-0.901001
1635,A,676189219590254,3.592514,-12.51886,10.136139,-2.922348,0.38380432,-0.73361206
1635,A,676189239731856,5.4403534,-12.288101,-0.63630676,-2.7457123,1.0925293,-0.6258545
1635,A,676189259873457,5.7107544,-13.186935,-3.0025177,-1.4814148,1.2602234,-0.17874146
1635,A,676189280015059,7.479355,-14.860199,-4.199997,0.70903015,0.4349823,-0.49562073
1635,A,676189300156660,8.934555,-15.988388,-5.453491,0.73301697,1.3701172,1.0305786
1635,A,676189320298262,9.422638,-14.781418,-6.707062,3.135849,2.4991608,2.22258
1635,A,676189340439863,8.31929,-9.385345,1.2345734,4.495529,-0.97927856,1.7440186
1635,A,676189360581465,3.5901337,-6.325363,3.3986511,1.0310059,-0.42741394,1.0071411
1635,A,676189380723067,0.095825195,-5.788376,-2.956787,-0.52879333,0.7038727,1.2337952
1635,A,676189400864668,1.8952179,-5.6367645,-4.129593,1.4098969,-2.9290009,0.8791199
1635,A,676189421006270,2.5537262,-4.57901,-0.033920288,1.5951691,-1.6484833,0.05632019
1635,A,676189441147871,2.7095795,-3.0798492,-4.220764,-0.0476532,-1.4388275,-0.16975403
1635,A,676189461289473,3.8130035,-1.365036,-5.2731476,0.46876526,-1.2262421,-0.4887085
1635,A,676189481431074,4.6771393,-0.4437256,-5.081955,-0.13241577,-1.9185638,0.54551697
1635,A,676189501572676,5.403351,0.048080444,-3.7989807,-1.1614838,0.4255066,0.44711304
1635,A,676189521714277,5.9730835,0.38993835,-3.232254,0.85780334,0.7648468,0.20326233
1635,A,676189541855879,6.2364655,-1.2415771,-2.3300629,-1.0853729,1.13768,-0.41366577
1635,A,676189561997481,7.7365417,-5.152954,1.8648834,-2.070343,1.6333008,-0.67414856
1635,A,676189582139082,4.5135956,-19.156036,19.186264,-1.8008728,-0.051605225,-0.86312866
1635,A,676189602280684,0.6285095,-19.286026,13.692032,-1.8800049,-0.51820374,-1.0147858
1635,A,676189622422285,-1.7450714,-16.753448,0.25556946,-2.1579742,-0.48234558,-1.0622711
1635,A,676189642563887,0.8403778,-4.9339905,-0.11190796,-3.0502625,0.73501587,-0.99235535
1635,A,676189662705488,3.3471375,-5.3203125,-0.5540314,-3.6598206,3.2134552,-0.18373108
1635,A,676189682847090,6.5980225,-10.304886,-9.668671,0.99061584,0.16671753,0.03627014
1635,A,676189702988692,10.3203125,-14.125153,3.1376038,2.45195,2.0220947,1.8867798
1635,A,676189723130293,10.908844,-7.387436,1.0865631,4.4089203,0.6505432,2.5464478
1635,A,676189743271895,8.410538,-2.4039307,-5.460846,2.1735382,-1.2226105,1.5069427
1635,A,676189763413496,8.111725,-5.2020874,-6.679428,-0.682251,2.5943909,1.3689575
1635,A,676189783555098,8.195328,-6.539734,-5.988159,1.3670197,-2.6793823,1.3338928
1635,A,676189803696699,7.676483,-8.47435,-4.3773193,2.238617,-1.3986969,0.5568695
1635,A,676189823838301,6.843506,-9.750153,-3.33992,0.8909912,-1.9575348,-0.025604248
1635,A,676189843979902,5.0838013,-9.106583,-2.306961,-0.7347107,-1.828476,-0.67237854
1635,A,676189864121504,3.2017822,-7.290909,-1.28862,1.7860565,-1.9054565,-0.20854187
1635,A,676189884263106,2.2384644,-5.285904,-1.56987,-1.1582336,0.6586151,0.92333984
1635,A,676189904404707,1.429184,-6.3143616,-2.6731873,0.13529968,1.4726563,0.114486694
1635,A,676189924546309,-0.13648987,-9.965256,-0.44543457,-0.14619446,0.5536499,-1.0623779
1635,A,676189944687910,-0.020996094,-10.577301,0.9693451,-1.9129639,0.22938538,-0.7995148
1635,A,676189964829512,0.8073578,-9.469849,1.8023682,-2.6182098,-1.680954,-0.88630676
1635,A,676189984971113,1.249649,-8.949509,1.293747,-3.0976257,-2.3375397,-1.0803223
1635,A,676190005112715,1.6578827,-10.10434,-1.3166809,-2.9933472,1.982727,-0.2685547
1635,A,676190025254317,2.001892,-11.298538,-2.2388458,-1.7207031,0.52705383,-0.34651184
1635,A,676190045395918,3.3226013,-10.088303,4.1669006,-0.49978638,1.0624084,-0.808609
1635,A,676190065537520,6.3644257,-9.224915,10.6194,-0.2647705,1.1721344,0.19520569
1635,A,676190085679121,4.8228455,-13.091095,1.5131989,1.9597015,1.7668152,1.5756989
1635,A,676190105820723,1.9499207,-15.705307,-3.9193878,4.3410187,0.15913391,1.9836426
1635,A,676190125962324,-2.1366882,-15.406708,-2.6926727,2.4597473,0.31053162,1.4967041
1635,A,676190146103926,-1.4949188,-14.38176,3.2924194,-0.7121277,1.3499756,1.1261902
1635,A,676190166245527,0.64167786,-15.504044,8.363602,1.1141815,-1.0914917,1.0281372
1635,A,676190186387129,1.5967407,-14.939377,5.814621,2.1427917,-1.4833527,0.8564453
1635,A,676190206528731,2.6301575,-13.419739,6.004181,0.5817566,-1.9286499,0.34458923
1635,A,676190226670332,4.6565247,-13.251007,1.4951477,-0.8961029,-1.9089813,-0.4962921
1635,A,676190246811934,5.919647,-14.01297,-2.733017,1.9602661,-1.3647919,-0.59750366
1635,A,676190266953535,8.292694,-16.209778,-4.2452393,-0.763443,-0.7554779,0.7865753
1635,A,676190287095137,10.659775,-17.57611,-7.428253,-0.5922394,1.8664398,-0.04473877
1635,A,676190307236738,10.997467,-14.523865,-4.2256317,-0.8561859,1.0570526,-0.5192108
1635,A,676190327378340,8.687256,-8.042999,4.176544,-2.0894775,0.23687744,-0.9606018
1635,A,676190347519942,3.7815704,-5.51239,2.6256104,-1.8283539,-1.7884521,-0.94166565
1635,A,676190367661543,1.6591797,-5.361786,-3.5053864,-2.0575562,-1.4980011,-1.209198
1635,A,676190387803145,2.0993652,-5.206421,-5.6229553,-3.1379242,1.9297943,-0.03829956
1635,A,676190407944746,1.9190369,-4.027313,-1.8202515,-2.3668518,1.5809631,-0.33735657
1635,A,676190428086348,2.1732788,-2.2714844,-2.0734253,-1.2529297,-0.2262268,-0.46095276
1635,A,676190448227949,3.628891,-0.8784485,-4.847061,0.4020996,1.1236267,-0.50209045
1635,A,676190468369551,4.517151,-0.122787476,-4.4768066,0.13220215,1.6089935,0.7152252
1635,A,676190488511152,5.0232697,0.4968872,-3.7920227,2.3613586,4.0006256,2.0988617
1635,A,676190508652754,5.295471,0.5649872,-3.571579,4.5101166,-1.0174408,1.9475098
1635,A,676190528794356,5.5749817,-1.4382477,-1.9536133,1.2012482,-0.6555786,1.144867
1635,A,676190548935957,6.74086,-7.1293793,6.3057556,-0.9757843,1.493576,1.3167725
1635,A,676190569077559,3.6729584,-15.405182,16.076935,0.9216919,-2.7974396,1.1672058
1635,A,676190589219160,-0.07661438,-19.386353,11.16095,1.712738,-2.0541534,0.094818115
1635,A,676190609360762,-1.2285461,-12.314636,2.536728,0.4789734,-1.4268494,-0.17185974
1635,A,676190629502363,-1.9333038,-6.4866333,0.95747375,0.23887634,-1.4173431,-0.77015686
1635,A,676190649643965,1.9840851,-7.704422,-6.5807037,0.37069702,-1.3291473,0.56573486
1635,A,676190669785567,9.139969,-13.477127,-3.6021576,-0.67588806,1.1325836,0.6303711
1635,A,676190689927168,15.626129,-15.622009,2.1109009,0.5388336,-0.023773193,0.12471008
1635,A,676190710068770,12.799271,-6.395523,-1.4554749,-0.9215698,1.012207,-0.9277191
1635,A,676190730210371,8.485046,-1.7671661,-4.936325,-2.2533875,0.511673,-0.614624
1635,A,676190750351973,7.682007,-3.4881134,-6.196411,-2.9846344,-1.9028778,-1.0917511
1635,A,676190770493574,8.633835,-5.7079926,-6.607315,-2.5134125,-0.48898315,-0.7355194
1635,A,676190790635176,9.064804,-8.46283,-5.4241486,-2.0691223,1.6639557,-0.4933319
1635,A,676190810776777,7.836975,-9.687241,-4.123474,-1.5260162,-0.70983887,-0.52508545
1635,A,676190830918379,5.519806,-8.947784,-2.6497955,-0.5548706,1.7954559,-0.45474243
1635,A,676190851059981,3.9306335,-7.2939453,-1.3250427,-0.2059784,0.9990387,0.114349365
1635,A,676190871201582,2.6315613,-5.987152,-0.6809082,1.9876404,3.1608124,1.1955566
1635,A,676190891343184,2.047638,-7.4862823,-0.41018677,4.099884,0.5216675,2.1347961
1635,A,676190911484785,1.6791687,-9.545746,-0.55207825,2.7975311,-1.2849731,1.3976593
1635,A,676190931626387,0.5083618,-10.19072,-0.7952728,-0.5178528,1.5536499,1.1631775
1635,A,676190951767988,-0.3456726,-9.655792,-0.549469,0.23736572,-1.5459747,1.445343
1635,A,676190971909590,-0.15261841,-9.378479,0.285614,1.7181244,-2.1298523,0.45108032
1635,A,676190992051192,0.054092407,-10.31897,0.5210724,1.2120667,-1.359848,0.0050354004
1635,A,676191012192793,0.58895874,-11.566116,-2.074997,-0.7801361,-2.0386963,-0.46429443
1635,A,676191032334395,1.2076111,-11.641373,-1.7476196,1.5142517,-1.2778473,-0.42048645
1635,A,676191052475996,2.8344116,-11.239151,3.523056,-0.96894836,-1.0380707,0.9492035
1635,A,676191072617598,3.7295685,-13.5121,7.015671,0.1459198,1.9048004,0.22140503
1635,A,676191092759199,2.0136719,-15.254105,3.572403,0.2129364,-0.3062744,-0.26071167
1635,A,676191112900801,-1.5503693,-13.659241,0.36575317,-2.2419891,1.1121521,-0.6076355
1635,A,676191133042402,-2.7335815,-13.711273,-0.74861145,-2.6242218,0.016448975,-0.6814575
1635,A,676191153184004,0.51586914,-14.949249,4.089081,-2.1591797,-0.50183105,-0.9747925
1635,A,676191173325606,4.0012665,-14.735291,6.4456177,-2.7357635,0.6133423,-0.83110046
1635,A,676191193467207,5.3790283,-12.347733,6.657028,-2.3901825,1.4647522,-0.57302856
1635,A,676191213608809,6.354889,-12.258179,2.4546509,-1.6624756,-0.026855469,-0.40454102
1635,A,676191233750410,6.5514984,-13.404907,-1.6705322,0.3640442,1.1339417,-0.4335785
1635,A,676191253892012,7.9782715,-15.733215,-3.0338898,0.3126068,0.32437134,0.46087646
1635,A,676191274033613,9.937439,-17.289703,-5.7559967,2.2931213,3.5464478,1.7537384
1635,A,676191294175215,14.078201,-14.6978,-1.3787384,4.425461,-0.21694946,2.0706024
1635,A,676191314316817,10.038757,-8.575272,3.1059418,1.9391937,-0.7799072,1.1209106
1635,A,676191334458418,2.6266022,-5.8010254,-0.56770325,-0.5372162,1.6119995,1.1012115
1635,A,676191354600020,0.039031982,-5.5174866,-3.7338867,0.8722229,-2.30159,1.1093903
1635,A,676191374741621,1.612442,-5.0715637,-3.726471,1.5194092,-1.5157013,0.29405212
1635,A,676191394883223,1.1284943,-4.8239594,1.3320923,0.15237427,-1.5660858,0.03100586
1635,A,676191415024824,2.3649445,-3.688095,-3.467392,-0.62509155,-1.9721222,-0.92004395
1635,A,676191435166426,4.418045,-1.8815155,-5.857025,1.8138428,-1.7761078,0.1817627
1635,A,676191455308027,5.86026,-1.0117798,-4.8613586,-0.9929962,-0.32713318,0.5744171
1635,A,676191475449629,5.414917,-0.7863312,-3.7457886,0.35386658,1.3871918,0.12605286
1635,A,676191495591231,4.699936,-0.9163666,-3.8624725,0.027282715,-0.46269226,-0.28868103
1635,A,676191515732832,4.490448,-1.1136627,-3.665802,-2.0988464,1.3010254,-0.4786682
1635,A,676191535874434,5.3338776,-2.9493866,-2.2791443,-2.3275757,0.0627594,-0.605423
1635,A,676191556016035,6.8326416,-7.8015747,5.908844,-2.054428,-0.9181366,-0.8357544
1635,A,676191576157637,-4.570389,-19.386353,18.227386,-2.327362,-0.83306885,-0.8983154
1635,A,676191596299238,-1.336441,-18.857178,-1.4791107,-2.9167328,0.744751,-0.4270172
1635,A,676191616440840,0.02418518,-9.870224,0.39289856,-1.8179169,1.7597809,-0.12149048
1635,A,676191636582442,6.623108,-4.2982635,1.9565277,0.8710327,0.8007202,-0.59651184
1635,A,676191656724043,10.771866,-6.004425,-6.3320465,0.3074646,0.5229492,0.62760925
1635,A,676191676865645,13.797363,-10.268036,-3.205902,2.1947174,3.6766968,2.1844025
1635,A,676191697007246,10.989304,-10.884949,1.0115051,4.212799,-0.77827454,1.8300476
1635,A,676191717148848,7.496399,-2.9038239,-4.631195,1.6572266,-0.45341492,0.8748627
1635,A,676191737290449,6.182007,-4.8635864,-6.2942963,-0.3053894,0.7772522,1.1319733
1635,A,676191757432051,7.3119965,-6.65596,-5.070572,1.4177551,-2.2613373,0.9891052
1635,A,676191777573652,7.8505096,-8.4631195,-2.920578,1.5765381,-1.2286377,0.22032166
1635,A,676191797715254,7.131897,-9.894363,-2.0516968,0.014709473,-1.5285645,-0.11222839
1635,A,676191817856856,5.611038,-9.755905,-1.7247009,-0.07064819,-1.2451782,-0.8776398
1635,A,676191837998457,3.6239014,-7.9845886,-1.6194458,1.081192,-1.8473969,0.14196777
1635,A,676191858140059,2.21492,-6.1888275,-1.4580994,-0.8347168,0.58374023,0.38845825
