Subject-Id,Activity Label,Time stamp,Accel_x,Accel_y,Accel_z,Gyro_x,Gyro_y,Gyro_z
1620,A,938034649865917,6.130188,5.92334,-0.7918701,0.81144714,0.44099426,-1.1239166
1620,A,938034700219921,9.97998,10.531952,-2.9611511,0.31651306,0.90075684,-0.92803955
1620,A,938034717004589,7.2329865,11.2117,-0.7839813,0.1876831,0.5908203,-0.17601013
1620,A,938034767358593,6.0130005,9.32933,-1.0701752,0.3404541,0.75587463,0.7628479
1620,A,938034784143261,5.5630646,7.3433533,-4.254425,0.47555542,0.8255005,0.10922241
1620,A,938034834497265,4.4858704,6.8003845,-3.9319458,0.3803711,0.5955658,-0.035110474
1620,A,938034884851269,4.0446625,6.117218,-1.2940063,-0.034698486,0.1630249,0.258667
1620,A,938034935205273,5.2595215,7.045456,-2.3944855,-0.55197144,0.48728943,0.055236816
1620,A,938034985559277,5.198105,6.749298,-1.9175415,0.10119629,0.3025818,-0.016067505
1620,A,938035035913281,3.3507385,8.355515,-3.3041077,-0.15861511,0.4889679,-0.20574951
1620,A,938035086267284,3.7511902,11.994522,-3.6960754,-0.544693,0.20245361,-0.5538025
1620,A,938035136621288,3.5383606,10.114059,-1.687439,0.40766907,0.4850464,-0.27578735
1620,A,938035186975292,4.804016,7.2594604,-0.61299133,1.0014648,0.77404785,-0.03253174
1620,A,938035237329296,5.411392,8.652054,-2.2126312,0.27105713,0.34313965,0.0129852295
1620,A,938035287683300,3.5242462,10.352325,-4.2169647,0.06642151,0.49047852,-0.33587646
1620,A,938035338037304,0.5552521,9.700607,-5.485672,-0.9138794,0.30732727,0.17678833
1620,A,938035388391308,3.0378723,8.355835,-2.0922089,-0.5257263,0.33625793,0.004272461
1620,A,938035438745312,4.550308,5.2042847,-1.611023,0.1031189,1.6479187,-0.1756897
1620,A,938035489099316,4.622284,11.358978,-2.5420837,0.7389679,0.53526306,0.029174805
1620,A,938035539453320,2.3908691,7.835022,-0.6678314,0.3605194,0.25157166,0.33192444
1620,A,938035589807323,1.5829468,7.999466,0.90896606,0.16964722,0.50090027,0.12309265
1620,A,938035640161327,3.3731842,8.459366,-1.4082184,-0.30984497,0.50865173,-0.023086548
1620,A,938035690515331,3.514267,9.702164,-2.2241821,0.28793335,-0.5074463,0.037826538
1620,A,938035740869335,3.401352,11.232513,-1.8579559,0.258667,-0.28990173,-0.10041809
1620,A,938035791223339,5.212311,12.670486,-1.5926971,-0.18113708,-0.42904663,-0.093673706
1620,A,938035841577343,3.8312836,8.587112,-2.7480469,-0.045806885,-0.5721741,0.07141113
1620,A,938035891931347,1.5990448,4.150757,-2.3955688,-0.2574463,-0.44528198,0.23086548
1620,A,938035942285351,3.1771088,9.747543,-2.3379211,-0.022003174,-0.22766113,0.54959106
1620,A,938035992639355,4.796097,8.514252,-2.7947388,-0.40396118,-0.3484497,0.22151184
1620,A,938036042993359,2.7702332,7.487747,-3.1200562,-0.6524048,-0.18919373,-0.19837952
1620,A,938036093347363,3.8963928,9.283798,-0.9185028,-0.5339508,-0.18223572,-0.33799744
1620,A,938036143701366,5.105011,8.787216,-2.3487244,-0.16828918,-0.26008606,-0.2581482
1620,A,938036194055370,4.202591,9.485062,-1.0962067,0.018447876,-0.30412292,-0.23519897
1620,A,938036244409374,4.445236,8.134689,-0.3391571,-0.07136536,-0.33151245,-0.042236328
1620,A,938036294763378,5.4282074,8.654404,-1.2415924,-0.085617065,-0.39283752,0.27978516
1620,A,938036345117382,3.1696777,9.826416,-3.6375122,-0.7054596,-0.5905609,0.21148682
1620,A,938036395471386,1.1090851,11.40239,-3.1139374,-0.35942078,-0.61750793,-0.25471497
1620,A,938036445825390,5.2050323,11.629272,-2.4577026,0.32873535,-0.5564728,-0.3303833
1620,A,938036496179394,4.456436,10.643341,-1.1111908,-0.2215271,-0.14918518,-0.004211426
1620,A,938036546533398,1.6762848,6.9812775,-0.18739319,-0.34773254,-0.65882874,0.06378174
1620,A,938036596887402,2.583603,6.6750183,-0.34329224,0.23449707,-0.95451355,0.27607727
1620,A,938036647241406,2.0208435,8.611786,-0.42962646,0.04374695,-0.7223053,-0.11755371
1620,A,938036697595409,2.5460815,8.499451,0.2649994,-0.14369202,-0.9678345,-0.3262024
1620,A,938036747949413,3.3795624,8.28833,-1.634964,0.1750946,-1.001648,-0.11077881
1620,A,938036798303417,3.8898773,9.356491,-2.3997192,-0.07449341,-0.885025,-0.09857178
1620,A,938036848657421,3.7804565,13.430145,-1.1402435,-0.1902771,-0.8581543,-0.25888062
1620,A,938036899011425,2.4192352,8.4270935,-3.4913177,-0.15959167,-0.84677124,-0.14466858
1620,A,938036949365429,2.1595612,8.722366,-2.1452026,-0.29685974,-0.45005798,0.25541687
1620,A,938036999719433,3.3155975,8.589523,-0.52983093,-0.76327515,-0.25694275,0.30566406
1620,A,938037050073437,3.5659027,8.469818,-1.8889465,-0.18315125,0.6647339,0.16288757
1620,A,938037100427441,3.1560059,8.027679,-1.8511505,0.42782593,0.77645874,0.42878723
1620,A,938037150781445,2.8727264,8.022644,-0.27516174,-0.4614563,0.59617615,0.210495
1620,A,938037201135448,3.634369,8.070374,-0.75172424,-0.2926941,0.9173279,-0.27294922
1620,A,938037251489452,3.571289,8.148224,-0.10479736,0.2588501,0.70658875,-0.38809204
1620,A,938037301843456,3.9543457,8.327423,0.55262756,0.055236816,0.7180786,-0.07911682
1620,A,938037352197460,4.9366913,8.275589,-0.19807434,-0.37921143,0.6030121,0.19708252
1620,A,938037402551464,4.286682,7.5890503,-0.7321472,0.2611847,0.2422638,-0.20248413
1620,A,938037452905468,0.48501587,6.0869293,-3.5135956,0.039535522,0.5224762,-0.11483765
1620,A,938037503259472,1.7316132,12.77861,-2.5313568,0.62971497,0.73620605,-0.18882751
1620,A,938037553613476,5.338089,17.274765,-4.400238,0.15811157,0.14155579,0.40756226
1620,A,938037603967480,5.269394,12.353043,0.15092468,0.28138733,-0.21871948,0.12301636
1620,A,938037654321484,3.8945465,10.347687,0.4001007,0.3999939,-0.55545044,-0.08604431
1620,A,938037704675488,2.169403,8.084488,-0.3895111,0.16596985,-0.23236084,-0.040878296
1620,A,938037755029491,1.4576263,5.1124115,-0.17318726,-0.091156006,0.3271942,-0.007827759
1620,A,938037805383495,0.17857361,7.281204,-0.22857666,0.11679077,0.63816833,0.17504883
1620,A,938037855737499,6.6260376,11.258789,-2.9624329,0.13563538,0.815979,0.4189148
1620,A,938037906091503,4.7479706,7.619507,-1.9877625,-0.25534058,0.13632202,0.24691772
1620,A,938037956445507,1.3392181,11.124405,-2.743225,-0.036880493,0.5857544,-0.20587158
1620,A,938038006799511,3.2491913,8.14798,-2.0742493,0.107543945,1.038147,-0.46528625
1620,A,938038057153515,2.4181213,7.944458,-1.65802,0.16299438,1.0276642,-0.34713745
1620,A,938038107507519,4.2021484,8.443909,-1.7422638,0.27070618,0.89408875,-0.1091156
1620,A,938038157861523,5.171631,8.564346,-0.42033386,0.2237091,0.8269501,0.056365967
1620,A,938038208215527,4.605377,8.589691,-0.82151794,0.13909912,0.6418152,0.09576416
1620,A,938038258569531,2.8415222,9.048065,-3.9726105,0.008224487,0.3722992,-0.03640747
1620,A,938038308923534,0.48786926,13.118942,-2.8964539,-0.090911865,0.30317688,-0.107406616
1620,A,938038359277538,6.644165,11.376465,-1.9500732,-0.27409363,0.39656067,-0.24305725
1620,A,938038409631542,4.327362,8.349991,-0.72979736,-3.2043457E-4,0.8935394,-0.30700684
1620,A,938038459985546,1.2897949,6.4940796,-0.60964966,0.7127991,0.3622589,-0.24624634
1620,A,938038510339550,1.6804657,7.19162,-0.8809509,0.16914368,0.04498291,0.18391418
1620,A,938038560693554,2.3707733,7.9823,0.010696411,0.23814392,-0.28533936,0.1847229
1620,A,938038611047558,2.7015991,8.825912,0.48905945,0.41085815,-0.5714264,0.08917236
1620,A,938038661401562,3.028778,11.044708,-0.33399963,0.20559692,-0.38479614,0.034622192
1620,A,938038711755566,3.22435,11.303558,1.2757263,0.20832825,-0.1687622,0.0663147
1620,A,938038762109570,5.356308,13.495239,-2.0760345,0.1605835,-0.28231812,0.09013367
1620,A,938038812463573,2.4229126,7.2783966,-1.8008728,0.2308197,-0.23698425,-0.034942627
1620,A,938038862817577,2.7408752,6.9798737,-2.4910889,0.06878662,-0.15812683,-0.07035828
1620,A,938038913171581,1.3950043,9.538147,-2.7457886,-0.053710938,-0.5113373,0.29542542
1620,A,938038963525585,2.2030487,8.465805,-1.3126526,-0.22418213,-0.20161438,0.42459106
1620,A,938039013879589,2.7093964,7.8615723,-0.91200256,-0.38417053,0.111968994,0.054718018
1620,A,938039064233593,3.9392395,8.972504,-1.4028778,-0.26226807,0.24302673,-0.10450745
1620,A,938039114598794,4.1745605,8.672775,-0.8347626,-0.045684814,0.6865692,-0.40846252
1620,A,938039164952798,3.6378021,8.146423,-0.3026123,0.040496826,0.71287537,-0.35702515
1620,A,938039215306802,4.5485077,9.044464,-0.03614807,0.3540802,0.6716919,-0.17727661
1620,A,938039265660806,4.1644287,9.735977,-1.0079803,0.43728638,0.7702179,-0.07269287
1620,A,938039316014810,2.994751,10.7226715,-0.7062988,0.22467041,0.89938354,0.021743774
1620,A,938039366368813,3.7741852,10.315887,-4.28006,0.13131714,0.51390076,-0.20141602
1620,A,938039416722817,2.1723022,10.389282,-3.5957336,-0.061645508,0.57995605,-0.34501648
1620,A,938039467076821,5.34169,11.198975,-1.5710602,0.09384155,1.1171417,-0.09913635
1620,A,938039517430825,4.4811554,8.715439,-0.9545288,0.5763855,1.3168182,-0.08375549
1620,A,938039567784829,1.1963196,6.942932,-1.1692047,0.91322327,0.81170654,-0.11973572
1620,A,938039618138833,1.9606323,6.984482,-0.2944336,0.49118042,0.97187805,0.047851563
1620,A,938039668492837,2.9537964,8.147842,-0.12843323,0.47294617,0.95150757,0.15213013
1620,A,938039718846841,3.0956116,8.352585,0.038101196,0.53089905,0.8535919,0.042816162
1620,A,938039769200845,2.8362274,10.019989,-0.8599701,0.44802856,0.8295288,-0.02708435
1620,A,938039819554849,2.7219238,12.676514,-0.4736023,0.5205231,0.6614075,-0.04664612
1620,A,938039869908853,4.87825,10.352432,-3.2308502,0.44491577,0.47236633,-0.12495422
1620,A,938039920262856,2.1804657,7.998764,-0.7444763,0.3902893,0.22291565,-0.2632141
1620,A,938039970616860,2.6994781,7.6328583,-2.6022644,0.2398529,-0.14382935,-0.105392456
1620,A,938040020970864,3.1178284,8.719666,-2.9791412,0.045181274,-0.2230835,0.26263428
1620,A,938040071324868,3.9780426,9.272522,-1.6018982,-0.15783691,-0.16194153,0.43814087
1620,A,938040121678872,3.6575317,8.677032,-2.4066925,-0.25204468,0.10910034,0.18215942
1620,A,938040172032876,3.394165,8.880524,-2.4253693,-0.39082336,0.45785522,-0.027877808
1620,A,938040222386880,3.773697,8.897949,-2.0989685,-0.2073822,0.10916138,-0.055343628
1620,A,938040272740884,3.6488495,8.738434,-2.0143738,-0.1729126,0.2096405,-0.19360352
1620,A,938040323094888,3.098343,8.533524,-1.8079834,-0.29899597,0.2659607,-0.2374878
1620,A,938040373448892,2.0043945,9.152084,-2.2961426,-0.0149383545,0.24151611,-0.24819946
1620,A,938040423802895,3.018219,9.640518,-2.2561188,0.12922668,0.26533508,-0.15670776
1620,A,938040474156899,4.295822,10.226501,-1.9264679,0.15615845,0.39804077,-0.00920105
1620,A,938040524510903,4.750458,9.751236,-3.5227509,0.17848206,0.3267517,0.0011291504
1620,A,938040574864907,1.7030792,8.457077,-3.2983246,-0.10284424,0.13304138,-0.019210815
1620,A,938040625218911,2.8092194,9.876389,-1.555542,-0.22923279,0.19551086,0.011276245
1620,A,938040675572915,4.020752,10.494278,-1.840805,-0.2694702,0.06689453,-0.0134887695
1620,A,938040725926919,2.7727814,9.041458,-1.6254272,-0.19094849,0.5673981,0.034866333
1620,A,938040776280923,2.1950989,7.343933,-0.35588074,0.25674438,0.30940247,-0.12576294
1620,A,938040826634927,2.7637787,8.166718,-0.18243408,0.10441589,0.008804321,-6.4086914E-4
1620,A,938040876988931,2.682602,8.504715,-0.065200806,0.052581787,-0.0053710938,0.17886353
1620,A,938040927342935,2.8186798,8.509537,0.29762268,0.048690796,-0.176651,0.19883728
1620,A,938040977696938,2.1938324,10.543625,-0.952652,0.23973083,-0.1899414,0.16261292
1620,A,938041028050942,2.5552368,10.88797,0.506897,0.3217163,-0.16706848,0.039535522
1620,A,938041078404946,4.3103485,12.902161,-1.292572,0.3624878,-0.19970703,-0.059036255
1620,A,938041128758950,2.6508026,8.9266815,-1.5625,0.22210693,-0.15177917,-0.12120056
1620,A,938041179112954,2.0020142,7.320114,-2.2201996,0.22399902,-0.17805481,-0.11151123
1620,A,938041229466958,1.1914825,8.250702,-4.6476746,0.18070984,-0.3657837,-0.0012969971
1620,A,938041279820962,2.7450256,9.239136,-3.69664,-0.11097717,-0.36328125,0.20872498
1620,A,938041330174966,3.1165314,8.800537,-1.263504,-0.16720581,-0.22131348,0.3591919
1620,A,938041380528970,3.511795,8.354935,-0.8418274,-0.18478394,0.50219727,0.11695862
1620,A,938041430882974,3.6265411,8.329559,-1.0967255,-0.048171997,0.72514343,-0.18331909
1620,A,938041481236978,3.7120972,8.440628,-0.9306183,0.20858765,1.0829315,-0.22636414
1620,A,938041531590981,3.5358276,8.597076,-0.83374023,0.012924194,1.573761,-0.35188293
1620,A,938041581944985,3.5151215,9.043961,-0.7311096,0.35377502,2.036911,-0.2501068
1620,A,938041632298989,2.7043457,9.405121,-1.4807587,0.7247162,2.4671783,-0.20906067
1620,A,938041682652993,3.722046,11.002136,-1.175827,0.7944946,2.638214,0.028503418
1620,A,938041733006997,4.8432007,10.938934,-1.7966461,0.702713,3.0041962,0.057907104
1620,A,938041783361001,3.302887,8.725616,-4.052017,1.1443481,3.1605682,-0.021270752
1620,A,938041833715005,3.1615906,9.790436,-1.7061615,1.9566803,2.9502106,-0.28204346
1620,A,938041884069009,5.221634,11.11377,-1.4881134,1.7356873,2.8483887,-0.7649536
1620,A,938041934423013,2.9281158,9.143997,-1.6074371,1.1541443,2.67688,-0.4803772
1620,A,938041984777017,2.6035461,6.2888336,-0.68530273,0.8825531,2.815979,0.047546387
1620,A,938042035131020,2.7211456,6.7798157,-0.12702942,1.0323792,2.7348938,-0.29151917
1620,A,938042085485024,3.2016754,8.218216,-0.49388123,0.5991821,2.5160065,-0.37608337
1620,A,938042135839028,3.5246124,8.879913,-0.29997253,0.4590149,2.2049866,-0.08959961
1620,A,938042186193032,3.8860626,9.529999,-0.22843933,0.21534729,1.7668915,0.062408447
1620,A,938042236547036,3.1313782,9.082031,-0.7545471,0.28507996,1.3892975,0.01966858
1620,A,938042286901040,3.321579,11.231873,-3.250595,0.20214844,1.3001099,-0.17628479
1620,A,938042337255044,3.8531952,10.968658,-6.192505,0.15792847,0.98539734,-0.1923523
1620,A,938042387609048,3.9855804,7.1087646,-2.7871094,0.3590088,0.6014557,-0.07675171
1620,A,938042437963052,6.2276764,7.439392,-2.3078766,0.52565,0.37591553,0.2450409
1620,A,938042488317056,3.967453,8.662338,-3.6124115,0.42314148,0.20892334,0.2695923
1620,A,938042538671060,2.8119965,8.631653,-3.0173035,0.08627319,0.59954834,-0.2000122
1620,A,938042589025063,2.9923553,8.852112,-2.512024,-0.09225464,0.77194214,-0.34828186
1620,A,938042639379067,3.1424866,8.71907,-2.6998901,-0.06726074,0.22949219,-0.15333557
1620,A,938042689733071,2.7748566,9.165009,-3.586975,-0.006225586,0.2084961,-0.0065460205
1620,A,938042740087075,1.3118591,9.353088,-3.5594025,0.19203186,0.24874878,0.0847168
1620,A,938042790441079,1.407196,8.543488,-3.573944,0.16113281,0.13824463,0.09361267
1620,A,938042840795083,1.4633789,9.458878,-3.2040863,0.33280945,-0.074417114,0.23052979
1620,A,938042891149087,2.7720032,10.83342,-1.4267273,0.3154297,-0.26634216,-0.020233154
1620,A,938042941503091,5.812958,10.4431,0.16944885,0.080581665,-0.26663208,-0.13189697
1620,A,938042991857095,4.1123657,11.737732,0.8622589,0.12432861,-0.21310425,-0.3205719
1620,A,938043042211099,3.1754456,10.209686,0.19845581,-0.4000702,0.31845093,-0.14172363
1620,A,938043092565103,1.6911011,7.5420685,-0.20036316,-0.22366333,0.7132721,-0.11029053
1620,A,938043142919106,1.5161896,7.202957,0.075424194,-0.045806885,0.1789856,-0.14884949
1620,A,938043193273110,2.3314056,8.749191,-0.73869324,-0.24427795,0.29562378,0.12600708
1620,A,938043243627114,1.922287,8.446411,-1.1387329,-0.15664673,0.11048889,0.18371582
1620,A,938043293981118,1.4971466,9.322723,-2.1991882,-0.16792297,-0.022445679,0.0067443848
1620,A,938043344335122,0.92129517,9.789688,-3.0016785,-0.40124512,-0.0718689,-0.11802673
1620,A,938043394689126,2.5443115,10.319763,-2.2665253,-0.45013428,-0.22953796,-0.18165588
1620,A,938043445043130,5.989914,12.847641,-3.8823395,-0.12934875,-0.26420593,-0.12989807
1620,A,938043495397134,4.030487,7.4137726,0.052093506,0.4243927,-0.18756104,-0.29649353
1620,A,938043545751138,4.37854,10.312561,0.20539856,0.4267273,-0.4060974,-0.08126831
1620,A,938043596105142,4.1700897,9.216843,-1.2093658,0.43267822,-0.8202667,0.4867096
1620,A,938043646459145,3.291214,7.9630585,-0.19845581,0.17134094,-0.8686218,0.12261963
1620,A,938043696813149,3.431366,8.200256,-1.0628204,-0.41130066,-0.67474365,0.049346924
1620,A,938043747167153,2.715866,8.307892,-1.4077911,-0.3652649,-0.96673584,0.091781616
1620,A,938043797521157,2.8826752,8.646103,-1.6556244,-0.2635498,-1.2128754,0.03213501
1620,A,938043847875161,2.6029663,8.252792,-1.7594147,-0.34960938,-1.6747894,0.21278381
1620,A,938043898229165,3.2055664,8.188095,-2.3250885,-0.27523804,-2.286438,0.53556824
1620,A,938043948583169,1.4945984,9.471466,-3.8050537,-0.39257813,-2.685852,0.636734
1620,A,938043998937173,0.86053467,11.2174835,-0.5732269,-0.8748932,-3.0255585,0.43624878
1620,A,938044049291177,4.498291,11.364365,-0.443161,-1.1253357,-3.4824524,0.2826233
1620,A,938044099645181,4.593094,11.832565,-0.47685242,-1.5777283,-3.421402,0.29997253
1620,A,938044149999185,3.0586395,8.771027,0.7435303,-1.4919739,-3.0450592,0.13067627
1620,A,938044200353188,2.27388,7.9689026,-0.4202118,-0.7535858,-3.3117523,-0.31700134
1620,A,938044250707192,1.0696106,8.027634,-1.5297394,-1.6838226,-1.8117218,0.6377411
1620,A,938044301061196,0.7956238,8.322678,-1.8048401,-0.41474915,-2.0615082,0.73646545
1620,A,938044351415200,1.8808746,8.607132,-2.777954,-1.3169556,-3.0473022,0.26194763
1620,A,938044401769204,1.7967224,9.769379,-4.2483826,-1.0955658,-2.8085785,0.4690094
1620,A,938044452123208,0.7381897,10.660797,-4.913025,-0.6307831,-2.3969727,0.50141907
1620,A,938044502477212,0.3577881,11.116272,-5.6078033,-0.701355,-2.1309052,0.22444153
1620,A,938044552831216,2.6974182,8.269699,-3.0378113,-0.6020813,-2.187149,0.12261963
1620,A,938044603185220,4.9303436,9.480896,-2.2225494,-0.3275299,-2.2816162,0.12011719
1620,A,938044653539224,7.2406006,11.195099,-6.4722595,-0.31874084,-1.9216919,0.02760315
1620,A,938044703893228,7.7206726,4.19281,-0.30245972,-0.52108765,-1.8487549,0.14775085
1620,A,938044754247231,2.9365692,9.279678,-4.35347,-0.36198425,-1.8447723,0.30210876
1620,A,938044804601235,4.6362305,7.0407257,-2.1792755,-0.3591156,-1.1757507,0.4244995
1620,A,938044854955239,6.4624634,6.8787994,-0.14743042,-0.38694763,-0.7388916,0.16706848
1620,A,938044905309243,4.801819,8.3207245,-0.8728943,-0.62298584,-0.7625427,-0.041137695
1620,A,938044955663247,4.3318176,8.227615,-0.24188232,-0.61457825,-0.7230835,-0.21925354
1620,A,938045006017251,4.536743,8.754456,-0.12451172,-0.46435547,-0.55900574,-0.35803223
1620,A,938045056371255,4.709198,9.400482,-0.027496338,-0.039764404,-0.1696167,-0.20957947
1620,A,938045106725259,4.0858765,10.392502,0.649704,0.09210205,-0.14387512,-0.0899353
1620,A,938045157079263,4.566574,9.88591,0.06517029,-0.005706787,-0.09138489,0.10385132
1620,A,938045207433267,3.1674957,10.173676,-4.7024384,-0.112075806,-0.049957275,-0.021896362
1620,A,938045257787270,2.9886322,10.341171,-3.814331,-0.08503723,0.50346375,0.060897827
1620,A,938045308141274,3.7975464,11.827286,-2.8668976,-0.1317749,0.5611267,-0.07899475
1620,A,938045358495278,4.0865784,8.625763,-1.6407013,-0.15640259,0.7913666,-0.2808838
1620,A,938045408849282,2.1647034,7.000107,-0.88386536,0.36802673,0.7991333,0.057266235
1620,A,938045459203286,2.1045227,5.983719,-0.059173584,0.32087708,0.09498596,0.18734741
1620,A,938045509557290,2.0253143,8.816376,-0.24760437,0.4131012,-0.15435791,0.22366333
1620,A,938045559911294,2.4275208,9.237549,0.37405396,0.56373596,-0.31674194,0.034179688
1620,A,938045610265298,4.0348663,9.964539,-0.047164917,0.3999176,-0.13693237,-0.10984802
1620,A,938045660619302,3.624527,10.033508,0.051254272,0.31776428,-0.084854126,-0.15893555
1620,A,938045710973306,4.6046753,10.495804,-0.8152313,0.2412262,-0.124176025,-0.070251465
1620,A,938045761327310,1.2767792,11.249191,-4.4268036,0.51216125,0.015319824,0.27320862
1620,A,938045811681313,2.3020477,7.48703,-1.6519623,0.27142334,-0.10296631,0.4727173
1620,A,938045862035317,1.8222961,9.972839,-2.5229034,-0.7085724,-0.4282074,0.23043823
1620,A,938045912389321,1.190033,7.672333,-1.9798584,-0.6897278,-0.55693054,0.066101074
1620,A,938045962743325,2.32547,7.4757233,-1.9954071,-0.63217163,-0.44580078,-0.067489624
1620,A,938046013097329,3.37294,9.1689,-1.7652435,-0.60136414,-0.27043152,-0.21652222
1620,A,938046063451333,3.9154358,9.10199,-1.0959625,-0.11375427,-0.42381287,-0.11781311
1620,A,938046113805337,3.8602905,8.767578,-1.0202637,0.09387207,-0.5194092,0.06581116
1620,A,938046164159341,3.4224243,9.377121,-1.1854706,-0.31524658,-0.08805847,0.22746277
1620,A,938046214513345,3.9276886,11.78125,-4.2364807,-0.39154053,0.16079712,0.098083496
1620,A,938046264867349,-0.19265747,11.91835,-5.355255,-0.51968384,0.29647827,-0.16531372
1620,A,938046315221353,1.5513611,9.874435,-2.828537,-0.51467896,-0.24960327,-0.6687927
1620,A,938046365575356,3.1455536,9.552567,-2.7952576,-0.5887451,0.8052521,0.029830933
1620,A,938046415929360,1.6058807,8.60643,-1.8831177,0.39686584,-0.3391571,0.70484924
1620,A,938046466283364,1.3800812,8.282883,-0.49057007,0.36924744,-0.62457275,0.4367981
1620,A,938046516637368,2.2387085,8.26004,-0.15068054,0.16055298,-1.2222443,0.21188354
1620,A,938046566991372,2.7289886,8.456131,1.1269684,-0.09321594,-1.3314819,0.13006592
1620,A,938046617345376,3.466507,7.7470856,0.96855164,0.12397766,-0.7207489,0.12269592
1620,A,938046667699380,2.7253723,9.121994,-0.16629028,-0.17070007,-0.15937805,-0.23704529
1620,A,938046718053384,3.26268,15.313553,-5.432663,-0.09185791,-0.2020874,0.1545105
1620,A,938046768407388,2.0663757,8.082687,-5.4592743,-0.15802002,-0.16708374,0.7176819
1620,A,938046818761392,-0.029937744,8.738495,0.44119263,-0.113479614,-0.024551392,0.5657196
1620,A,938046869115395,1.0536346,7.3784485,-1.8292084,-0.32048035,-0.12644958,-0.111572266
1620,A,938046919469399,2.3689575,7.4102783,-2.9693604,-0.26116943,0.10681152,-0.37568665
1620,A,938046969823403,3.3466034,8.683594,-1.348465,-0.15905762,0.4749756,-0.65423584
1620,A,938047020177407,5.905304,8.247101,-0.08918762,-0.08149719,0.52349854,-0.4756317
1620,A,938047070531411,5.243561,8.427841,-0.31422424,0.14579773,0.28590393,-0.09144592
1620,A,938047120885415,4.142517,11.169434,-0.67414856,-0.050598145,0.21195984,0.19319153
1620,A,938047171239419,3.729477,11.26207,-2.556549,-0.033111572,-0.012084961,0.058776855
1620,A,938047221593423,1.4874115,8.050201,-5.5318146,-0.33457947,-0.34716797,-0.34342957
1620,A,938047271947427,2.0292206,13.478058,-2.163971,-0.9182892,-0.27378845,-0.09664917
1620,A,938047322301431,6.3273163,11.2157135,-2.0115967,-0.0021820068,0.9834137,-0.27098083
1620,A,938047372655435,3.4659271,6.935684,-0.77819824,0.7084198,0.6706848,0.1819458
1620,A,938047423009438,0.681015,4.8997498,-0.43603516,0.3032837,0.23864746,0.43345642
1620,A,938047473363442,1.2583313,7.1674347,-0.065078735,0.48605347,-0.004180908,0.13973999
1620,A,938047523717446,2.4635773,8.75589,0.39190674,0.5856323,-0.497818,-0.03967285
1620,A,938047574071450,3.308258,10.027573,0.6498413,0.4300537,-0.5726471,-0.11444092
1620,A,938047624425454,3.0777283,13.701752,-0.6247101,0.32858276,-0.2076416,-0.32443237
1620,A,938047674779458,4.389496,14.243729,-3.798874,-0.0342865,-0.02809143,-0.14027405
1620,A,938047725133462,2.993103,5.28714,-1.6660156,0.26307678,-0.0718689,0.28970337
1620,A,938047775487466,3.4505768,8.002792,-1.5633698,0.27659607,0.38175964,0.5790558
1620,A,938047825841470,1.4471741,9.597427,-1.530014,0.08204651,0.6782532,0.21452332
1620,A,938047876195474,3.3500977,7.462204,-1.4649811,-0.4820099,0.38435364,-0.041427612
1620,A,938047926549478,2.2155457,7.6702423,-1.3671722,-0.27941895,0.5332031,-0.32621765
1620,A,938047976903481,2.8964233,8.535034,-1.7636414,-0.33013916,0.6569061,-0.49821472
1620,A,938048027257485,5.3469696,8.556732,-1.4447784,0.046081543,0.40289307,-0.22468567
1620,A,938048077611489,3.9636078,9.954681,-1.3578033,0.28198242,0.23199463,0.0021514893
1620,A,938048127965493,4.4941864,9.946045,-0.58143616,0.21565247,0.2211914,0.19328308
1620,A,938048178319497,5.02153,10.532715,-3.2207794,0.05291748,0.15640259,-0.10266113
1620,A,938048228673501,1.525528,9.306656,-5.0500183,-0.15411377,0.1375885,-0.2995758
1620,A,938048279027505,2.6934357,12.626602,-3.4968872,-0.7028656,-0.19010925,-0.3480072
1620,A,938048329381509,4.376831,9.672913,-1.8613129,-0.1404419,0.7095032,-0.080444336
1620,A,938048379735513,2.4147644,7.209259,-1.4189758,0.7735748,0.21665955,0.101486206
1620,A,938048430089517,0.91415405,6.2640076,-0.28927612,0.20959473,-0.15678406,0.38735962
1620,A,938048480443520,1.5070496,7.255417,-0.22460938,0.30145264,-0.27980042,0.32974243
1620,A,938048530797524,2.603241,8.253433,0.8330231,0.4727173,-0.5458374,0.06738281
1620,A,938048581151528,4.5923004,10.412537,0.34562683,0.43572998,-0.5250702,-0.07836914
1620,A,938048631505532,3.4912262,12.173645,-0.3586731,0.23709106,-0.45874023,-0.2288208
1620,A,938048681859536,4.312912,14.452896,-4.972397,-0.051589966,-0.29203796,-0.06668091
1620,A,938048732213540,0.035964966,5.8773804,-2.1798706,-0.031097412,-0.27407837,0.25483704
1620,A,938048782567544,3.248993,7.70343,-1.4000244,0.25198364,0.03286743,0.5623932
1620,A,938048832921548,1.3516235,9.879257,-2.3952332,-0.5839691,-0.24407959,0.18144226
1620,A,938048883275552,2.2974396,7.8267517,-1.377182,-0.8510895,-0.19763184,-0.10601807
1620,A,938048933629556,3.3028717,7.1707,-1.3684082,-0.4704895,0.20455933,-0.3869171
1620,A,938048983983560,3.5777588,8.455643,-2.3699493,-0.31175232,0.19355774,-0.37763977
1620,A,938049034337563,3.7470856,8.878372,-1.6267242,0.011688232,0.038589478,-0.16685486
1620,A,938049084691567,4.2647247,9.987244,-0.8274536,0.047912598,0.10029602,0.07711792
1620,A,938049135010724,4.4810486,10.052567,-0.88490295,-0.03843689,0.2562561,0.19900513
1620,A,938049185364728,3.5090637,9.110962,-4.1050415,-0.1462555,0.1946106,-0.24403381
1620,A,938049235718732,0.5871887,12.171616,-5.162491,-0.5673828,0.70196533,-0.044021606
1620,A,938049286072736,4.773834,12.393387,-3.2974548,-0.25909424,0.43040466,-0.48602295
1620,A,938049336426740,4.743347,9.189392,-1.4782257,0.14588928,1.1980438,-0.0315094
1620,A,938049386780744,1.3431244,6.7908325,-1.2021027,0.74861145,0.4532318,0.37428284
1620,A,938049437134748,0.59288025,6.100708,-0.8810272,0.36079407,0.1250763,0.42526245
1620,A,938049487488752,1.7079315,7.580063,-0.10702515,0.54826355,-0.24189758,0.23368835
1620,A,938049537842756,3.2535553,8.698868,0.81710815,0.5043335,-0.41571045,-0.023071289
1620,A,938049588196759,4.355301,10.464996,-0.85139465,0.30534363,-0.18829346,-0.14831543
1620,A,938049638550763,4.130234,10.531006,0.7507019,0.042785645,0.042800903,-0.1870575
1620,A,938049688904767,2.8658752,13.512039,-3.7140808,0.11972046,-0.28938293,0.17266846
1620,A,938049739258771,2.518219,6.546753,-3.033249,0.01222229,-0.03842163,0.6442261
1620,A,938049789612775,2.8857117,9.836487,-0.9309387,-0.3283081,0.061798096,0.6344147
1620,A,938049839966779,1.3143005,8.9322815,-1.8614349,-0.3227539,-0.21273804,-1.373291E-4
1620,A,938049890320783,2.2994843,7.106262,-1.7810822,-0.56185913,-0.04988098,-0.23187256
1620,A,938049940674787,2.9546356,7.578964,-1.4179993,-0.38946533,0.22097778,-0.49086
1620,A,938049991028791,4.7212067,8.942566,-1.7930908,-0.094818115,0.13517761,-0.3633728
1620,A,938050041382795,4.9035797,8.826614,-1.2967529,0.06689453,0.024383545,-0.07009888
1620,A,938050091736798,2.824829,9.085403,-0.55267334,0.18766785,0.0048828125,0.15925598
1620,A,938050142090802,4.7456665,10.667175,-2.7555542,0.13294983,0.27807617,0.12876892
1620,A,938050192444806,2.840088,10.106476,-5.436798,0.13104248,0.034179688,-0.23330688
1620,A,938050242798810,1.0911865,11.976776,-1.6990662,-0.33932495,0.14614868,-0.21569824
1620,A,938050293152814,5.727997,11.07428,-2.937317,-0.33865356,0.16307068,-0.4238739
1620,A,938050343506818,3.177765,7.908539,-0.99520874,0.05470276,0.54655457,-0.15280151
1620,A,938050393860822,0.8825836,6.076538,-0.46017456,0.28663635,-0.10412598,0.20648193
1620,A,938050444214826,1.4223938,6.987335,-0.63401794,0.10777283,-0.36584473,0.45921326
1620,A,938050494568830,2.085846,8.461884,0.4525299,0.29229736,-0.7044678,0.29406738
1620,A,938050544922834,4.091385,8.772232,1.2812042,0.39646912,-0.88446045,0.023254395
1620,A,938050595276838,4.6456757,11.614471,-0.3025818,0.33042908,-0.75979614,-0.104660034
1620,A,938050645630841,3.9117584,12.080505,0.09269714,0.23757935,-0.61628723,-0.10812378
1620,A,938050695984845,2.7184143,12.289825,-4.3701324,0.12754822,-0.46948242,-0.10600281
1620,A,938050746338849,0.78518677,6.364609,-2.0569916,-0.072052,-0.4243927,-0.058120728
1620,A,938050796692853,2.5249023,9.430847,-2.5387573,-0.2875061,-0.49765015,0.34742737
1620,A,938050847046857,0.819046,9.12645,-1.686142,-0.023864746,-0.19140625,0.47839355
1620,A,938050897400861,2.2829742,7.1930695,-1.1998291,-0.41246033,0.102264404,-0.054855347
1620,A,938050947754865,3.656662,7.8664703,-1.296463,-0.4350586,0.26023865,-0.28045654
1620,A,938050998108869,3.8214874,8.316071,-1.7967224,-0.14543152,0.45729065,-0.5462189
1620,A,938051048462873,4.103073,8.608551,-1.3374481,-0.22814941,0.37208557,-0.43527222
1620,A,938051098816877,4.544815,9.812897,-0.693573,-0.06829834,0.30740356,-0.16235352
1620,A,938051149170881,4.9172363,10.812546,-1.775238,0.071777344,0.15202332,0.16001892
1620,A,938051199524884,2.8647614,11.144989,-2.3540192,-0.0960083,-0.011047363,0.21733093
1620,A,938051249878888,2.9095154,8.4449005,-4.003189,-0.20376587,0.16017151,-0.15458679
1620,A,938051300232892,1.9410706,11.816193,-4.0410156,-0.6595764,0.06889343,-0.28295898
1620,A,938051350586896,4.481781,10.85701,-2.5977936,-0.3003235,0.6569977,-0.21455383
1620,A,938051400940900,3.522049,7.8454437,-1.1568604,0.3732605,0.6654968,-0.18441772
1620,A,938051451294904,0.4153595,6.456299,-1.7782135,0.13865662,0.1007843,0.29014587
1620,A,938051501648908,0.8029938,6.6114044,-0.9797516,0.52334595,-0.34732056,0.2772522
1620,A,938051552002912,1.6923828,8.241394,-0.08482361,0.5031128,-0.7201233,0.091415405
1620,A,938051602356916,3.2894135,9.771027,0.3614807,0.1521759,-0.5128021,0.009567261
1620,A,938051652710920,4.856186,11.72908,-0.44148254,0.062576294,-0.2617798,-0.11314392
1620,A,938051703064923,4.608902,12.7686,-2.3085938,-0.15126038,-0.21110535,-0.075424194
1620,A,938051753418927,0.4767456,9.623108,-3.3420715,0.20864868,0.023086548,0.23638916
1620,A,938051803772931,3.366867,7.9236603,-2.5952148,0.25863647,0.22880554,0.44380188
1620,A,938051854126935,0.50497437,9.668015,-2.6886444,-0.26460266,-0.26965332,0.3564911
1620,A,938051904480939,1.0299072,7.1023865,-0.6399689,-0.7766266,-0.44161987,0.10585022
1620,A,938051954834943,2.2183228,7.235077,-1.5136566,-0.5059204,-0.31278992,-0.14083862
1620,A,938052005188947,3.7743835,9.005417,-1.8984222,-0.23295593,-0.0023040771,-0.2549591
1620,A,938052055542951,4.95166,8.656067,-1.4433899,0.21627808,-0.029251099,-0.15841675
1620,A,938052105896955,5.036682,9.708618,-1.2155304,0.23057556,-0.021392822,-0.0029754639
1620,A,938052156250959,5.0606384,9.594711,-0.60298157,0.18164063,0.27876282,0.13824463
1620,A,938052206604963,4.519226,10.694351,-3.6604614,0.119628906,0.5746918,0.031829834
1620,A,938052256958966,-1.3383636,11.358231,-4.0079193,0.03337097,0.7969818,-0.11593628
1620,A,938052307312970,0.7770233,10.724365,-2.5167542,-0.20370483,0.13049316,-0.31495667
1620,A,938052357666974,4.198593,9.800171,-1.7021179,-0.10618591,0.7500763,-0.03289795
1620,A,938052408020978,2.0424652,8.188858,-0.88093567,0.25613403,0.2146759,0.18218994
1620,A,938052458374982,1.5707397,7.3290405,-0.23643494,0.06719971,-0.19258118,0.5476074
1620,A,938052508728986,1.9245148,8.213593,-0.79156494,0.3263092,-0.5213623,0.2780304
1620,A,938052559082990,2.8944855,8.563736,0.65419006,0.09790039,-0.8827362,0.019729614
1620,A,938052609436994,4.807419,8.809891,0.47538757,0.0599823,-1.0486298,-0.12527466
1620,A,938052659790998,4.4136353,10.2595825,-0.36457825,-0.13667297,-0.7179718,-0.16386414
1620,A,938052710145002,2.9290771,13.625656,-4.0373993,-0.091308594,-0.41726685,0.14437866
1620,A,938052760499006,0.16098022,7.7187805,-2.9637604,0.002319336,-0.47477722,0.3028717
1620,A,938052810853009,2.526535,9.091782,-2.0003815,0.04486084,-0.3005371,0.67796326
1620,A,938052861207013,1.1209412,9.662811,-1.8521271,-0.16714478,-0.52168274,0.3972931
1620,A,938052911561017,2.5617676,7.2045593,-1.5339203,-0.7194214,-0.37727356,-0.13394165
1620,A,938052961915021,2.7454681,8.534378,-2.3365784,-0.47853088,-0.17076111,-0.44161987
1620,A,938053012269025,3.9050446,9.047119,-1.7212982,-0.19850159,-0.06399536,-0.48249817
1620,A,938053062623029,5.0270996,8.780106,-1.4233398,-0.05718994,-0.14601135,-0.29832458
1620,A,938053112977033,4.56781,9.202484,-0.11402893,0.18481445,-0.020401001,-0.12513733
1620,A,938053163331037,5.798935,8.942627,-1.3373871,0.09030151,0.3538208,0.06744385
1620,A,938053213685041,2.1679382,10.394745,-3.8763428,-0.03955078,0.26670837,-0.041885376
1620,A,938053264039045,0.69215393,11.658646,-4.089493,-0.5018158,-0.0184021,-0.31251526
1620,A,938053314393048,2.6767578,11.343903,-2.819336,-0.31007385,0.08660889,-0.22975159
1620,A,938053364747052,5.0746307,9.733139,-1.3768768,0.12321472,0.38619995,-0.03703308
1620,A,938053415101056,2.6011963,7.1649475,-0.4379425,0.11552429,-0.059768677,0.26365662
1620,A,938053465455060,1.039154,6.357361,-0.46920776,0.3874054,-0.25987244,0.41297913
1620,A,938053515809064,1.7854767,7.70697,0.19569397,0.40278625,-0.52388,0.08721924
1620,A,938053566163068,3.6062317,8.903168,0.86546326,0.104537964,-0.68544006,0.0075683594
1620,A,938053616517072,5.0964355,11.722351,-0.49595642,-0.073654175,-0.6259918,-0.14698792
1620,A,938053666871076,3.966034,11.963959,-1.2887878,-0.28796387,-0.16447449,-0.08641052
1620,A,938053717225080,0.08164978,10.987473,-4.3245544,-0.037399292,-0.0745697,0.30336
1620,A,938053767579084,2.5698853,7.4407654,-2.1757965,0.2945099,0.5798645,0.50860596
1620,A,938053817933088,1.8982849,9.326553,-2.711502,0.12976074,0.5062561,0.3297882
1620,A,938053868287091,1.1269836,7.712799,-1.0037079,-0.6333008,0.37231445,-0.09667969
1620,A,938053918641095,3.2662354,6.9055786,-2.0835876,-0.2896576,0.6040039,-0.48970032
1620,A,938053968995099,2.694931,8.794464,-2.2408295,-0.055541992,0.71307373,-0.5740509
1620,A,938054019349103,4.608673,9.315857,-1.6800537,0.028015137,0.628952,-0.31991577
1620,A,938054069703107,5.413315,9.296951,-1.0202789,0.027282715,0.4143982,0.012924194
1620,A,938054120057111,5.0488586,9.30542,-0.19142151,0.035980225,0.43885803,0.16241455
1620,A,938054170411115,4.0038147,9.040649,-2.720932,-0.013092041,0.10160828,-0.1589508
1620,A,938054220765119,1.1711578,11.8272705,-4.7627106,-0.4981842,0.42668152,-0.031295776
1620,A,938054271119123,2.2761688,13.160812,-4.085022,-0.20353699,-0.050247192,-0.4360199
1620,A,938054321473127,4.912552,9.659439,-1.4451141,-0.25453186,0.76348877,0.006149292
1620,A,938054371827131,2.1741638,6.5310516,-0.9317627,0.3375244,0.09806824,0.27497864
1620,A,938054422181134,0.2546997,5.3438873,-1.0640564,0.36825562,-0.29553223,0.48764038
1620,A,938054472535138,1.0831757,7.2996063,-0.30552673,0.525589,-0.6435089,0.15992737
1620,A,938054522889142,2.8748932,9.327637,1.1488953,0.44151306,-0.78178406,-0.122558594
1620,A,938054573243146,4.9075623,11.757782,0.09968567,0.23789978,-0.6205902,-0.2530365
1620,A,938054623597150,3.7719574,10.429977,0.9680481,-0.054641724,-0.3413849,-0.29891968
1620,A,938054673951154,2.9887695,12.836868,-3.872879,0.10513306,-0.18443298,0.11180115
1620,A,938054724305158,1.5157471,8.619064,-4.5494537,0.21406555,0.53215027,0.39556885
1620,A,938054774659162,2.884674,8.8517,-1.708435,0.4880066,0.7764435,0.37890625
1620,A,938054825013166,0.8226013,8.082199,-0.7640686,-0.14001465,0.49346924,0.03552246
1620,A,938054875367170,2.4067993,6.63739,-1.6567535,-0.34555054,0.62542725,-0.21368408
1620,A,938054925721173,3.1039581,7.1922913,-1.4538422,-0.010803223,0.9305115,-0.6064911
1620,A,938054976075177,4.772064,8.990311,-1.0742798,0.26667786,0.8650055,-0.43258667
1620,A,938055026429181,5.0229187,9.434265,-0.9766998,0.2216034,0.8344574,-0.14930725
1620,A,938055076783185,5.1027985,10.496567,-0.051132202,0.3786621,0.6593323,-0.031021118
1620,A,938055127137189,5.7825775,10.546875,-2.5381775,0.14595032,0.53279114,0.012771606
1620,A,938055177491193,2.8513947,8.501434,-4.07518,-0.17530823,0.5742035,0.0053100586
1620,A,938055227845197,1.6523285,12.908081,-3.6833649,-0.5169525,0.43611145,-0.44519043
1620,A,938055278199201,4.153,11.291458,-3.344513,0.04899597,1.1869049,-0.11231995
1620,A,938055328553205,3.1416473,6.463196,-1.3188934,0.62150574,0.5326843,0.13871765
1620,A,938055378907209,0.5114136,5.318878,-0.8131256,0.46200562,-0.032546997,0.50094604
1620,A,938055429261213,0.7638092,6.9973755,-1.3702698,0.61712646,-0.6706085,0.3065796
1620,A,938055479615216,2.5348663,8.786072,0.4312744,0.34536743,-0.65896606,0.11373901
1620,A,938055529969220,4.681671,10.604767,-0.18666077,0.23031616,-0.2277832,0.050476074
1620,A,938055580323224,4.4087067,11.30217,-0.35968018,0.08747864,-0.23710632,-0.07757568
1620,A,938055630677228,3.7796173,14.076279,-4.3295746,0.2137146,-0.24482727,0.35134888
1620,A,938055681031232,1.8756714,7.4513397,-2.3505707,0.11122131,0.1589508,0.54107666
1620,A,938055731385236,3.1536713,8.847931,-2.2316284,-0.30911255,-0.09580994,0.35424805
1620,A,938055781739240,-0.43904114,7.952545,-1.903305,-0.64398193,-0.48757935,-0.11433411
1620,A,938055832093244,0.39881897,6.051712,-1.6417542,-0.5804291,-0.3795166,-0.4045868
1620,A,938055882447248,4.289734,8.408112,-1.8674316,-0.52775574,-0.11038208,-0.55366516
1620,A,938055932801252,5.480057,8.916229,-1.5078583,-0.2060852,-0.4081421,-0.27798462
1620,A,938055983155256,4.581009,8.73793,-0.9584656,-0.033096313,-0.43695068,0.1583252
1620,A,938056033509259,4.7012787,10.614655,-1.1582947,-0.18273926,0.0063934326,0.14982605
1620,A,938056083863263,5.203537,11.161163,-3.8629456,-0.30885315,0.16331482,-0.060180664
1620,A,938056134217267,1.6972809,11.242264,-5.6479645,-0.35438538,0.25704956,-0.22000122
1620,A,938056184571271,0.7581482,11.67308,-2.829956,-0.41392517,-0.27693176,-0.40263367
1620,A,938056234925275,4.002411,8.672867,-2.3174896,-0.24435425,1.0834198,0.08091736
1620,A,938056285279279,2.6233063,6.726883,-1.667511,0.6001129,0.19055176,0.3307953
1620,A,938056335633283,1.0865784,6.7218933,-0.5405426,0.43614197,-0.24491882,0.4660492
1620,A,938056385987287,1.1603241,8.522278,0.067993164,0.6121826,-0.7156372,0.16490173
1620,A,938056436341291,3.7150726,9.563171,1.6127777,0.3512268,-0.99568176,-0.11857605
1620,A,938056486695295,5.367737,10.209,1.2347412,-0.07312012,-0.87638855,-0.14112854
1620,A,938056537049298,3.0435944,9.790131,0.5246277,-0.17437744,-0.40742493,-0.047561646
1620,A,938056587403302,1.5670776,14.065338,-6.119644,0.061782837,-0.20043945,0.23945618
1620,A,938056637757306,3.6089172,7.846298,-4.209976,-0.029571533,0.33947754,0.58714294
1620,A,938056688111310,2.1351776,8.311035,-0.120895386,0.3184967,0.26887512,0.45951843
1620,A,938056738465314,0.512619,7.970169,-1.4597931,-0.47607422,0.029556274,0.02720642
1620,A,938056788819318,2.5962677,6.6019135,-1.8502655,-0.4347229,0.450531,-0.40335083
1620,A,938056839173322,2.988327,7.529312,-1.7922516,-0.21321106,0.60076904,-0.63549805
1620,A,938056889527326,4.6596375,9.473251,-1.7909241,0.14910889,0.32936096,-0.47114563
1620,A,938056939881330,5.0457306,9.527206,-0.8566284,0.2566681,0.23893738,-0.14582825
1620,A,938056990235334,6.4446564,9.426331,-0.8161316,0.29852295,0.29074097,0.09666443
1620,A,938057040589338,3.4852905,10.3520355,-3.716858,0.050369263,0.0438385,-0.04272461
1620,A,938057090943341,1.2112427,9.543198,-4.126404,-0.4564209,0.29180908,0.06951904
1620,A,938057141297345,2.1017456,13.850433,-4.0948334,-0.31549072,-0.20285034,-0.5138855
1620,A,938057191651349,5.109741,10.608856,-2.4355164,-0.35960388,0.18603516,-0.100128174
1620,A,938057242005353,3.3495026,6.823929,-1.0427246,0.08657837,0.2920227,0.09553528
1620,A,938057292359357,0.6216736,5.8917847,-0.0025634766,0.2796631,-0.2908783,0.45121765
1620,A,938057342713361,0.6996155,5.9582214,-0.55693054,0.44361877,-0.7663574,0.38813782
1620,A,938057393067365,2.4400024,7.855789,0.5201721,0.20446777,-1.0240784,0.083496094
1620,A,938057443421369,4.66481,11.739456,-1.0750885,-0.13699341,-1.2758026,-0.09602356
1620,A,938057493775373,4.074478,12.072937,0.7014618,-0.45619202,-0.9001465,-0.0056762695
1620,A,938057544129377,3.4397278,11.603256,-2.1081696,-0.16543579,-0.32073975,0.28756714
1620,A,938057594483381,0.031051636,10.091187,-5.084427,0.19485474,0.3771057,0.3547516
1620,A,938057644837384,3.5401,8.400482,-2.3798065,0.3479004,0.36827087,0.577713
1620,A,938057695191388,0.034744263,8.752762,-1.1881409,-0.29516602,-0.35112,0.22657776
1620,A,938057745545392,1.91362,6.942169,-1.297348,-0.8832855,-0.21626282,-0.1894989
1620,A,938057795899396,2.8680115,7.068634,-2.2528992,-0.2821045,0.1423645,-0.5402527
1620,A,938057846253400,3.5144958,8.772293,-2.0735626,0.007446289,0.113861084,-0.3993683
1620,A,938057896607404,4.3996124,9.592712,-1.6420135,0.11026001,-0.0017852783,-0.05644226
1620,A,938057946961408,7.2699127,9.349457,-0.2368927,0.23970032,0.39485168,0.15052795
1620,A,938057997315412,7.1050415,9.509033,-1.8009186,0.25527954,0.42230225,-0.020431519
1620,A,938058047669416,0.36405945,9.99765,-4.555313,-0.33843994,0.45030212,-0.18951416
1620,A,938058098023420,-0.80410767,13.459595,-3.4132538,-0.26652527,-0.52627563,-0.7359314
1620,A,938058148377423,3.6256866,11.781006,-3.255005,-0.47720337,0.34449768,-0.2372284
1620,A,938058198731427,3.968689,7.1493225,0.017593384,0.0554657,0.058258057,0.20796204
1620,A,938058249085431,1.32724,5.376877,-0.0023651123,0.4112854,-0.51368713,0.47914124
1620,A,938058299439435,0.72257996,6.841797,-0.36618042,0.62631226,-1.0806427,0.18621826
1620,A,938058349793439,2.8630219,8.47435,1.1527252,0.022842407,-1.1235657,0.049835205
1620,A,938058400147443,5.8628235,10.98996,1.0519104,-0.32876587,-0.73075867,0.018737793
1620,A,938058450501447,3.4322052,12.248093,-1.0792542,-0.19284058,-0.4006958,-0.19732666
1620,A,938058500855451,2.5699615,12.163162,-3.1152496,-0.12974548,-0.07852173,0.056167603
1620,A,938058551209455,0.11567688,9.587173,-5.516159,-0.08538818,0.43832397,0.36825562
1620,A,938058601563459,2.559204,8.888306,-2.68898,0.31687927,0.94880676,0.44396973
1620,A,938058651917463,0.5858002,7.6862946,-0.9249878,-0.016784668,0.43203735,0.25550842
1620,A,938058702271466,1.5788574,6.321228,-1.6222687,-0.6075897,0.82321167,-0.045532227
1620,A,938058752625470,2.679596,7.988922,-3.0120544,0.0896759,1.3888092,-0.56489563
1620,A,938058802979474,5.0523224,9.056686,-1.6159363,0.43621826,1.185379,-0.5059509
1620,A,938058853333478,5.6619263,8.5634,-0.20953369,0.45921326,0.9493103,-0.28053284
1620,A,938058903687482,5.3507233,10.363571,-0.9560394,0.19288635,0.77394104,-0.0066223145
1620,A,938058954041486,5.9482117,10.242004,-1.8080902,0.36026,0.110061646,0.07928467
1620,A,938059004395490,1.6903687,7.8603516,-3.0194855,-0.1349945,0.45681763,0.110687256
1620,A,938059054749494,1.3313141,14.105209,-3.7132416,-0.11453247,0.12973022,-0.35585022
1620,A,938059105125504,4.747635,12.63797,-3.825241,-0.24455261,-0.30326843,-0.25476074
1620,A,938059155479508,4.3124695,6.92334,-0.09515381,-0.031921387,0.41044617,0.015426636
1620,A,938059205833512,1.0772095,5.3131104,-0.67866516,0.13916016,-0.3083954,0.36909485
1620,A,938059256187515,0.18136597,5.149124,-1.0848694,0.38676453,-0.72776794,0.4232483
1620,A,938059306541519,1.7961273,8.301392,-0.68777466,0.39109802,-1.1473389,0.13450623
1620,A,938059356895523,3.2522736,11.572815,-0.1559906,-0.014511108,-1.1132202,-0.011627197
1620,A,938059407249527,4.678955,11.340851,-0.18591309,-0.15156555,-0.7367859,-0.11302185
1620,A,938059457603531,5.0599976,9.847733,0.20193481,-0.23834229,-0.27633667,-0.027999878
1620,A,938059507957535,0.16584778,13.465363,-5.06485,0.08430481,-0.09950256,0.30451965
1620,A,938059558311539,2.219757,7.554062,-3.9477081,0.31472778,0.6441803,0.6086426
1620,A,938059608665543,1.5127869,8.863937,-2.0408936,0.5089569,0.49201965,0.38064575
1620,A,938059659019547,1.2768555,7.283142,-1.2510223,-0.8614502,0.47045898,0.086517334
1620,A,938059709373551,2.7845612,6.7485657,-1.7015533,-0.37335205,0.8153076,-0.36053467
1620,A,938059759727554,3.8993835,8.334747,-1.6139069,0.03477478,0.76724243,-0.6008301
1620,A,938059810081558,5.141464,8.896225,-0.8606262,0.2972107,0.56243896,-0.2801361
1620,A,938059860435562,5.283432,9.576248,-0.39349365,0.3084259,0.35308838,0.04849243
1620,A,938059910789566,6.9834595,10.073242,-0.07272339,0.2957306,0.51524353,0.19828796
1620,A,938059961143570,3.1790009,9.483124,-2.4752502,0.19894409,0.16816711,-0.19470215
1620,A,938060011497574,1.9896545,11.028381,-3.7872467,-0.3499298,0.22244263,-0.20872498
1620,A,938060061851578,2.7662659,14.23735,-5.339554,-0.3424225,-0.23246765,-0.3184204
1620,A,938060112205582,4.4409485,9.01503,-1.1821289,-0.20292664,0.54389954,0.17906189
1620,A,938060162559586,2.5836334,5.907852,-0.51130676,0.4402771,-0.20568848,0.30645752
1620,A,938060212913590,-0.26182556,5.4227295,-0.45610046,-0.05770874,-0.58729553,0.61257935
1620,A,938060263267594,1.2979889,6.8881073,-0.21998596,0.16226196,-1.0302582,0.42468262
1620,A,938060313621597,3.3050995,8.930725,1.064331,0.22332764,-1.408844,-0.022232056
1620,A,938060363975601,5.5007935,12.011368,-0.51322937,0.0013122559,-1.1291962,-0.17538452
1620,A,938060414329605,3.8070984,11.3638,0.48832703,-0.29016113,-0.7601929,-0.09701538
1620,A,938060464683609,2.3752594,13.734665,-5.539215,-0.1496582,-0.5119934,0.23692322
1620,A,938060515037613,1.0225372,7.3046722,-3.4829407,-0.08312988,0.0013427734,0.46383667
1620,A,938060565391617,3.4492188,8.73938,-1.820404,0.23220825,0.28608704,0.4927826
1620,A,938060615745621,0.5162201,9.094803,-2.4951172,-0.7086334,-0.2157898,0.08137512
1620,A,938060666099625,2.2813568,6.44516,-1.6248779,-0.6328583,0.14334106,-0.31048584
1620,A,938060716453629,3.8239899,6.7951355,-1.6825256,-0.24772644,0.45606995,-0.64212036
1620,A,938060766807633,4.49115,8.128265,-1.4134064,-0.053604126,0.46099854,-0.48005676
1620,A,938060817161637,5.2550354,9.261963,-0.2894287,0.08079529,0.6496124,-0.06478882
1620,A,938060867515640,5.8612213,10.579666,0.37809753,0.30389404,0.81573486,0.03527832
1620,A,938060917869644,5.5551147,9.933594,-1.9616241,0.07235718,0.38905334,-0.12413025
1620,A,938060968223648,2.3824463,8.741867,-3.637848,-0.5795288,0.6887512,-0.24595642
1620,A,938061018577652,3.589096,14.865173,-4.68309,-0.11395264,-0.09036255,-0.45362854
1620,A,938061068931656,4.8780823,10.530472,-2.2966156,-0.018051147,0.7821655,-0.06199646
1620,A,938061119285660,3.5778809,6.2760468,-0.6450653,0.46003723,0.17248535,0.24424744
1620,A,938061169639664,0.72335815,5.0607605,-0.8602905,0.19360352,-0.3601532,0.6789551
1620,A,938061219993668,1.1498413,5.609741,0.05177307,0.5836792,-1.1336517,0.34519958
1620,A,938061270347672,3.8102112,9.158585,1.7248993,0.30158997,-1.2811584,-0.120162964
1620,A,938061320701676,5.190201,11.682587,-0.7704315,0.008132935,-0.91044617,-0.08711243
1620,A,938061371055679,2.768341,10.393875,0.36468506,-0.07728577,-0.5094452,-0.21183777
1620,A,938061421409683,2.683609,13.588379,-4.667633,0.1824646,-0.26286316,0.23472595
1620,A,938061471763687,3.0332031,8.270294,-5.0687866,0.07727051,0.12591553,0.5814514
1620,A,938061522117691,2.765976,8.681442,-2.337967,0.2916565,0.41461182,0.6201935
1620,A,938061572471695,-0.40275574,8.516296,-1.6141357,-0.19390869,-0.07008362,0.07888794
1620,A,938061622825699,2.2266693,6.4836426,-1.0749207,-0.47546387,0.23291016,-0.43821716
1620,A,938061673179703,3.7046509,7.1312714,-1.8249512,-0.16358948,0.48579407,-0.8128357
1620,A,938061723533707,4.999176,8.761368,-1.3092194,-0.031311035,0.26158142,-0.6380768
1620,A,938061773887711,5.7453003,8.745926,-0.45643616,0.09841919,0.2164917,-0.11172485
1620,A,938061824241715,5.59494,9.992493,-0.03567505,0.17669678,0.57014465,0.20527649
1620,A,938061874595719,5.3684235,10.744003,-2.8039856,0.039916992,0.12557983,-0.0770874
1620,A,938061924949722,2.1044006,9.107574,-3.6680603,-0.60414124,0.07095337,-0.29232788
1620,A,938061975303726,2.2114868,13.605347,-3.6833038,-0.5328522,-0.6030731,-0.4464264
1620,A,938062025657730,4.9181213,10.905594,-3.0275574,-0.33184814,0.66337585,0.054367065
1620,A,938062076011734,3.562851,7.0026855,-1.000061,0.470932,0.07647705,0.3924713
1620,A,938062126365738,0.92137146,4.9429626,-0.8200226,0.23356628,-0.24220276,0.46871948
1620,A,938062176719742,0.6540222,6.0978546,-0.6659088,0.29803467,-0.75271606,0.2605133
1620,A,938062227073746,2.4865112,8.124542,0.8995514,0.1055603,-1.0959625,-0.041381836
1620,A,938062277427750,5.7768707,12.093933,-0.32373047,0.013687134,-0.876297,-0.17106628
1620,A,938062327781754,2.082611,12.430359,-0.32592773,-0.1465149,-0.39907837,-0.19064331
1620,A,938062378135758,1.8609619,13.6289215,-5.225342,0.10411072,-0.24435425,0.28588867
1620,A,938062428489762,3.1841125,8.062607,-4.679962,0.04399109,0.40733337,0.45936584
1620,A,938062478843765,2.7416534,8.69783,-1.6874847,0.53544617,0.5445862,0.59194946
1620,A,938062529197769,0.89079285,7.6176453,-1.6663208,-0.16268921,-0.0031433105,0.06565857
1620,A,938062579551773,1.9970245,6.746994,-1.8774261,-0.4744873,0.29959106,-0.36186218
1620,A,938062629905777,2.9957733,7.2762146,-1.9262848,-0.06324768,0.5324249,-0.6709442
1620,A,938062680259781,4.8569946,8.36618,-1.3604126,0.122787476,0.59687805,-0.5578613
1620,A,938062730613785,5.766876,8.793106,-0.6803436,0.24258423,0.8122864,-0.1270752
1620,A,938062780967789,5.5833282,10.450806,-0.09277344,0.32614136,0.8348541,0.05718994
1620,A,938062831321793,5.5518646,10.3550415,-2.782837,-0.018096924,0.2725067,-0.13615417
1620,A,938062881675797,1.8975525,8.786591,-3.4654694,-0.6907959,0.2531433,-0.21554565
1620,A,938062932029801,2.4727325,14.023956,-4.2158203,-0.4104309,0.007583618,-0.3759613
1620,A,938062982383804,4.5269165,10.80069,-3.3390198,0.04244995,0.53718567,0.016571045
1620,A,938063032737808,3.1147614,6.3824463,-0.6068115,0.4603119,-0.0209198,0.33598328
1620,A,938063083091812,1.3040619,4.923584,-0.98527527,0.3078308,-0.25987244,0.44006348
1620,A,938063133445816,1.054718,5.8810425,-0.5909729,0.26533508,-0.79000854,0.301651
1620,A,938063183799820,3.3329315,9.288834,1.006546,0.054031372,-1.13031,0.026641846
1620,A,938063234153824,5.44252,12.375153,-1.7530823,-0.11579895,-0.83592224,-0.109954834
1620,A,938063284507828,2.7614594,12.0060425,-0.83880615,-0.29312134,-0.3760376,-0.06440735
1620,A,938063334861832,1.610321,12.151627,-5.24234,0.035583496,-0.38078308,0.38806152
1620,A,938063385215836,2.7829742,8.086853,-3.2644958,0.2375946,0.41722107,0.6930237
1620,A,938063435569840,2.1279297,8.599197,-1.6652069,0.21292114,0.23466492,0.44737244
1620,A,938063485923844,0.6943207,7.261017,-2.083603,-0.6788788,-0.068237305,-0.032989502
1620,A,938063536277847,1.5696564,6.4496613,-2.3177032,-0.34796143,0.35888672,-0.3874054
1620,A,938063586631851,3.7865295,7.857132,-1.7596893,0.14537048,0.46174622,-0.62757874
1620,A,938063636985855,5.9127502,9.061478,-1.0786438,0.2107544,0.541214,-0.4876709
1620,A,938063687339859,5.2402954,9.035217,-0.53601074,0.33746338,0.6540985,-0.084732056
1620,A,938063737693863,5.816986,9.417969,-0.18501282,0.41184998,0.6849365,0.11038208
1620,A,938063788047867,3.4882813,9.783127,-2.906021,0.0059814453,0.3653717,-0.07635498
1620,A,938063838401871,1.8173676,10.635025,-4.6953278,-0.45503235,0.14079285,-0.44702148
1620,A,938063888755875,3.050644,14.512665,-4.0308685,-0.30400085,0.079559326,-0.47331238
1620,A,938063939109879,5.7437286,10.183975,-1.313736,-0.0065307617,0.4558258,-0.044052124
1620,A,938063989463883,2.9153137,5.6946716,-0.21958923,0.28826904,-0.30334473,0.4262848
1620,A,938064039817887,0.576416,4.4858704,-0.9393921,0.17782593,-0.7538452,0.56121826
1620,A,938064090171890,1.3586426,6.555496,-0.0662384,0.10423279,-1.309021,0.34825134
1620,A,938064140525894,3.9023285,9.456741,0.8264923,-0.041519165,-1.4102478,0.09408569
1620,A,938064190879898,4.432968,12.379547,-1.6511841,-0.29197693,-0.8113098,-0.048446655
1620,A,938064241233902,3.958435,11.918991,-0.31304932,-0.32954407,-0.41786194,-0.11685181
1620,A,938064291587906,1.2945862,12.518951,-5.7875824,-0.14958191,-0.2848053,0.26158142
1620,A,938064341941910,2.2511444,7.899109,-3.8214264,0.22702026,0.39169312,0.599823
1620,A,938064392295914,1.3060303,8.396744,-1.886322,0.20455933,0.2527771,0.33151245
1620,A,938064442649918,0.29229736,7.838318,-2.0578003,-0.87008667,0.332489,0.00819397
1620,A,938064493003922,1.9077454,6.72229,-2.3371582,-0.26190186,0.78300476,-0.5013733
1620,A,938064543357926,3.914505,8.06282,-1.8582916,0.124801636,0.7837982,-0.68081665
1620,A,938064593711929,5.6234436,8.858429,-0.9520874,0.32392883,0.58096313,-0.36964417
1620,A,938064644065933,5.9257813,9.090012,0.07154846,0.27020264,0.6358948,0.050735474
1620,A,938064694419937,5.699463,9.352386,-0.35144043,0.57395935,0.5080261,0.14399719
1620,A,938064744773941,3.1442719,8.971344,-2.0073242,0.061340332,0.1199646,-0.03314209
1620,A,938064795127945,2.2987518,11.370636,-4.69812,-0.3834381,0.3930664,-0.19334412
1620,A,938064845481949,4.6578827,15.324982,-4.973526,-0.2348175,-0.04421997,-0.45462036
1620,A,938064895835953,5.968155,9.54509,-0.44404602,-0.2956848,0.645874,0.04586792
1620,A,938064946189957,2.2303467,5.0802,-0.6247711,0.38467407,0.0032043457,0.3468628
1620,A,938064996543961,-0.4718933,4.096298,-0.86979675,0.08181763,-0.23516846,0.50968933
1620,A,938065046897965,0.7241821,6.0159607,-0.3668213,0.24118042,-0.90774536,0.24771118
1620,A,938065097251969,3.8776398,9.924133,1.5094757,0.11402893,-1.6362152,-0.09875488
1620,A,938065147605972,5.5308533,12.504791,-2.037094,-0.14405823,-1.4672089,-0.20475769
1620,A,938065197959976,4.3794403,11.674011,0.8274689,-0.39175415,-0.81733704,-0.22085571
1620,A,938065248313980,2.3835754,12.794495,-4.953308,0.1993103,-0.4481964,0.11607361
1620,A,938065298667984,0.26057434,7.622177,-3.9248505,0.17422485,-0.001953125,0.34588623
1620,A,938065349021988,3.441269,8.7977295,-1.6498871,0.5283966,0.41622925,0.58258057
1620,A,938065399375992,0.85661316,8.2314,-1.8905029,0.014511108,0.12020874,0.072753906
1620,A,938065449729996,1.8849792,6.5283203,-1.4075317,-0.8299713,0.31071472,-0.23881531
1620,A,938065500084000,3.4222412,7.584015,-1.9990234,-0.22035217,0.43063354,-0.50335693
1620,A,938065550438004,4.6271057,8.426529,-1.2641602,0.16319275,0.310318,-0.53456116
1620,A,938065600792008,5.3296356,9.389313,-0.8643799,0.2889557,0.17160034,-0.11764526
1620,A,938065651146012,6.9005127,9.2948,0.7627106,0.37150574,0.2296753,0.13259888
1620,A,938065701500015,5.352539,10.619141,-2.7554626,0.25726318,0.39007568,-0.022155762
1620,A,938065751854019,1.7290802,10.304871,-3.4615936,-0.2725525,0.25712585,-0.1995697
1620,A,938065802208023,2.616455,12.172897,-3.7625275,-0.33192444,-0.78063965,-0.40196228
1620,A,938065852562027,3.2339935,11.4995575,-4.332321,-0.49565125,0.50894165,0.07536316
1620,A,938065902916031,3.4501648,6.9499054,-0.78652954,0.17573547,-0.13198853,0.39215088
1620,A,938065953270035,1.217392,4.7834015,-0.09359741,0.16374207,-0.62283325,0.4920044
1620,A,938066003624039,0.78552246,6.454727,-0.6512146,0.2032013,-0.8768616,0.37435913
1620,A,938066053978043,2.9168396,8.884216,1.0426788,-0.15818787,-1.4482117,-0.014434814
1620,A,938066104332047,5.824753,10.321579,0.37278748,-0.18099976,-1.3251038,-0.08670044
1620,A,938066154686051,3.535675,12.376068,-1.526535,-0.3376007,-0.39337158,-0.200531
1620,A,938066205040054,2.7510529,13.381088,-5.033615,0.1985321,-0.06985474,0.14369202
1620,A,938066255394058,-1.4568939,8.129349,-4.706253,0.6224518,0.5226898,0.5497589
1620,A,938066305748062,3.121704,9.153336,-1.2120819,0.43969727,0.51651,0.47457886
1620,A,938066356102066,1.5789032,8.224503,-2.5552673,-0.6034088,0.091171265,0.018753052
1620,A,938066406456070,1.4010773,6.681366,-2.8742828,-0.8229523,0.22842407,-0.3707428
1620,A,938066456810074,2.5493317,7.4464417,-3.031723,-0.4389038,0.4615631,-0.5809784
1620,A,938066507164078,4.7387543,8.805496,-1.6537476,0.23365784,0.2758026,-0.38098145
1620,A,938066557518082,5.836197,8.002792,-1.0540619,0.21318054,0.32281494,0.027175903
1620,A,938066607872086,6.143875,8.934036,0.35588074,0.06097412,0.6049347,0.18803406
1620,A,938066658226090,4.8728943,10.1497345,-2.4579773,-0.013198853,0.19204712,-0.109375
1620,A,938066708580094,1.8359528,11.449219,-4.5471497,-0.4671936,0.15522766,-0.3578186
1620,A,938066758934097,2.0844116,13.392639,-5.205139,-0.4752655,-0.28857422,-0.3688202
1620,A,938066809288101,3.5284576,10.060654,-3.1445923,-0.21025085,0.35055542,0.048797607
1620,A,938066859642105,2.6676636,6.963745,-1.1138,0.40948486,-0.19296265,0.3118744
1620,A,938066909996109,1.3420105,6.122925,0.08073425,0.30703735,-0.5421295,0.52378845
1620,A,938066960350113,1.6674042,6.619858,-0.59776306,0.22958374,-1.026001,0.28450012
1620,A,938067010704117,3.1513367,8.842194,0.49827576,-0.019714355,-1.2786102,-0.03213501
1620,A,938067061058121,5.2434387,10.784805,-0.1322937,-0.24401855,-0.9153595,-0.17958069
1620,A,938067111412125,3.1247253,11.268326,-0.2793274,-0.29838562,-0.49813843,-0.06478882
1620,A,938067161766129,1.6027985,13.234665,-6.39299,0.06939697,-0.16555786,0.27296448
1620,A,938067212120133,2.1879883,8.448502,-3.241867,0.40016174,0.6164398,0.61235046
1620,A,938067262474137,2.595932,8.145493,-1.6876373,0.67433167,0.63191223,0.5427704
1620,A,938067312828140,0.98625183,7.8918915,-1.7979889,-0.5050049,0.38702393,0.03565979
1620,A,938067363182144,2.2452393,6.777237,-2.331192,-0.48420715,0.5853882,-0.38179016
1620,A,938067413536148,3.225006,7.657089,-2.344162,-0.036102295,0.74150085,-0.6409912
1620,A,938067463890152,4.8871307,8.754166,-1.3668213,0.3602295,0.6265259,-0.35118103
1620,A,938067514244156,5.827118,9.14473,-0.19657898,0.45088196,0.43418884,-0.0038909912
1620,A,938067564598160,6.234787,9.528732,0.08660889,0.17399597,0.49142456,0.08773804
1620,A,938067614952164,4.654709,10.07634,-2.864563,-0.026168823,0.04789734,0.00390625
1620,A,938067665306168,2.201233,9.796036,-4.164978,-0.5137634,-0.30636597,-0.29536438
1620,A,938067715660172,2.527298,13.7560425,-5.060562,-0.43530273,-0.34985352,-0.28570557
1620,A,938067766014176,4.2158813,10.144745,-2.462616,-0.09719849,0.12554932,0.19311523
1620,A,938067816368179,3.07135,5.9851837,-0.75001526,-0.08241272,-0.4210205,0.426651
1620,A,938067866722183,0.69355774,4.8410797,-0.40168762,0.2315216,-0.7486267,0.486969
1620,A,938067917076187,1.2576904,7.379196,-0.16064453,0.058380127,-0.9374237,0.29011536
1620,A,938067967430191,3.951828,9.098755,0.4051056,-0.025222778,-1.3390045,0.14839172
1620,A,938068017784195,5.029724,11.464859,-0.6046448,-0.105773926,-1.1662292,-0.07060242
1620,A,938068068138199,2.749298,11.823425,-1.3485413,-0.37287903,-0.64356995,0.18890381
1620,A,938068118492203,1.7805634,12.763306,-5.2514343,-0.19987488,-0.28627014,0.46704102
1620,A,938068168846207,3.0496826,8.1091,-2.3623962,-0.15275574,-0.20407104,0.76963806
1620,A,938068219200211,2.1456451,8.895889,-2.6903381,-0.3505249,-0.7926483,0.38697815
1620,A,938068269554215,1.2051697,6.701645,-1.2944794,-0.7761688,-0.6595764,-0.16542053
1620,A,938068319908219,2.318573,5.6930237,-2.5118713,-0.5726013,-0.3595276,-0.5158539
1620,A,938068370262222,3.8507385,8.632553,-1.4421539,-0.18777466,-0.22146606,-0.5899658
1620,A,938068420616226,4.743744,8.375992,-1.3230438,0.076828,-0.33798218,-0.30166626
1620,A,938068470970230,5.2857513,9.803589,-1.2906647,0.20201111,-0.18484497,0.026733398
1620,A,938068521324234,7.0971527,9.599396,-0.937027,-0.01184082,0.28222656,0.18457031
1620,A,938068571678238,3.2933807,9.906723,-4.063675,-0.17486572,0.25482178,-0.006072998
1620,A,938068622032242,-0.556015,12.427811,-4.18042,-0.5418854,-0.16862488,-0.49975586
1620,A,938068672386246,4.2875214,11.797287,-2.9585724,-0.14601135,0.07070923,-0.14253235
1620,A,938068722740250,5.66098,9.44014,-1.2172699,-0.18811035,0.23806763,0.0012969971
1620,A,938068773094254,2.569641,5.712967,-0.4047699,0.144104,-0.47810364,0.45921326
1620,A,938068823448258,1.5000305,5.5576324,-0.4050598,0.16999817,-0.603775,0.51078796
1620,A,938068873802262,2.0173187,7.826355,0.54985046,0.10118103,-0.83432007,0.13970947
1620,A,938068924156265,4.3136597,10.147507,1.2521362,-0.010299683,-1.1490936,0.03540039
1620,A,938068974510269,6.2509155,11.4270935,-0.56185913,-0.03199768,-0.7249603,-0.13398743
1620,A,938069024864273,3.0438843,12.195557,-2.6905518,-0.107177734,-0.38859558,0.17349243
1620,A,938069075218277,0.01737976,11.379776,-4.0891266,-0.4093628,-0.35438538,0.4061737
1620,A,938069125563213,4.112625,8.604416,-3.158142,-0.08811951,0.15887451,0.5289459
1620,A,938069175917217,0.2690277,8.269699,-1.8863525,0.030838013,-0.3266449,0.25804138
1620,A,938069226271221,1.6063232,6.3355103,-1.8359833,-0.8348694,-0.112091064,-0.21838379
1620,A,938069276625225,3.8105774,6.7938232,-1.7601166,-0.28904724,0.29629517,-0.62501526
1620,A,938069326979229,3.645218,8.523895,-1.166748,-0.08607483,0.301651,-0.55511475
1620,A,938069377333233,5.1863556,8.163879,-0.9043579,-0.10954285,0.29022217,-0.1860199
1620,A,938069427687236,5.439209,10.2773285,-1.1190948,0.16444397,0.042434692,0.23849487
1620,A,938069478041240,6.232086,10.987778,-1.5305939,0.1968689,0.18966675,0.124557495
1620,A,938069528395244,2.7719269,8.366058,-3.4390411,-0.02607727,0.17437744,-0.047531128
1620,A,938069578749248,0.9300232,12.381485,-3.76651,-0.36619568,-0.08140564,-0.28060913
1620,A,938069629103252,4.329315,13.330154,-4.647995,-0.25497437,-0.32678223,-0.4880371
1620,A,938069679457256,6.0144653,9.172119,-0.4300995,-0.023376465,0.34443665,-0.07157898
1620,A,938069729811260,1.7045441,4.512787,-0.779129,0.09442139,-0.31721497,0.49183655
1620,A,938069780165264,0.42308044,3.9910126,-0.8815155,0.15553284,-0.61698914,0.58425903
1620,A,938069830519268,1.4777985,7.9415894,0.7396698,0.21104431,-0.8850403,0.25802612
1620,A,938069880873272,4.463272,9.789032,0.8605194,0.16401672,-1.1706085,0.059188843
1620,A,938069931227276,5.9935303,12.650925,-0.61579895,0.04862976,-0.9550476,-0.040664673
1620,A,938069981581279,4.109314,11.387756,-0.68237305,-0.18489075,-0.57429504,0.053512573
1620,A,938070031935283,1.1689453,11.94397,-5.0057526,-0.20048523,-0.3209839,0.5205536
1620,A,938070082289287,3.0943298,8.454285,-3.0850372,-0.24986267,0.14239502,0.64541626
1620,A,938070132643291,1.1746521,8.857956,-2.6370087,-0.17297363,-0.26016235,0.5484009
1620,A,938070182997295,0.8079376,7.429718,-1.6776733,-0.43278503,-0.5004883,-0.058898926
1620,A,938070233351299,2.9497986,5.5877686,-1.4471741,-0.41366577,-0.22769165,-0.52949524
1620,A,938070283705303,4.164154,7.865921,-0.89949036,-0.14091492,0.10882568,-0.648468
1620,A,938070334059307,4.7437134,8.415634,-1.4150696,-0.21372986,0.0901947,-0.5181122
1620,A,938070384413311,5.0330048,9.184067,-1.594696,-0.061553955,-0.1473999,-0.109954834
1620,A,938070434767315,7.0247955,10.993439,-1.3412628,0.13760376,0.17340088,0.12420654
1620,A,938070485121319,5.1777344,10.567215,-3.3444061,0.14854431,0.46694946,-0.11442566
1620,A,938070535475322,0.3284607,9.890472,-4.511734,-0.21902466,0.33947754,-0.26356506
1620,A,938070585829326,1.5093689,12.726196,-2.8314056,-0.40940857,-0.6623535,-0.26023865
1620,A,938070636183330,5.810425,10.501663,-2.2141266,-0.06985474,0.26202393,-0.20352173
1620,A,938070686537334,3.2877502,6.389023,-0.87098694,-0.06825256,0.13626099,-0.043548584
1620,A,938070736891338,1.4515533,4.5440216,-1.2500458,0.19210815,-0.14021301,0.6103668
1620,A,938070787245342,1.8847351,6.996155,-0.60679626,0.35549927,-0.3840332,0.3218689
1620,A,938070837599346,3.0954895,8.55397,0.75683594,0.20245361,-0.7598572,0.04989624
1620,A,938070887953350,6.017563,11.3654785,1.2630463,-0.007797241,-1.2015076,0.0105896
1620,A,938070938307354,5.0086823,12.627899,-0.216156,-0.017059326,-1.0584259,-0.03881836
1620,A,938070988661358,0.16294861,13.255707,-4.290497,-0.2953949,-0.56121826,0.15583801
1620,A,938071039015361,1.7636261,8.424973,-3.3498077,-0.06552124,0.15299988,0.34092712
1620,A,938071089369365,4.048996,8.870361,-4.2347565,-0.042419434,0.35601807,0.38113403
1620,A,938071139723369,-0.23954773,8.343155,-1.2332001,0.019210815,-0.05885315,0.14607239
1620,A,938071190077373,3.110199,5.8653107,-1.4940948,-0.30186462,-0.025268555,-0.28562927
1620,A,938071240431377,3.0460815,6.7642975,-2.0740356,-0.28552246,0.20307922,-0.49317932
1620,A,938071290785381,3.0999603,8.532379,-1.8184814,-0.1268158,0.11512756,-0.5020752
1620,A,938071341139385,4.7556458,8.541931,-1.1904755,0.13427734,0.23648071,-0.18405151
1620,A,938071391493389,6.479492,10.602829,-1.4423828,0.22390747,0.4374237,0.06982422
1620,A,938071441847393,7.353897,11.076141,-1.3328857,0.34088135,0.71209717,-0.043151855
1620,A,938071492201397,3.6150055,10.783417,-4.1618958,0.12142944,0.6298828,-0.13113403
1620,A,938071542555401,0.61676025,11.025314,-2.855484,-0.4178772,-0.55895996,-0.43003845
1620,A,938071592909404,3.5033264,10.365402,-3.6085358,-0.19825745,0.44599915,9.1552734E-5
1620,A,938071643263408,3.994049,7.630371,-2.0315704,0.17687988,0.23622131,-0.20166016
1620,A,938071693617412,1.0269775,6.3167877,-1.1393127,0.200531,-0.30604553,0.5046692
1620,A,938071743971416,1.5298767,5.5963135,-1.0209045,0.39653015,-0.4524231,0.50419617
1620,A,938071794325420,2.7050323,7.9766235,0.20664978,0.30047607,-0.7012329,-0.027633667
1620,A,938071844679424,4.9880676,9.979492,1.1415253,-0.018310547,-1.1243286,-0.026168823
1620,A,938071895033428,5.426758,11.058411,-1.0046844,-0.12530518,-0.90267944,0.08973694
1620,A,938071945387432,1.2278595,14.4184265,-5.656601,-0.2361908,-0.28327942,0.23217773
1620,A,938071995741436,-0.26496887,8.458405,-4.0816345,0.11663818,0.5011139,0.44500732
1620,A,938072046095440,4.406479,8.336365,-3.0097504,0.4597168,0.6836548,0.4320984
1620,A,938072096449444,-0.20123291,8.754822,-2.1444702,-0.45336914,-0.15136719,0.17956543
1620,A,938072146803447,2.5074463,6.5722504,-1.7111359,-0.47486877,0.09547424,-0.30451965
1620,A,938072197157451,3.4707794,5.9863434,-2.4381714,-0.19560242,0.41148376,-0.64990234
1620,A,938072247511455,3.2394867,8.934082,-2.228714,0.012542725,0.22454834,-0.57606506
1620,A,938072297865459,5.0976715,9.317947,-1.092041,-0.1169281,0.37709045,-0.04650879
1620,A,938072348219463,6.1194763,9.126999,-0.98306274,-0.03666687,0.5463867,0.3068695
1620,A,938072398573467,6.6273346,10.280685,-1.7402496,0.26280212,0.26989746,0.08522034
1620,A,938072448927471,3.3552856,10.184967,-4.6926575,-0.138031,0.5993042,-0.03453064
1620,A,938072499281475,0.5920868,14.722366,-5.15802,-0.09687805,-1.032547,-0.7828369
1620,A,938072549635479,3.8019714,10.569855,-3.1207428,-0.6548767,0.2808838,0.17481995
1620,A,938072599989483,4.2706604,7.2045593,-1.6334381,-0.033950806,0.5054474,-0.04373169
1620,A,938072650343486,0.68533325,5.715439,-1.4085999,0.4801941,-0.20487976,0.49313354
1620,A,938072700697490,0.53234863,5.274231,-1.6618958,0.3033142,-0.31199646,0.6164093
1620,A,938072751051494,2.3245544,8.290878,0.36761475,0.2023468,-0.84895325,0.14686584
1620,A,938072801405498,5.591812,10.841049,1.4102783,0.005508423,-1.0764618,-0.01991272
1620,A,938072851759502,5.094467,10.815872,-0.13058472,-0.03742981,-0.853302,0.03337097
1620,A,938072902113506,1.9114227,12.996628,-3.8650665,-0.09738159,-0.82580566,-0.13848877
1620,A,938072952467510,-0.93977356,10.85762,-7.963562,-0.30833435,-0.8852844,0.09867859
1620,A,938073002821514,5.280884,8.221573,-2.795517,-0.17466736,-0.7872772,0.16177368
1620,A,938073053175518,0.04447937,8.373978,-1.200531,0.35116577,0.5715027,0.048049927
1620,A,938073103529522,1.8655548,7.4048767,-2.3043365,0.01411438,0.38250732,0.2640381
1620,A,938073153883526,3.4005432,6.0790863,-1.9795532,0.025039673,0.36489868,-0.42095947
1620,A,938073204237529,3.1127014,7.64476,-1.730957,-0.22717285,0.3596344,-0.59072876
1620,A,938073254591533,4.07164,8.572678,-1.7319641,-0.4358368,-0.026824951,-0.36801147
1620,A,938073304945537,4.67128,9.22229,-1.5712128,0.11489868,0.05166626,-0.2418518
1620,A,938073355299541,6.071823,11.131409,-1.6226349,0.1351471,0.21365356,-0.03338623
1620,A,938073405653545,6.3161316,9.929871,-0.9476166,0.24472046,0.29109192,0.26983643
1620,A,938073456007549,5.7905426,9.354446,-3.942749,0.32209778,0.8562927,-0.11088562
1620,A,938073506361553,1.6687164,13.554413,-3.8348389,-0.19540405,-0.44830322,-0.43649292
1620,A,938073556715557,4.4942474,10.45636,-3.0195618,-0.4545288,0.10281372,0.13516235
1620,A,938073607069561,3.0062103,8.302734,-3.3459625,-0.2355957,-0.24671936,-0.0388031
1620,A,938073657423565,-0.1695404,8.505524,-2.5435944,-0.20350647,-0.3751526,0.6884613
1620,A,938073707777569,0.4515381,4.9364014,-1.0853882,0.1796112,-0.596344,0.7713165
1620,A,938073758131572,2.1164703,6.6336365,-1.6537323,0.01878357,-0.97776794,0.22019958
1620,A,938073808485576,3.3809967,8.904587,1.082428,-0.05354309,-1.4827423,0.09541321
1620,A,938073858839580,6.6516724,10.410065,0.5331726,-0.25810242,-1.3245392,0.05291748
1620,A,938073909193584,3.8824463,14.297455,-6.2358856,-0.16239929,-0.8378601,0.015838623
1620,A,938073959547588,-2.79924,8.746002,-3.1361084,-0.4173584,-0.46788025,0.045440674
1620,A,938074009901592,2.25383,9.559433,-3.858963,-0.5496521,-0.11428833,0.30899048
1620,A,938074060255596,0.58480835,9.390839,-3.3277283,0.8389435,1.248642,0.13383484
1620,A,938074110609600,2.1131897,7.183426,-2.101715,0.24133301,0.27453613,0.13005066
1620,A,938074160963604,2.720581,5.672409,-3.0345306,-0.54759216,0.45976257,-0.19810486
1620,A,938074211317608,2.4152527,7.8352966,-2.8508148,-0.29364014,0.61079407,-0.64523315
1620,A,938074261671611,4.5619507,8.732315,-2.031372,-0.023422241,0.46884155,-0.64985657
1620,A,938074312025615,5.998871,8.530624,-0.25520325,0.15667725,0.90364075,-0.30018616
1620,A,938074362379619,6.960144,9.975204,-0.48684692,0.14508057,0.9775543,0.20271301
1620,A,938074412733623,5.405319,9.037247,-1.1444855,0.25654602,0.6278076,0.21502686
1620,A,938074463087627,2.1292267,7.076828,-3.274765,-0.15449524,0.22903442,0.025100708
1620,A,938074513441631,1.9693146,14.2883,-5.555786,-0.26719666,-0.1413269,-0.49386597
1620,A,938074563795635,2.417328,13.050293,-4.993393,-0.44813538,-1.3740387,-0.6951752
1620,A,938074614149639,5.084503,7.9948883,-2.003708,-0.74697876,0.4475708,0.4607849
1620,A,938074664503643,1.892395,6.877823,-0.72772217,0.5475311,-0.4749756,0.39083862
1620,A,938074714857647,0.5275116,4.1856537,-1.0001984,0.32666016,-0.8173828,0.53123474
1620,A,938074765211651,2.1046448,6.3275146,0.039230347,0.4099121,-1.016571,0.29951477
1620,A,938074815565654,3.3283997,9.925858,1.2611847,-0.17358398,-1.2774963,-0.16339111
1620,A,938074865919658,4.330353,12.224823,-0.54959106,-0.42099,-0.9904022,-0.1559143
1620,A,938074916273662,2.5352783,8.53746,0.21391296,-0.5391693,-0.63575745,0.044448853
1620,A,938074966627666,1.8127441,16.05478,-8.870087,-0.43952942,-0.19281006,0.36763
1620,A,938075016981670,0.8653412,7.6865234,-6.1019745,0.52168274,1.2501984,0.48103333
1620,A,938075067335674,2.8460388,7.8498993,-0.07826233,1.0314941,0.7151642,0.28355408
1620,A,938075117689678,1.4780731,8.334732,-2.97937,-0.71443176,0.44126892,0.1085968
1620,A,938075168043682,2.0676575,6.5298157,-2.631958,-0.16751099,0.660202,-0.49916077
1620,A,938075218397686,3.1675415,7.9324646,-3.1742554,0.20478821,0.6314392,-0.7018738
1620,A,938075268751690,4.9881744,9.869888,-1.6487885,0.110961914,0.914917,-0.48466492
1620,A,938075319105694,6.2411957,9.0473175,-0.105651855,0.12884521,0.86950684,0.051315308
1620,A,938075369459697,7.051697,9.006165,-0.10614014,0.4608307,0.60961914,0.23217773
1620,A,938075419813701,3.7473907,6.7424774,-1.9152069,0.12991333,0.14187622,-2.2888184E-4
1620,A,938075470167705,2.1976929,11.251556,-4.394333,-0.38313293,0.20503235,-0.23570251
1620,A,938075520521709,1.1239319,16.024979,-6.93779,-0.087142944,-1.1300354,-0.7519684
1620,A,938075570875713,5.458313,9.58432,-1.190094,-0.5951233,0.41145325,0.075927734
1620,A,938075621229717,3.3370209,6.3124237,-0.5555725,0.2859497,-0.30101013,0.3017578
1620,A,938075671583721,0.63630676,4.369568,-1.6557617,0.24165344,-0.6282196,0.6279144
1620,A,938075721937725,0.5765228,5.6223297,-0.5610657,0.29841614,-0.9096985,0.35453796
1620,A,938075772291729,2.967743,9.4882965,1.4840393,0.077438354,-1.2232361,-0.052474976
1620,A,938075822645733,5.587097,11.80217,-0.9189606,-0.08067322,-1.3092957,-0.097732544
1620,A,938075872999736,3.4243774,10.781876,0.41540527,-0.18037415,-0.55763245,-0.06022644
1620,A,938075923353740,2.5645447,14.507034,-5.6072235,-0.20492554,-0.20735168,0.21598816
1620,A,938075973707744,0.36384583,8.468933,-6.0081177,0.22520447,0.38589478,0.4827423
1620,A,938076024061748,2.5750427,7.4888763,-1.3265076,0.5891571,0.789093,0.5140381
1620,A,938076074415752,0.4093628,8.649582,-1.9197693,-0.4766693,0.13687134,0.13656616
1620,A,938076124769756,2.7982788,6.3797607,-2.02536,-0.38729858,0.66308594,-0.48234558
1620,A,938076175123760,3.8364868,7.136078,-2.1236877,0.3070221,0.9951477,-0.89375305
1620,A,938076225477764,4.500931,8.950668,-1.3441315,0.21969604,1.102066,-0.58966064
1620,A,938076275831768,5.6044464,8.702805,-0.96240234,0.1968689,0.9607544,0.17373657
1620,A,938076326185772,6.8755646,10.021591,-0.59046936,0.2773285,0.57051086,0.16452026
1620,A,938076376539776,4.4603577,9.2907715,-1.9083099,-0.003326416,0.13296509,-0.14634705
1620,A,938076426893779,1.7033997,8.712845,-4.3984528,-0.43800354,0.14318848,-0.33522034
1620,A,938076477247783,2.0093994,16.366837,-5.7931366,-0.3176117,-0.8344574,-0.63243103
1620,A,938076527601787,5.250946,10.74263,-2.1907806,-0.3591156,0.40045166,0.09579468
1620,A,938076577955791,4.505081,6.0109253,-0.36320496,0.30992126,-0.14665222,0.29049683
1620,A,938076628309795,-0.0024871826,3.7391052,-1.9700317,0.11262512,-0.55529785,0.6188812
1620,A,938076678663799,-0.4771881,6.159851,-0.4307251,0.19529724,-0.8139343,0.49586487
1620,A,938076729017803,3.4687653,9.823532,0.9379425,0.12548828,-1.3388214,0.024017334
1620,A,938076779371807,5.7123413,11.701981,-1.3643951,-0.080581665,-1.3959045,-0.16157532
1620,A,938076829725811,2.9029083,9.948242,0.05354309,-0.43721008,-0.62416077,0.084854126
1620,A,938076880079815,2.2900543,14.958694,-6.598892,0.11332703,0.0362854,0.39031982
1620,A,938076930433819,2.1071472,8.048706,-4.8292236,0.7378998,0.91944885,0.85910034
1620,A,938076980787822,2.3844604,7.4970093,-1.3203735,0.39518738,0.21308899,0.36090088
1620,A,938077031141826,0.57966614,9.191483,-2.1327972,-0.35209656,0.10826111,-0.41513062
1620,A,938077081495830,2.5066528,5.6007843,-2.2064362,-0.2508545,0.396286,-0.64849854
1620,A,938077131849834,3.565628,6.2930145,-1.4169006,0.019134521,0.57888794,-0.71777344
1620,A,938077182203838,4.665985,8.899643,-1.339386,0.32615662,0.5207062,-0.24942017
1620,A,938077232557842,5.7046204,9.525024,-1.0353546,0.23246765,0.7253418,0.102630615
1620,A,938077282911846,7.453232,8.95314,-0.27824402,0.22592163,0.5055084,0.028945923
1620,A,938077333265850,5.152878,10.472687,-3.4496613,-0.29885864,0.1685791,-0.27702332
1620,A,938077383619854,1.3616638,12.7323,-4.503891,-0.66156006,-0.8292694,-0.57151794
1620,A,938077433973858,2.8058167,11.984055,-4.011261,-0.3747406,0.5200653,0.03843689
1620,A,938077484327861,4.6990967,8.735809,-1.969162,0.27923584,-0.09710693,0.15827942
1620,A,938077534681865,2.6276855,5.956726,-1.0037537,-0.06982422,-0.54997253,0.6651764
1620,A,938077585035869,1.1918335,5.4373016,-0.4781952,0.0079956055,-0.8893738,0.5554352
1620,A,938077635389873,2.1396027,7.5487366,0.41331482,-0.10658264,-1.5832062,0.044708252
1620,A,938077685743877,5.084152,9.776474,0.6924591,-0.034194946,-1.6137085,0.0011291504
1620,A,938077736097881,3.4307404,11.580414,-2.2811737,-0.46827698,-0.5868683,0.14517212
1620,A,938077786451885,1.0091248,15.138351,-7.0966644,0.1796112,0.12501526,0.49797058
1620,A,938077836805889,2.116806,8.178558,-4.3522034,0.74549866,0.72106934,0.59828186
1620,A,938077887159893,3.233612,8.059082,-1.4966736,-0.38208008,-0.38841248,0.37025452
1620,A,938077937513897,0.09159851,8.787064,-2.6160583,-0.46569824,0.08262634,-0.3743286
1620,A,938077987867901,2.1293488,6.152054,-2.5813599,-0.18395996,0.57081604,-0.67581177
1620,A,938078038221904,3.7873688,6.6855164,-1.7159576,0.13699341,0.61013794,-0.64527893
1620,A,938078088575908,5.4405518,8.642075,-0.79519653,0.13864136,0.87698364,-0.17463684
1620,A,938078138929912,5.8289948,8.8940735,-1.0741882,0.16835022,0.91641235,-0.004837036
1620,A,938078189283916,6.6460266,8.682983,-0.3785553,0.28173828,0.30699158,-0.07559204
1620,A,938078239637920,4.052765,9.412231,-3.5247192,-0.51449585,0.3781891,-0.4676361
1620,A,938078289991924,0.4551239,16.970901,-5.91481,-0.41949463,-0.88879395,-0.81640625
1620,A,938078340345928,5.4770355,10.828339,-3.4028473,-0.5566101,0.49731445,-8.239746E-4
1620,A,938078390699932,4.729004,7.7678223,-1.4434662,0.39149475,-0.03552246,0.3380432
1620,A,938078441053936,1.142807,4.5057373,-0.9222412,0.20277405,-0.43518066,0.6147766
1620,A,938078491407940,0.8782959,4.324692,-1.3508301,0.08404541,-0.8084259,0.5162811
1620,A,938078541761944,2.961319,8.908234,0.8702545,-0.17912292,-1.5528717,0.15823364
1620,A,938078592115947,5.0625153,10.231934,0.37287903,-0.19485474,-1.7045593,0.010818481
1620,A,938078642469951,3.3147278,11.506607,-1.5848083,-0.47052002,-0.6861572,-0.005279541
1620,A,938078692823955,2.4729767,14.579285,-6.4414063,-0.158844,-0.22116089,0.22851563
1620,A,938078743177959,1.8917389,8.850586,-5.09671,0.49505615,0.41644287,0.5583801
1620,A,938078793531963,2.0181732,7.469284,-1.0885773,0.43414307,0.6392822,0.58218384
1620,A,938078843885967,1.1641693,8.524765,-2.5557709,-0.77345276,-0.13375854,0.25941467
1620,A,938078894239971,1.3966522,6.494461,-2.5306702,-0.41340637,0.5635376,-0.6131897
1620,A,938078944593975,2.7053528,6.8275604,-2.074234,0.21018982,0.7418518,-0.9380188
1620,A,938078994947979,4.984955,9.07341,-1.090683,0.31311035,0.63723755,-0.6324463
1620,A,938079045301983,5.685562,8.848419,-1.3361206,0.22167969,0.6246338,0.1519165
1620,A,938079095655986,8.060883,9.17157,0.25660706,0.29733276,0.4702301,0.17955017
1620,A,938079146024137,4.1067505,8.322556,-1.2187042,0.0031280518,-0.13993835,-0.23098755
1620,A,938079196378141,1.2337799,10.215515,-5.3969727,-0.66400146,0.02949524,-0.20565796
1620,A,938079246732145,2.5569,16.53006,-5.606491,-0.3738098,-0.78149414,-0.5348053
1620,A,938079297086149,6.7968597,10.280899,-1.6787567,-0.39938354,0.0022277832,-0.037765503
1620,A,938079347440153,3.9788055,5.8108826,-0.037216187,0.03756714,0.019714355,0.3509674
1620,A,938079397794157,0.27259827,3.4703522,-0.7658386,0.21948242,-0.3477173,0.5059662
1620,A,938079448148161,-7.171631E-4,6.251587,-0.5644684,0.24450684,-0.77082825,0.24983215
1620,A,938079498502165,2.5620117,9.782425,1.1698151,-0.17826843,-1.3645325,0.057769775
1620,A,938079548856169,5.689621,12.591888,-1.6603546,-0.13699341,-1.3336334,-0.09629822
1620,A,938079599210173,3.443222,11.042496,0.20155334,0.069503784,-0.20521545,-0.04812622
1620,A,938079649564176,2.9941864,12.718842,-5.0001526,0.23002625,0.3738556,0.22164917
1620,A,938079699918180,1.8467102,9.242004,-4.862732,0.67837524,0.9588623,0.5642395
1620,A,938079750272184,2.7992706,7.141983,-1.8537903,0.28575134,0.29974365,0.45350647
1620,A,938079800626188,1.5738983,8.800018,-1.3385315,-0.44847107,-0.20704651,-0.020355225
1620,A,938079850980192,2.22258,5.6171417,-2.1877747,-0.09767151,0.48143005,-0.6491852
1620,A,938079901334196,1.6922607,7.403824,-1.9943848,-0.06980896,0.60806274,-0.8161926
1620,A,938079951688200,4.142639,9.658218,-1.1439667,0.1169281,0.6312561,-0.43974304
1620,A,938080002042204,7.604248,7.986664,-0.88635254,0.014160156,0.747818,0.08004761
1620,A,938080052396208,6.9469757,9.937195,-0.026367188,0.033172607,0.6806946,0.2854309
1620,A,938080102750212,3.7503662,8.956467,-2.3583374,0.1609497,-0.098236084,-0.27970886
1620,A,938080153104216,1.9626923,11.674088,-5.65152,-0.6284332,-0.041748047,-0.44528198
1620,A,938080203458219,1.2162018,14.41449,-4.464279,-0.44909668,-0.28778076,-0.41656494
1620,A,938080253812223,6.688339,9.151459,-1.904892,0.06285095,0.56900024,0.014007568
1620,A,938080304166227,3.3646088,6.973572,-1.0762634,0.53900146,-0.015060425,0.26519775
1620,A,938080354520231,0.1952362,5.5696716,-0.8161621,0.34788513,-0.2079773,0.4589386
1620,A,938080404874235,1.0722656,5.457443,-1.2223816,0.5239258,-0.6934509,0.20045471
1620,A,938080455228239,2.2899323,9.208176,0.76246643,0.1569519,-1.184372,-0.14553833
1620,A,938080505582243,5.4239807,10.785095,0.026977539,-0.13778687,-0.93696594,-0.11286926
1620,A,938080555936247,3.7866364,12.132721,-0.8282776,-0.2333374,-0.23269653,-0.0071258545
1620,A,938080606290251,2.7143707,13.030991,-6.563736,0.21533203,0.096710205,0.24610901
1620,A,938080656644255,3.26091,7.559906,-2.4988098,0.65893555,0.8514557,0.58465576
1620,A,938080706998258,2.7362823,8.687149,-1.9567108,0.2038269,0.07595825,0.43247986
1620,A,938080757352262,0.8806,8.117905,-1.9119873,-0.7234955,0.18241882,-0.14331055
1620,A,938080807706266,2.5282745,6.091278,-2.0887299,-0.15626526,0.81559753,-0.6593628
1620,A,938080858060270,3.0512848,7.6771545,-2.3885193,0.27098083,0.8754883,-0.71128845
1620,A,938080908414274,4.471939,9.220947,-1.8921509,0.28163147,0.8050232,-0.15000916
1620,A,938080958768278,5.7573395,8.898865,-0.7388153,0.089019775,0.66841125,0.19384766
1620,A,938081009122282,6.8952637,9.2836,-0.18302917,0.13851929,0.33320618,0.089263916
1620,A,938081059476286,3.6556702,9.911545,-3.3638763,-0.364151,0.27757263,-0.15000916
1620,A,938081109830290,0.8886261,13.453033,-4.6005554,-0.4857483,-0.9062195,-0.9459381
1620,A,938081160184294,3.7193909,12.471603,-5.24527,-0.89701843,0.3010559,-0.032424927
1620,A,938081210538298,4.8868713,8.000275,-1.1656952,0.24620056,-0.16799927,0.32028198
1620,A,938081260892301,1.5371857,5.3833466,-1.0128632,0.34729004,-0.8512726,0.5690918
1620,A,938081311246305,0.15324402,5.051407,-1.8825226,0.3335724,-1.1101532,0.51312256
1620,A,938081361600309,1.5157471,8.948273,-0.41932678,0.06298828,-1.309021,0.06681824
1620,A,938081411954313,4.878067,9.587265,0.9520874,-0.2685852,-1.2853851,-0.055984497
1620,A,938081462308317,4.1026,10.978348,-1.3441467,-0.3744812,-0.4502716,-0.05355835
1620,A,938081512662321,3.255722,13.854797,-4.5575256,0.061294556,-0.023284912,0.044189453
1620,A,938081563016325,-0.1882782,10.179306,-8.307602,0.56611633,0.7105255,0.47343445
1620,A,938081613370329,2.8681793,7.8103943,-0.6289673,0.64489746,0.6689453,0.60739136
1620,A,938081663724333,0.66508484,8.204086,-1.7268677,-0.42092896,0.0488739,0.101989746
1620,A,938081714078337,1.4790344,6.799408,-2.9242096,-0.62260437,0.524704,-0.42182922
1620,A,938081764432341,2.7952423,6.287201,-2.4158783,-0.0058898926,0.8957367,-0.85935974
1620,A,938081814786344,4.4396057,9.211395,-1.6361542,0.31515503,0.871933,-0.5422058
1620,A,938081865140348,6.287033,8.875916,-0.8091583,0.24961853,0.8102112,0.125
1620,A,938081915494352,7.0624237,8.818512,0.2568817,0.20295715,0.72621155,0.2927704
1620,A,938081965848356,5.020874,10.165985,-2.6078491,0.02545166,0.051849365,-0.1620636
1620,A,938082016202360,1.3987427,10.157455,-4.2842255,-0.585907,0.0072021484,-0.4784546
1620,A,938082066556364,1.4645386,14.24939,-5.2434235,-0.48886108,-0.40637207,-0.44662476
1620,A,938082116910368,5.059387,10.5451355,-3.1887054,-0.08641052,0.43855286,0.05430603
1620,A,938082167264372,4.580658,6.19516,-0.51460266,0.4937744,-0.17636108,0.38587952
1620,A,938082217618376,0.68666077,4.896988,-0.76815796,0.3888855,-0.35882568,0.48709106
1620,A,938082267972380,0.5541229,5.9263306,-0.768692,0.26922607,-0.9263916,0.26383972
1620,A,938082318326383,2.632309,9.656189,0.6274719,-0.08326721,-1.4362793,-0.034835815
1620,A,938082368680387,5.9064636,11.392654,-0.8091583,-0.27082825,-0.86776733,-0.020019531
1620,A,938082419034391,3.1203613,11.421173,-0.42503357,-0.16009521,-0.27323914,0.060180664
1620,A,938082469388395,2.2169342,13.196564,-6.333191,0.15830994,0.13825989,0.43058777
1620,A,938082519742399,2.984253,8.205612,-3.0379028,0.81996155,0.64894104,0.7706909
1620,A,938082570096403,2.4748688,8.057343,-1.6083374,-0.2480774,-0.35679626,0.43276978
1620,A,938082620450407,0.883667,7.554901,-2.5034637,-0.97299194,0.078323364,-0.065582275
1620,A,938082670804411,1.7094116,5.9666595,-2.623764,-0.22137451,0.5544586,-0.64715576
1620,A,938082721158415,3.7538147,8.47377,-2.0179443,0.5286102,0.5863495,-0.68481445
1620,A,938082771512419,5.394043,9.113266,-1.4169312,0.34301758,0.8016205,-0.116882324
1620,A,938082821866423,5.7027283,8.5095215,0.01411438,0.08999634,0.8074188,0.1005249
1620,A,938082872220426,6.906143,9.043701,-1.350174,-0.1485138,0.22453308,-0.05708313
1620,A,938082922574430,1.9747467,8.550262,-2.9732819,-0.721756,-0.20172119,-0.73080444
1620,A,938082972928434,1.0708008,15.308548,-5.892166,-0.5599823,-0.10180664,-0.2984619
1620,A,938083023282438,4.8292847,12.4614105,-4.101654,0.10232544,0.19017029,0.17391968
1620,A,938083073636442,5.19191,7.34964,-0.25343323,0.42422485,-0.55555725,0.45013428
1620,A,938083123990446,1.8982849,4.297989,0.17341614,0.25157166,-0.84098816,0.41990662
1620,A,938083174344450,0.85849,5.8246,-1.2182922,0.1701355,-1.1865387,0.09933472
1620,A,938083224698454,3.1690063,9.49472,-0.11924744,-0.16688538,-1.47052,-0.07902527
1620,A,938083275052458,4.699646,10.9249115,-0.6773834,-0.2521057,-0.46774292,-0.0016784668
1620,A,938083325406462,2.7357788,11.736282,-1.5602417,-0.10870361,-0.09510803,0.123031616
1620,A,938083375760466,1.5792389,13.049683,-7.5226593,0.6132965,0.47261047,0.56988525
1620,A,938083426114469,3.3892822,7.4392548,-2.5393372,0.3541565,0.40434265,0.5858002
1620,A,938083476468473,1.1172028,8.367447,-1.4430084,-0.8606415,-0.06745911,0.1346283
1620,A,938083526822477,1.7681274,7.345932,-2.7347565,-0.533844,0.4482727,-0.36082458
1620,A,938083577176481,2.8056335,6.5509033,-2.4361115,-0.050094604,0.80862427,-0.59017944
1620,A,938083627530485,4.031143,8.7430725,-1.5527344,0.3534851,0.7633667,-0.34251404
1620,A,938083677884489,6.4800873,8.345627,-0.7358246,0.32904053,0.8724823,0.02897644
1620,A,938083728238493,6.4729156,8.546616,0.6322632,0.15058899,0.91290283,0.1002655
1620,A,938083778592497,4.5520935,9.5108185,-1.8138123,0.004714966,0.41757202,-0.15350342
1620,A,938083828946501,1.7229156,10.736435,-5.5755005,-0.4847412,-0.64915466,-0.8294983
1620,A,938083879300505,1.8709106,14.824905,-5.3626556,-0.73475647,0.3983612,-0.14611816
1620,A,938083929654508,5.68631,9.440735,-1.7071533,0.41958618,-0.20610046,0.16017151
1620,A,938083980008512,3.822586,6.2966156,-0.34143066,0.2212677,-0.60224915,0.5712433
1620,A,938084030362516,0.6882477,5.7639465,-0.37005615,0.11906433,-0.9460907,0.39639282
1620,A,938084080716520,1.9459686,6.5250854,-0.17819214,0.085617065,-1.5849609,0.08758545
1620,A,938084131070524,4.1105347,9.146652,0.4558258,-0.11186218,-1.5664978,-0.057403564
1620,A,938084181424528,3.9037476,10.142441,-0.58639526,-0.3162384,-0.6568451,-0.041534424
1620,A,938084231778532,3.4442291,14.894409,-3.8406372,-0.027801514,-0.2448883,-0.018203735
1620,A,938084282132536,1.3368225,9.063324,-7.22348,0.4844513,0.26315308,0.493042
1620,A,938084332486540,3.1568298,7.6683197,-0.8955231,0.40011597,0.4754486,0.58839417
1620,A,938084382840544,1.1087952,8.639984,-2.0591125,-0.40715027,0.059646606,-0.020614624
1620,A,938084433194548,2.1510773,7.3519135,-2.6832275,-0.22465515,0.60943604,-0.56700134
1620,A,938084483548551,2.823471,6.7361603,-2.0821686,0.17004395,0.91233826,-0.7488251
1620,A,938084533902555,4.115219,8.705322,-1.1863708,0.1743164,1.0105438,-0.47303772
1620,A,938084584256559,6.7784576,8.738815,-0.5926056,0.1312561,0.81170654,0.027786255
1620,A,938084634610563,6.243881,8.840225,0.60112,0.13311768,0.6309967,0.12754822
1620,A,938084684964567,4.7576904,9.70607,-2.0817566,0.06629944,0.19282532,-0.0101623535
1620,A,938084735318571,2.6627045,10.131088,-5.1667175,-0.5250244,0.11099243,-0.5386658
1620,A,938084785672575,2.2005005,13.983551,-4.43132,-0.49765015,-0.462677,-0.5830078
1620,A,938084836026579,5.7768555,9.497971,-2.4212189,-0.090408325,0.49751282,0.021499634
1620,A,938084886380583,3.9277954,7.057831,-0.8537903,0.40612793,-0.30636597,0.40608215
1620,A,938084936734587,0.56300354,5.513077,-1.7329712,0.14529419,-0.61294556,0.6137848
1620,A,938084987088591,1.0857697,6.5418396,-1.3863373,0.29737854,-1.1559296,0.28704834
1620,A,938085037442594,3.204239,9.154037,0.5044861,-0.09036255,-1.4566193,-0.056259155
1620,A,938085087796598,4.81781,10.350571,-0.055862427,-0.23490906,-1.0085754,-0.043640137
1620,A,938085138150602,3.609848,10.538406,-1.132843,-0.3109436,-0.29286194,0.057891846
1620,A,938085188504606,2.0827484,14.045685,-6.4320526,-0.031555176,0.0410614,0.22299194
1620,A,938085238858610,2.9009857,7.1802063,-3.7220306,0.6573639,0.7769623,0.67237854
1620,A,938085289212614,1.5384369,8.915726,-1.6818237,0.40185547,0.2732849,0.49502563
1620,A,938085339566618,0.8923187,8.201447,-2.2054749,-0.57992554,0.54867554,-0.16290283
1620,A,938085389920622,2.7460785,6.5319366,-2.1862335,0.041290283,1.0800934,-0.7636261
1620,A,938085440274626,3.2951813,7.625595,-2.3876495,0.47729492,1.2058563,-0.7874298
1620,A,938085490628630,4.934021,9.136734,-1.3771057,0.4177246,1.198883,-0.25378418
1620,A,938085540982633,5.958267,8.733398,-0.27067566,0.25486755,0.8415985,0.17575073
1620,A,938085591336637,6.8071136,8.939896,-0.6255188,0.01524353,0.37550354,0.20124817
1620,A,938085641690641,3.2762604,9.013062,-2.3743591,-0.4494629,-0.14839172,0.0619812
1620,A,938085692044645,1.598526,12.268387,-4.7694855,-0.7539978,-0.32400513,-0.24047852
1620,A,938085742398649,4.7190857,13.414169,-4.780243,-0.6083069,-0.69332886,-0.52023315
1620,A,938085792752653,5.9930115,8.905014,-0.83888245,-0.34423828,-0.31108093,0.24137878
1620,A,938085843106657,2.2597961,4.9813995,-0.59524536,0.0526886,-1.1553955,0.7588806
1620,A,938085893460661,-0.014083862,4.8156433,-1.6553345,-0.053588867,-1.4369202,0.6535797
1620,A,938085943814665,0.7758484,7.8894653,-0.6853943,-0.14788818,-1.397049,0.26679993
1620,A,938085994168669,4.040329,10.347717,0.24420166,-0.21681213,-1.3100891,-0.16560364
1620,A,938086044522673,4.3828735,11.946365,-1.7533112,-0.23300171,-0.75064087,-0.15345764
1620,A,938086094876676,2.921524,9.43866,-0.5234375,-0.09196472,-0.4200287,0.16122437
1620,A,938086145230680,3.2097473,13.835007,-6.2369843,0.23779297,-0.0023345947,0.5295563
1620,A,938086195584684,2.75943,8.097931,-3.4797516,0.31710815,0.20970154,0.7845001
1620,A,938086245938688,0.46136475,8.498779,-1.1073761,-0.33537292,-0.50401306,0.16496277
1620,A,938086296292692,2.053711,7.466385,-2.2514954,-0.70951843,0.009918213,-0.42866516
1620,A,938086346646696,3.7750397,6.2647095,-2.2648163,-0.1503601,0.4320526,-0.62283325
1620,A,938086397000700,5.3186493,7.8532867,-1.1941376,0.23825073,0.38095093,-0.47628784
1620,A,938086447354704,6.169571,8.034439,-0.33155823,0.32113647,0.26760864,-0.14724731
1620,A,938086497708708,6.325836,8.447952,0.3315277,0.0026245117,0.6121063,0.009490967
1620,A,938086548062712,6.0424347,9.42691,-1.2367401,-0.034622192,0.6809845,-0.08609009
1620,A,938086598416716,3.294098,9.921387,-4.4680176,-0.44351196,0.36576843,-0.5455322
1620,A,938086648770719,0.5546875,14.259201,-3.3445587,-0.2966919,0.9103546,-0.18899536
1620,A,938086699124723,5.844864,10.922165,-3.08638,0.7055054,0.8290863,-0.26409912
1620,A,938086749478727,4.6176605,7.532089,-0.7648163,0.51438904,0.229599,0.40493774
1620,A,938086799832731,2.1192017,6.580597,-0.21875,0.4101715,-0.23435974,0.39538574
1620,A,938086850186735,1.9133453,6.9950104,-0.50187683,0.33528137,-0.56648254,-0.03996277
1620,A,938086900540739,3.1662903,7.8135986,0.33200073,0.020111084,-0.78359985,-0.14387512
1620,A,938086950894743,4.448105,8.640228,0.5123596,-0.048706055,-0.6802368,-0.09799194
1620,A,938087001248747,4.346863,13.099838,-2.3379822,-0.18139648,-0.37512207,-0.05996704
1620,A,938087051602751,2.4208221,10.46553,-4.5959473,-0.14863586,-0.20787048,0.34205627
1620,A,938087101956755,5.098755,7.3372955,-1.2950287,0.34539795,0.5574646,0.61079407
1620,A,938087152310758,0.8927002,10.225006,-3.1930847,0.14872742,0.09931946,0.45295715
1620,A,938087202664762,2.353653,7.7276306,-2.239975,-0.54267883,0.08920288,-0.15985107
1620,A,938087253018766,3.1330109,6.781128,-2.8594513,-0.023864746,0.45181274,-0.6622467
1620,A,938087303372770,3.161621,8.543884,-2.5164795,0.09983826,0.56217957,-0.70895386
1620,A,938087353726774,5.0800323,7.8193665,-1.0095215,0.20411682,0.62112427,-0.45339966
1620,A,938087404080778,5.2037506,8.264923,-0.19482422,-0.07296753,0.67489624,0.047927856
1620,A,938087454434782,5.711792,8.614441,-0.5945282,0.2136383,0.46801758,0.03781128
1620,A,938087504788786,4.2461853,8.477646,-2.202591,-0.14039612,0.373703,-0.19645691
1620,A,938087555142790,2.84758,12.384476,-4.706192,-0.5415039,-0.059295654,-0.55574036
1620,A,938087605496794,3.5559692,13.975845,-3.8012695,-0.44210815,0.29412842,-0.31105042
1620,A,938087655850798,6.3417206,9.562607,-1.1770782,0.34092712,0.61816406,-0.16801453
1620,A,938087706204801,2.9420166,6.47995,-1.4864044,0.4942627,-0.19845581,0.47218323
1620,A,938087756558805,0.8177643,4.870529,-1.2463837,0.38412476,-0.66362,0.48918152
1620,A,938087806912809,1.3304138,6.6717224,-0.7902069,0.41125488,-0.8925171,0.11216736
1620,A,938087857266813,3.563858,9.167099,1.338913,-0.014755249,-0.66334534,-0.08065796
1620,A,938087907620817,5.2085266,10.575684,-0.7784729,-0.15109253,-0.3048706,-0.09580994
1620,A,938087957974821,4.0365906,11.633728,-1.1168518,-0.15783691,-0.06919861,-0.009124756
1620,A,938088008328825,1.8398285,12.77211,-6.244766,0.28038025,0.19715881,0.63275146
1620,A,938088058682829,4.221573,7.046173,-2.6465912,0.6603699,0.7258301,0.84017944
1620,A,938088109036833,0.5030823,9.590897,-1.7902985,0.36720276,0.20904541,0.29704285
1620,A,938088159390837,1.3944702,7.4506836,-2.2954712,-0.6404877,0.22843933,-0.18513489
1620,A,938088209744841,2.7984467,5.739563,-1.7505646,-0.10128784,0.635437,-0.6865845
1620,A,938088260098844,4.3540497,8.809921,-1.7875366,0.14413452,0.76860046,-0.6655121
1620,A,938088310452848,6.140167,8.572662,-0.7311249,0.43486023,0.6910095,-0.29556274
1620,A,938088360806852,5.23584,8.101471,-0.44404602,0.33370972,0.6298523,0.009689331
1620,A,938088411160856,5.206772,9.370926,-0.63272095,0.3449402,0.66999817,0.2588501
1620,A,938088461514860,5.076187,9.717209,-3.8653564,0.11685181,0.1771698,-0.01574707
1620,A,938088511868864,0.7149658,12.743332,-4.1113434,-0.45214844,0.06770325,-0.40022278
1620,A,938088562222868,3.8932648,13.054291,-4.5210724,-0.581131,-0.27252197,-0.55877686
1620,A,938088612576872,5.979294,8.590515,-0.9282532,-0.23049927,0.5357208,-0.057510376
1620,A,938088662930876,2.4374695,5.898758,-0.603775,0.4761505,-0.40122986,0.5343933
1620,A,938088713284880,1.0584564,5.239792,-0.48051453,0.057113647,-0.5380249,0.71928406
1620,A,938088763638883,1.4380188,6.7390747,-0.9984894,-0.005630493,-0.9552002,0.44917297
1620,A,938088813992887,2.9929504,8.564392,0.94169617,-0.041046143,-1.369339,0.16268921
1620,A,938088864346891,5.774704,11.052063,-1.2606201,-0.08747864,-1.1679382,0.020965576
1620,A,938088914700895,3.7080688,12.708389,-0.65242004,-0.1603241,-0.6413727,-0.11564636
1620,A,938088965054899,2.4623108,13.781937,-6.7274933,-0.18760681,-0.40759277,0.11514282
1620,A,938089015408903,2.3173828,6.755432,-3.6855621,-0.14970398,-0.07014465,0.509552
1620,A,938089065762907,1.6608887,8.852905,-1.4709625,0.008255005,0.2457428,0.55462646
1620,A,938089116106367,1.294342,8.332718,-2.343689,-0.48432922,-0.3742218,0.049591064
1620,A,938089166460371,2.9326935,6.966278,-2.312912,-0.36694336,0.2124939,-0.4046631
1620,A,938089216814375,3.1714935,7.3212433,-1.4933472,-0.011505127,0.48527527,-0.57089233
1620,A,938089267168379,4.9990845,7.66745,-0.73799133,0.06201172,0.42747498,-0.33114624
1620,A,938089317522382,6.0016174,8.408539,-0.28118896,0.061538696,0.65486145,0.028152466
1620,A,938089367876386,6.2854614,9.776382,-0.19737244,0.29603577,0.9380646,-0.038513184
1620,A,938089418230390,4.131302,10.265076,-2.0993347,0.061920166,0.39233398,-0.25408936
1620,A,938089468584394,3.1741028,8.824265,-4.4762115,-0.6025543,-0.15846252,-0.66200256
1620,A,938089518938398,3.3719482,14.663025,-3.577774,-0.5956726,0.5629425,-0.23501587
1620,A,938089569292402,5.614624,9.940338,-2.1696777,0.48887634,0.4228058,-0.063797
1620,A,938089619646406,3.8361359,6.7177124,-0.7807007,0.46722412,-0.0630188,0.5037079
1620,A,938089670000410,0.6600952,5.9419403,-1.177124,0.01423645,-0.3854828,0.52719116
1620,A,938089720354414,2.1042786,6.560028,-0.25878906,0.29084778,-0.8066406,0.17771912
1620,A,938089770708418,4.3463135,7.586975,1.5054474,0.13006592,-0.8050842,-0.104141235
1620,A,938089821062422,4.5148773,10.707077,-1.2750244,0.13478088,-0.6262207,-0.20233154
1620,A,938089871416425,3.124054,13.3185425,-1.6948547,-0.054992676,-0.37275696,-0.24407959
1620,A,938089921770429,2.6177368,10.899918,-6.5576324,-0.025726318,-0.416687,0.21617126
1620,A,938089972124433,4.4391327,6.9491425,-1.5687103,-0.18907166,0.23574829,0.57154846
1620,A,938090022478437,1.581955,9.321793,-2.1641998,0.48286438,0.6539154,0.63960266
1620,A,938090072832441,1.9303284,8.452164,-2.7107544,-0.011444092,-0.04095459,0.007949829
1620,A,938090123186445,2.991272,5.807846,-1.0874939,-0.1912384,0.24165344,-0.5003662
1620,A,938090173540449,4.132965,7.6112366,-1.6297302,0.2265625,0.5281067,-0.8044586
1620,A,938090223894453,5.626465,8.330566,-0.6403656,0.1512909,0.7549286,-0.7391815
1620,A,938090274248457,5.226303,8.605545,-0.3871765,0.17559814,0.7062073,-0.10084534
1620,A,938090324602461,5.6437836,9.805527,-0.33624268,0.3941803,0.51860046,0.18347168
1620,A,938090374956464,4.9795074,10.1558075,-2.468216,0.13607788,0.083236694,-0.17214966
1620,A,938090425310468,3.7819214,8.423523,-3.5104065,-0.41455078,0.3026123,-0.20266724
1620,A,938090475664472,2.4381561,13.905624,-3.4839935,-0.26515198,-0.6014862,-0.70140076
1620,A,938090526018476,5.708618,11.006622,-2.483017,-0.27911377,0.56163025,-0.06109619
1620,A,938090576372480,5.110382,7.190918,-0.53718567,0.5821686,0.07093811,0.1822052
1620,A,938090626726484,1.4309692,3.9785004,-1.7607574,0.23127747,-0.35588074,0.48292542
1620,A,938090677080488,0.53215027,6.0638275,-0.62934875,0.28881836,-0.8608856,0.5506134
1620,A,938090727434492,2.28479,9.096497,1.1183319,0.048431396,-1.3001862,0.11450195
1620,A,938090777788496,6.1531982,11.089661,-1.05896,-0.09448242,-1.2807617,-0.026824951
1620,A,938090828142500,3.3032074,11.6666565,-0.36872864,-0.3475647,-0.40499878,-0.08456421
1620,A,938090878496504,3.6305084,13.157913,-4.945984,0.028625488,-0.0042877197,0.41461182
1620,A,938090928850507,1.2575989,8.01532,-4.846649,0.7388916,0.9621277,0.74375916
1620,A,938090979204511,3.3359375,7.999298,-1.566452,0.08305359,-0.02268982,0.4721527
1620,A,938091029558515,0.73501587,8.758209,-2.7290192,-0.70433044,-0.047805786,-0.17741394
1620,A,938091079912519,1.4389954,6.6199036,-2.3312988,-0.6248627,0.3782196,-0.58428955
1620,A,938091130266523,3.4336853,6.7141724,-2.108078,-0.063323975,0.36743164,-0.59916687
1620,A,938091180620527,4.9539948,8.76326,-1.1483154,0.38272095,0.33573914,-0.15473938
1620,A,938091230974531,5.81691,8.153946,-0.9853058,0.02166748,0.7099457,0.3293152
1620,A,938091281328535,6.398758,9.238419,-0.24143982,0.19390869,0.64653015,0.08918762
1620,A,938091331682539,4.2834167,9.286942,-3.342392,-0.51698303,0.4556427,-0.18203735
1620,A,938091382036543,0.83399963,14.076675,-5.354187,-0.41682434,-0.83683777,-0.9436493
1620,A,938091432390547,3.2828674,12.359329,-4.7675323,-0.91960144,0.2637024,-0.051483154
1620,A,938091482744550,5.2834167,9.126999,-2.088562,0.28683472,-0.47547913,0.42037964
1620,A,938091533098554,2.0050964,6.6567383,-0.32855225,0.09288025,-1.0237732,0.6851196
1620,A,938091583452558,1.2004242,5.139969,-0.30462646,0.12460327,-1.3555603,0.5005188
1620,A,938091633806562,2.0587158,7.0785675,-0.17678833,-0.119766235,-1.7089233,0.055755615
1620,A,938091684160566,4.5299835,8.590942,1.6157074,-0.3782196,-1.3663025,-0.023757935
1620,A,938091734514570,3.6514893,10.82605,-1.9839478,-0.45465088,-0.558136,-0.05067444
1620,A,938091784868574,2.7671356,15.288223,-4.7257233,-0.10636902,-0.2583313,0.16549683
1620,A,938091835222578,2.2203064,9.651398,-7.246872,0.39364624,0.42463684,0.59588623
1620,A,938091885576582,1.9745636,8.894089,-0.459198,0.44639587,0.21141052,0.5372009
1620,A,938091935930586,0.7487793,8.096069,-2.0017242,-1.0129547,-0.05496216,0.096328735
1620,A,938091986284589,2.1056366,6.915344,-2.365158,-0.4685974,0.64471436,-0.6921692
1620,A,938092036638593,3.1198425,6.0917053,-2.322937,0.19937134,0.86538696,-0.88342285
1620,A,938092086992597,5.4368286,8.677689,-1.185379,0.5116577,0.638504,-0.3546753
1620,A,938092137346601,6.8947906,8.436264,-0.4203949,0.2189331,0.4475708,0.13313293
1620,A,938092187700605,6.867691,8.913483,0.32621765,0.30581665,0.34773254,0.06869507
1620,A,938092238054609,4.342163,8.987305,-1.7979889,-0.10803223,0.35935974,-0.19281006
1620,A,938092288408613,1.7661285,10.057495,-4.4777985,-0.57696533,-0.023468018,-0.67071533
1620,A,938092338762617,3.2371674,16.862457,-5.819992,-0.59936523,0.4383545,-0.24559021
1620,A,938092389116621,7.404724,10.081146,-1.3424225,0.47639465,0.38380432,0.08831787
1620,A,938092439470625,3.4171906,5.2387238,-0.28337097,0.38638306,-0.4276123,0.5314026
1620,A,938092489824629,-0.7718048,3.9966278,-0.6306915,0.28341675,-0.82328796,0.39419556
1620,A,938092540178632,0.49168396,7.0983887,-0.71217346,0.057052612,-0.9790497,-0.0057678223
1620,A,938092590532636,4.380234,9.144287,0.78356934,-0.21168518,-0.747345,-0.09538269
1620,A,938092640886640,5.426956,10.72522,-1.6147461,-0.20071411,-0.31463623,0.018844604
1620,A,938092691240644,4.18985,12.58168,-2.0599823,-0.31498718,-0.08996582,0.34329224
1620,A,938092741594648,1.0743561,11.631592,-5.4430847,0.45812988,0.48986816,0.72824097
1620,A,938092791948652,2.9628448,6.377136,-1.1183472,0.07305908,-0.05053711,0.5370636
1620,A,938092842302656,1.4012451,9.639069,-2.0478668,-0.9662018,-0.52586365,0.274292
1620,A,938092892656660,1.7499237,7.5470886,-2.6846619,-0.5009308,0.08001709,-0.32852173
1620,A,938092943010664,3.0261993,6.956009,-2.582489,-0.18540955,0.28289795,-0.42218018
1620,A,938092993364668,5.43219,9.465912,-1.7902222,0.239151,0.2730255,-0.33828735
1620,A,938093043718672,5.9366913,7.538788,-0.0663147,0.014770508,0.39923096,-0.089538574
1620,A,938093094072675,4.3487396,7.6447754,-0.5141907,0.22177124,0.34403992,0.051727295
1620,A,938093144426679,4.345108,7.5478516,-1.770462,-0.11897278,0.112976074,-0.12150574
1620,A,938093194780683,1.2485504,11.873627,-5.380783,-0.31118774,0.42745972,-0.18978882
1620,A,938093245134687,2.5434723,15.669144,-4.179428,-0.48120117,0.21173096,-0.49743652
1620,A,938093295488691,6.6351624,10.556564,-0.6534424,0.062408447,0.6192627,-0.12731934
1620,A,938093345842695,3.4914246,7.200058,-0.539917,0.39627075,-0.24017334,0.2376709
1620,A,938093396196699,2.0455017,5.097336,-0.10661316,0.19355774,-0.7014923,0.4424286
1620,A,938093446550703,1.0469055,6.393402,-0.32617188,0.41046143,-1.0319977,0.15899658
1620,A,938093496904707,2.9642944,8.176102,1.5273285,0.11703491,-0.8712616,-0.06590271
1620,A,938093547258711,5.14447,10.826843,-0.43525696,0.016357422,-0.43362427,-0.17330933
1620,A,938093597612714,4.200821,9.926712,1.2510223,0.11412048,-0.3293457,-0.33613586
1620,A,938093647966718,4.00502,15.189468,-4.87619,-0.0664978,-0.23323059,0.0398407
1620,A,938093698320722,2.3938751,6.811981,-2.6540833,-0.07267761,-0.15319824,0.4425354
1620,A,938093748674726,2.4600677,9.308243,-2.2170715,0.37953186,0.42218018,0.6742859
1620,A,938093799028730,0.59716797,8.76947,-1.3989716,0.37521362,0.28364563,0.2447815
1620,A,938093849382734,3.1165924,6.285309,-1.2796478,-0.36647034,0.37586975,-0.19659424
1620,A,938093899736738,4.240814,7.7127686,-1.5223846,0.23309326,0.68588257,-0.6358948
1620,A,938093950090742,5.72612,8.378159,-0.8587799,0.18753052,0.7487488,-0.7451172
1620,A,938094000444746,5.428406,7.7486877,-0.3410492,0.09689331,0.63417053,-0.32751465
1620,A,938094050798750,4.119919,10.199219,-1.1517792,0.22399902,0.39756775,-0.052261353
1620,A,938094101152754,6.115326,9.912323,-1.411026,0.055343628,0.28556824,0.15818787
1620,A,938094151506757,4.032501,8.561127,-2.934555,-0.21998596,0.17378235,-0.089141846
1620,A,938094201860761,2.4269257,10.621094,-4.1285095,-0.59539795,0.31314087,-0.12902832
1620,A,938094252214765,3.1400604,12.695801,-3.6534424,-0.47296143,0.14553833,-0.5313263
1620,A,938094302568769,5.9053345,9.454422,-0.9314575,0.15232849,0.6163635,-0.083099365
1620,A,938094352922773,3.1345062,6.4418945,-1.2443848,0.5937195,-0.05632019,0.38362122
1620,A,938094403276777,0.39894104,5.836609,-1.1240997,0.22993469,-0.308609,0.40811157
1620,A,938094453630781,1.0604095,7.040573,-0.2564087,0.3175354,-0.50442505,0.20596313
1620,A,938094503984785,3.2921448,8.389847,0.4035492,0.33148193,-0.64779663,-0.052215576
1620,A,938094554338789,4.8648224,11.750473,-0.8560333,0.042114258,-0.60891724,-0.18089294
1620,A,938094604692793,4.306549,11.20192,0.56591797,-0.1857605,-0.25505066,-0.17616272
1620,A,938094655046797,3.8864746,13.907471,-4.4306793,-0.027313232,-0.14456177,0.36386108
1620,A,938094705400800,2.6688232,6.6334076,-2.8073883,0.2293396,0.45591736,0.5800781
1620,A,938094755754804,2.062622,9.116119,-1.571518,0.3495636,0.47120667,0.5149536
1620,A,938094806108808,2.1805267,8.565613,-2.354538,-0.3047943,-0.08709717,0.19596863
1620,A,938094856462812,2.8851013,6.496216,-1.5596161,-0.47055054,0.23358154,-0.25790405
1620,A,938094906816816,3.784607,7.041794,-1.0479126,-0.09718323,0.68647766,-0.6081848
1620,A,938094957170820,4.8365326,8.571426,-1.856369,0.10745239,0.5192108,-0.45684814
1620,A,938095007524824,5.1256104,8.457809,-1.845932,0.20321655,0.37068176,-0.15319824
1620,A,938095057878828,5.277298,9.299133,-0.53215027,0.1494751,0.3115387,0.12774658
1620,A,938095108232832,5.9737854,9.387497,-2.2872314,0.16903687,0.15188599,0.050460815
1620,A,938095158586836,2.3918762,9.160812,-4.5919952,-0.23724365,0.3595276,-0.20214844
1620,A,938095208940839,0.6196594,14.240112,-3.5491943,-0.46598816,-0.15156555,-0.6965637
1620,A,938095259294843,5.8936768,11.775085,-2.9313812,-0.6324768,0.47253418,-0.18815613
1620,A,938095309648847,4.80748,7.432678,-0.8265686,0.6905365,0.15960693,0.014297485
1620,A,938095360002851,1.4082947,5.994629,-0.09132385,0.3427124,-0.30871582,0.40940857
1620,A,938095410356855,1.2231445,5.376541,-0.6191406,0.48493958,-0.56044006,0.4893341
1620,A,938095460710859,1.9387817,6.7871704,0.38926697,0.42710876,-0.818985,0.11013794
1620,A,938095511064863,3.8075256,9.367706,1.1058807,0.06480408,-0.9259796,-0.13282776
1620,A,938095561418867,5.370514,12.956039,-0.34246826,-0.22679138,-0.72991943,-0.17422485
1620,A,938095611772871,6.596878,13.523346,-1.8692932,-0.2869568,-0.5323334,-0.09799194
1620,A,938095662126875,-0.5191498,10.210587,-5.003525,-0.05455017,-0.6142273,0.37864685
1620,A,938095712480879,3.6691132,6.800308,-0.8733978,0.27075195,0.16035461,0.7849579
1620,A,938095762834882,2.030655,9.694305,-2.7753296,0.3343811,-0.099365234,0.614151
1620,A,938095813188886,1.7952728,7.41835,-1.5945129,-0.54901123,-0.08078003,-0.0030975342
1620,A,938095863542890,2.957428,5.9582214,-1.8677979,-0.46214294,0.43151855,-0.5471649
1620,A,938095913896894,3.7743378,8.709717,-2.3521118,-0.0717926,0.58180237,-0.5904541
1620,A,938095964250898,4.8963776,8.65686,-1.1735077,0.32295227,0.35588074,-0.43481445
1620,A,938096014604902,4.4570313,8.626404,-0.55848694,0.26783752,0.33885193,-0.03919983
1620,A,938096064958906,5.7955933,9.019867,-0.66526794,0.09588623,0.41827393,0.2318573
1620,A,938096115312910,4.4232025,9.644623,-3.6577148,-0.09590149,0.19087219,0.015457153
1620,A,938096165666914,1.4851379,11.447342,-4.323059,-0.4628601,0.2303009,-0.19589233
1620,A,938096216020918,3.1547394,12.932541,-4.1010284,-0.67567444,-0.47683716,-0.67329407
1620,A,938096266374922,6.0836487,10.216187,-2.3411713,-0.26763916,0.41511536,-0.00390625
1620,A,938096316728925,2.7439575,7.2829437,-0.93696594,0.51916504,-0.45085144,0.359787
1620,A,938096367082929,1.5261993,5.710434,-0.36291504,0.19232178,-0.85072327,0.50997925
1620,A,938096417436933,1.0289154,6.737549,-0.9376068,0.22267151,-0.9662628,0.30195618
1620,A,938096467790937,2.633133,8.174088,0.55326843,0.06851196,-1.0769348,-0.07763672
1620,A,938096518144941,5.533905,9.815414,-0.36813354,-0.16574097,-0.86154175,-0.14929199
1620,A,938096568498945,3.3504791,10.81485,-0.17022705,-0.2933197,-0.40745544,-0.20791626
1620,A,938096618852949,3.8168793,16.301239,-6.6290436,-0.025268555,-0.31933594,0.010055542
1620,A,938096669206953,1.7751007,6.6529846,-3.0363922,-0.15644836,0.048171997,0.5299835
1620,A,938096719560957,2.2998352,8.827988,-1.0968628,0.41033936,0.6141968,0.7029419
1620,A,938096769914961,1.4192047,8.959763,-2.6640472,0.022445679,0.23596191,0.23196411
1620,A,938096820268964,2.6767426,6.7859344,-2.30307,-0.5778961,0.5910187,-0.2806549
1620,A,938096870622968,3.5069733,7.1929016,-2.2406006,0.15710449,0.9695587,-0.62153625
1620,A,938096920976972,4.337494,8.326614,-1.5323334,0.21955872,0.9349823,-0.65493774
1620,A,938096971330976,6.0625763,8.321899,-0.6960907,0.30952454,0.84417725,-0.32025146
1620,A,938097021684980,4.795639,8.175552,-0.32164,0.19943237,0.7082977,0.054718018
1620,A,938097072038984,4.9597473,10.308517,-2.7232819,0.23283386,0.4724121,0.04801941
1620,A,938097122392988,3.5066833,9.115753,-4.128952,-0.14956665,0.37911987,-0.27470398
1620,A,938097172746992,2.1841125,13.64534,-3.4826813,-0.7278595,-0.44960022,-0.62815857
1620,A,938097223100996,4.951462,12.050308,-3.9583588,-0.462677,0.71144104,0.0121154785
1620,A,938097273455000,4.9563904,7.998169,-0.7208252,1.0976715,0.19728088,0.05142212
1620,A,938097323809004,2.0209808,6.290985,-1.1236115,0.4547882,0.040542603,0.33311462
1620,A,938097374163007,0.73908997,5.3165283,-1.2403564,0.4622345,-0.24021912,0.3946991
1620,A,938097424517011,1.5971375,7.3415833,-0.2669983,0.57237244,-0.5937958,-0.074295044
1620,A,938097474871015,4.024643,8.795914,1.3046722,0.06454468,-0.7247009,-0.18928528
1620,A,938097525225019,4.94693,11.919617,-1.2100677,-0.29580688,-0.6846924,-0.17797852
1620,A,938097575579023,5.931122,15.387497,-4.105118,-0.29899597,-0.52401733,0.011199951
1620,A,938097625933027,-0.19866943,8.589279,-3.9535522,0.007583618,-0.26109314,0.526474
1620,A,938097676287031,4.2942657,6.6644287,0.037872314,0.5192566,0.6385956,0.7449188
1620,A,938097726641035,2.0078735,10.139786,-2.8103638,0.37586975,0.09765625,0.34126282
1620,A,938097776995039,1.8398895,7.1461487,-2.4525146,-0.72416687,0.36735535,-0.11546326
1620,A,938097827349043,3.0230103,5.987961,-2.0049744,-0.15171814,0.74967957,-0.4769745
1620,A,938097877703047,3.7972565,9.020645,-2.591278,0.18041992,0.77256775,-0.52433777
1620,A,938097928057050,4.7330475,8.664368,-1.9028168,0.4465027,0.660614,-0.29318237
1620,A,938097978411054,3.9125366,8.283813,-0.88830566,0.48036194,0.60313416,-0.01676941
1620,A,938098028765058,5.992157,8.657135,-1.2027893,0.3375244,0.5984955,0.1209259
1620,A,938098079119062,4.3572845,9.717072,-4.0858307,-0.079208374,0.26583862,-0.11543274
1620,A,938098129473066,1.3310547,13.079559,-3.666809,-0.75556946,-0.35557556,-0.5969391
1620,A,938098179827070,4.2336273,12.869537,-5.3240814,-0.69563293,0.14356995,-0.2275238
1620,A,938098230181074,4.779434,8.601135,-1.1958466,0.33511353,-0.13687134,0.23852539
1620,A,938098280535078,1.8666382,6.033478,-0.6800537,0.32434082,-0.68696594,0.537323
1620,A,938098330889082,1.0480194,5.581375,-1.0450287,0.3249359,-0.96920776,0.45570374
1620,A,938098381243086,1.9509277,7.167862,-0.3063507,0.016860962,-1.3032227,0.07192993
1620,A,938098431597089,4.0137787,8.581421,0.6903534,-0.17741394,-1.5586548,-0.09094238
1620,A,938098481951093,4.541855,11.481018,-1.8712158,-0.37446594,-0.97610474,-0.030334473
1620,A,938098532305097,3.313736,13.850372,-3.7962036,-0.11843872,-0.42416382,0.0740509
1620,A,938098582659101,-0.2102356,10.574921,-4.98703,0.021392822,-0.1068573,0.3815918
1620,A,938098633013105,3.2363586,7.3778076,-1.332901,0.38793945,0.594162,0.7109375
1620,A,938098683367109,1.7448883,9.066223,-1.9767303,-0.024917603,-0.022125244,0.25595093
1620,A,938098733721113,2.3615265,6.995392,-2.5411682,-1.0277863,0.13513184,-0.06703186
1620,A,938098784075117,2.2528229,6.5765533,-3.285797,-0.30430603,0.58314514,-0.4638214
1620,A,938098834429121,3.559616,8.458282,-2.1373444,0.19316101,0.6891327,-0.5213165
1620,A,938098884783125,5.507004,8.938675,-1.486084,0.29319763,0.88204956,-0.113861084
1620,A,938098935137129,5.6978455,8.317139,0.07203674,0.1382904,0.9673462,0.078567505
1620,A,938098985491132,6.0894775,9.533936,-1.8951721,0.13595581,0.7558594,-0.0024414063
1620,A,938099035845136,2.6670074,9.544083,-3.6335907,-0.35287476,0.21711731,-0.6911011
1620,A,938099086199140,1.8995056,13.37886,-4.6794434,-0.7645416,0.2124176,-0.21160889
1620,A,938099136569991,3.725418,12.866241,-5.096695,0.10394287,0.35185242,0.030059814
1620,A,938099186923995,4.8400574,7.928711,-0.8025055,0.6026306,-0.43797302,0.34727478
1620,A,938099237277999,2.035965,5.997406,-0.4175415,0.21498108,-0.75938416,0.5274353
1620,A,938099287632003,1.0697479,5.060425,-0.9368439,0.111312866,-1.1948242,0.093307495
1620,A,938099337986007,3.0004425,8.002304,0.3085785,-0.17089844,-1.4359894,-0.14486694
1620,A,938099388340011,4.713196,8.744156,0.81495667,-0.43544006,-1.0617218,-0.07481384
1620,A,938099438694015,3.7176514,12.056763,-1.3598785,-0.28529358,-0.6173401,0.023040771
1620,A,938099489048019,1.7337952,13.383133,-6.6941223,-0.1756134,-0.1802826,0.34928894
1620,A,938099539402022,4.2977448,7.241928,-1.2463837,0.6034088,0.95014954,0.780426
1620,A,938099589756026,1.9068146,9.235138,-1.8789673,0.24195862,0.4727173,0.3501892
1620,A,938099640110030,1.7874146,7.9431305,-3.1414795,-0.70077515,0.5939789,-0.12658691
1620,A,938099690464034,1.9522705,6.2198334,-2.9799652,0.10092163,0.77171326,-0.38801575
1620,A,938099740818038,3.489624,8.19075,-2.575821,0.37535095,0.925827,-0.58787537
1620,A,938099791172042,5.41568,8.58815,-0.96551514,0.4908142,1.0966797,-0.44273376
1620,A,938099841526046,5.9502716,7.7964935,0.6248474,0.3355713,1.190033,-0.056228638
1620,A,938099891880050,6.4715576,8.437775,-1.0797119,0.25839233,0.77905273,-0.022140503
1620,A,938099942234054,3.5640564,8.429794,-2.443985,-0.31503296,0.69815063,-0.20765686
1620,A,938099992588058,3.303894,13.403519,-4.637451,-0.5302582,-0.10243225,-0.5148468
1620,A,938100042942061,4.124237,13.068832,-4.8566895,-0.22410583,0.6517029,0.09616089
1620,A,938100093296065,4.3721466,8.482376,-0.37719727,0.5500183,-0.10508728,0.36994934
1620,A,938100143650069,3.3532257,6.55809,-0.6457825,-0.16259766,-0.40304565,0.5840149
1620,A,938100194004073,2.537445,5.806885,-1.0218201,0.02684021,-1.0348053,0.3431549
1620,A,938100244358077,2.4073944,7.1027985,-0.25872803,-0.16642761,-1.479538,-0.026885986
1620,A,938100294712081,3.397766,8.730255,0.41854858,-0.24685669,-1.148819,-0.0773468
1620,A,938100345066085,3.565506,10.076141,-1.1925812,-0.24830627,-0.66859436,0.035446167
1620,A,938100395420089,3.545761,16.3871,-5.8303986,-0.21566772,-0.5006256,0.28845215
1620,A,938100445774093,2.331543,7.9550476,-3.6575623,0.018173218,0.1277771,0.7344208
1620,A,938100496128097,2.3937988,8.628571,-1.092453,0.049865723,-0.098480225,0.6379852
1620,A,938100546482101,1.477478,9.393692,-3.3096924,-0.789978,-0.1681366,0.10258484
1620,A,938100596836104,2.118042,6.4583893,-1.7218018,-0.18237305,0.33491516,-0.33216858
1620,A,938100647190108,4.0125275,7.3746033,-1.7267151,-0.053863525,0.49235535,-0.52563477
1620,A,938100697544112,5.4022217,8.343903,-1.1150513,0.19049072,0.3987732,-0.517395
1620,A,938100747898116,4.7814484,7.6046753,0.058303833,0.3275299,0.41201782,-0.3944702
1620,A,938100798252120,5.914154,8.9700775,-0.6625061,0.3108673,0.42105103,-5.645752E-4
1620,A,938100848606124,3.9116669,8.744019,-2.0959778,-0.011871338,0.34098816,-0.20381165
1620,A,938100898960128,2.6947021,10.960892,-3.7362823,-0.4116516,0.20265198,-0.50717163
1620,A,938100949314132,4.4943542,14.743454,-3.0146484,-0.20825195,-0.2124176,-0.443985
1620,A,938100999668136,6.3463593,9.746124,-0.5651703,0.007736206,0.22039795,0.058898926
1620,A,938101050022140,2.8790894,6.2670746,-0.91630554,0.39302063,-0.54151917,0.46754456
1620,A,938101100376144,1.3119965,5.6808624,-0.51400757,0.22706604,-0.77241516,0.46568298
1620,A,938101150730147,2.821762,6.0040894,0.27493286,0.35723877,-1.078125,0.07771301
1620,A,938101201084151,3.5113068,9.508789,1.1959076,0.11526489,-1.2124481,-0.2684021
1620,A,938101251438155,5.005905,10.7642975,-0.07507324,-0.19070435,-0.9766693,-0.25950623
1620,A,938101301792159,4.6246033,10.707993,0.25569153,-0.44223022,-0.49731445,-0.0335083
1620,A,938101352146163,1.8430023,13.234192,-4.3088684,-0.032318115,-0.18824768,0.27598572
1620,A,938101402500167,2.6012115,7.3987427,-3.5581512,0.5654602,0.5429077,0.7147217
1620,A,938101452854171,2.070572,8.707321,-1.1141815,0.59420776,0.4031372,0.50878906
1620,A,938101503208175,2.1617584,8.310974,-1.7559052,-0.68177795,0.1953888,0.04499817
1620,A,938101553562179,3.6473846,6.3155823,-1.4805756,-0.23843384,0.61616516,-0.521286
1620,A,938101603916183,3.6926575,7.432007,-1.8883514,0.25105286,0.89245605,-0.79904175
1620,A,938101654270186,4.2185364,8.575272,-1.4745636,0.33685303,0.9197235,-0.5156555
1620,A,938101704624190,4.800415,9.264587,-1.2184296,0.38490295,0.69007874,0.023147583
1620,A,938101754978194,6.8203583,8.681076,-0.431427,0.09719849,0.5058136,0.30288696
1620,A,938101805332198,5.2780304,9.8098755,-1.8448334,-0.09269714,-0.08453369,-0.057128906
1620,A,938101855686202,2.173172,10.707703,-4.361374,-0.7041321,0.16941833,-0.077056885
1620,A,938101906040206,2.2177582,14.187073,-4.909622,-0.46966553,-0.31498718,-0.5688629
1620,A,938101956394210,5.46846,9.9991455,-1.0167236,-0.45057678,0.3443451,-0.01626587
1620,A,938102006748214,4.057968,6.086136,-0.5094757,0.55708313,-0.3935089,0.40567017
1620,A,938102057102218,1.1728363,5.0735626,-0.9126587,0.22666931,-0.5856781,0.46229553
1620,A,938102107456222,0.8934326,6.642105,-0.49560547,0.2832489,-1.0347595,0.29406738
1620,A,938102157810226,2.261673,8.936157,0.21511841,0.09207153,-1.313858,-0.1421814
1620,A,938102208164229,4.830429,11.180847,-0.8007202,-0.2318573,-0.8258972,-0.20045471
1620,A,938102258518233,3.3114014,11.39476,0.3279419,-0.161026,-0.23551941,-0.2512207
1620,A,938102308872237,4.1596375,13.441498,-4.7185516,0.34791565,-0.08181763,0.17022705
1620,A,938102359226241,2.1489868,8.132172,-4.303131,0.49305725,0.54582214,0.72506714
1620,A,938102409580245,3.0624542,8.516998,-0.6201935,0.48228455,0.40782166,0.40859985
1620,A,938102459934249,1.8908081,8.370331,-2.085617,-0.54981995,0.16824341,-0.1321106
1620,A,938102510288253,2.1709595,6.5864105,-1.9174194,-0.2775879,0.80062866,-0.43937683
1620,A,938102560642257,3.0516663,6.897293,-1.7985077,-1.4373932,-0.07821655,-0.2454071
1620,A,938102610996261,5.1221466,8.7200775,-1.3684235,0.06312561,0.006500244,-0.22299194
1620,A,938102661350265,6.282913,8.171936,-0.121795654,-0.35853577,-0.07711792,-0.0209198
1620,A,938102711704269,6.3348083,9.014374,0.026153564,0.04322815,0.4039917,0.1764679
1620,A,938102762058272,3.8282318,11.054825,-3.3469086,0.38606262,0.23326111,-0.017944336
1620,A,938102812412276,2.501297,10.178619,-4.2327576,-0.21472168,0.598526,-0.21325684
1620,A,938102862766280,2.467514,12.99321,-4.2737885,0.2980652,-0.0024414063,-0.8804779
1620,A,938102913120284,3.8473206,10.101196,-5.240387,-0.32019043,0.55355835,-0.069366455
1620,A,938102963474288,0.94825745,6.167404,-6.282913,0.23060608,-0.17495728,0.4415741
1620,A,938103013828292,1.189743,5.9323425,-0.8855896,0.6194763,-0.6781616,0.4300995
1620,A,938103064182296,2.1931763,6.741684,-2.1702728,0.5719147,-1.033905,0.23913574
1620,A,938103114536300,3.1698303,7.7982025,2.109909,0.03627014,-1.0589142,-0.21722412
1620,A,938103164890304,4.19989,8.798828,1.2848969,-0.033996582,-0.759964,-0.23338318
1620,A,938103215244308,3.6587677,10.49855,0.4326172,-0.3259735,-0.44462585,-0.22225952
1620,A,938103265598311,4.988785,14.935135,-3.6054993,-0.8121033,-0.53897095,0.18634033
1620,A,938103315952315,3.2131958,8.606659,-5.6407013,-0.3445282,-0.20144653,0.42929077
1620,A,938103366306319,1.6186981,9.083893,-1.4246674,0.14100647,0.0949707,0.3653717
1620,A,938103416660323,1.2060394,8.245956,-0.85331726,-0.19070435,0.07601929,-0.41789246
1620,A,938103467014327,1.95401,6.418442,-2.4239655,-0.31306458,0.438797,-0.24282837
1620,A,938103517368331,3.7565308,7.1587067,-2.812973,-0.15309143,0.6882324,-0.3951416
1620,A,938103567722335,5.176056,8.404663,-1.2264252,-0.0791626,0.5748749,-0.37538147
1620,A,938103618076339,5.310196,8.417618,-1.0308685,0.23007202,0.32966614,-0.12319946
1620,A,938103668430343,3.7912903,9.703552,-1.8186646,0.14501953,0.5311127,0.15156555
1620,A,938103718784347,4.155258,10.30925,-1.6018829,0.1789856,0.54530334,0.024368286
1620,A,938103769138351,3.3728333,9.380737,-3.5582886,-0.18371582,0.65841675,-0.023635864
1620,A,938103819492354,2.788086,13.49202,-2.5758362,-0.07136536,0.41137695,-0.2184143
1620,A,938103869846358,3.816864,11.198044,-2.0788574,-0.0071411133,0.875,-0.4359131
1620,A,938103920200362,2.8609314,8.529617,-1.5276031,0.19018555,0.7939606,0.15887451
1620,A,938103970554366,0.74705505,6.292633,-1.1833038,0.66729736,0.14456177,0.3927307
1620,A,938104020908370,1.1468353,6.906006,-0.05355835,0.678421,-0.7314911,0.44680786
