Subject-Id,Activity Label,Time stamp,Accel_x,Accel_y,Accel_z,Gyro_x,Gyro_y,Gyro_z
1628,A,1138392306137846,0.5492859,5.701355,7.426468,-0.0071411133,0.41215515,0.23658752
1628,A,1138392326279447,0.5172119,5.7752533,6.9652863,0.2293396,0.5556183,0.17140198
1628,A,1138392346421049,0.7115936,5.796509,6.5444794,0.15341187,0.20028687,0.112335205
1628,A,1138392366562650,0.6067352,5.9310913,7.0544586,-0.05784607,-0.23873901,-0.023590088
1628,A,1138392386704252,0.59555054,5.9887085,7.9869385,-0.20509338,-0.37586975,-0.08900452
1628,A,1138392406845854,0.59935,5.8997345,7.379059,-0.4021454,-0.61846924,-0.19519043
1628,A,1138392426987455,0.8379059,5.939392,6.8081665,-0.8698578,-0.8295288,-0.78186035
1628,A,1138392447129057,0.78515625,6.046768,6.3301697,-0.40144348,-0.8900299,-0.3428955
1628,A,1138392467270658,0.7212372,6.1448517,6.86528,-0.6261749,-0.876297,-0.092041016
1628,A,1138392487412260,0.6207123,6.069336,6.7016754,-1.5922241,-1.0249329,0.53193665
1628,A,1138392507553861,0.67951965,6.0353546,5.660431,-1.6554108,-0.45635986,1.6089783
1628,A,1138392527695463,0.7292175,6.292862,6.3677063,-1.9959717,0.2556305,-0.20588684
1628,A,1138392547837064,0.62887573,6.2985535,6.8097534,-0.9048004,-1.1082306,-0.89915466
1628,A,1138392567978666,0.56066895,6.2291107,7.1941376,0.46333313,-0.94395447,-0.631073
1628,A,1138392588120268,0.5166321,6.0972137,6.599167,0.97850037,2.578415,0.048431396
1628,A,1138392608261869,0.46206665,6.075012,6.05777,-1.4056091,3.6546936,-0.49682617
1628,A,1138392628403471,0.5240936,6.30394,6.471039,-1.7415466,3.2055511,-0.18487549
1628,A,1138392648545072,0.55397034,6.282669,6.8238373,-1.8375702,0.7413025,0.21817017
1628,A,1138392668686674,0.70191956,6.276428,6.7955017,-0.34898376,-2.8458862,0.3287201
1628,A,1138392688828275,0.70732117,6.1569214,6.6595306,1.1929321,-2.3664093,-0.4903412
1628,A,1138392708969877,0.5837555,5.9976654,6.1822968,-1.9454651,-0.84446716,-0.56733704
1628,A,1138392729111479,0.23634338,5.920166,6.0877075,-0.9623718,-0.8335724,0.20515442
1628,A,1138392749253080,-0.47875977,5.8624573,6.5608673,-0.74391174,-1.7079468,0.66381836
1628,A,1138392769394682,-0.21482849,5.931961,7.127014,-0.07847595,-1.3670044,1.0163116
1628,A,1138392789536283,-0.18647766,5.35524,7.7079926,0.47039795,-0.47895813,0.7455597
1628,A,1138392809677885,-0.4402771,5.092636,7.913162,0.035232544,-0.42933655,0.2803955
1628,A,1138392829819486,-0.32731628,5.7113953,7.6020813,0.69973755,0.5588379,0.4764557
1628,A,1138392849961088,-0.23962402,6.1016693,7.418762,0.33454895,0.54789734,0.06915283
1628,A,1138392870102689,0.075805664,5.7719727,6.676651,0.10484314,0.5356903,-0.10903931
1628,A,1138392890244291,-1.0681152E-4,5.4654083,6.394882,-0.08100891,2.3981018,-0.7843323
1628,A,1138392910385893,-0.07307434,5.3665314,6.5515747,-0.6297455,2.1226196,-1.0033569
1628,A,1138392930527494,0.033859253,5.312668,7.0283356,-0.9256439,-0.9979706,0.59539795
1628,A,1138392950669096,0.19319153,5.258484,8.054489,-0.47174072,0.9858551,-0.27301025
1628,A,1138392970810697,0.23112488,5.0451813,8.577438,-0.30697632,-0.39378357,0.041290283
1628,A,1138392990952299,0.2459259,5.1219177,7.93779,-0.8144531,-1.3892212,0.08552551
1628,A,1138393011093900,0.32328796,5.2740936,7.060211,-1.093338,-2.763794,-0.18650818
1628,A,1138393031235502,0.43460083,5.103348,7.256134,-0.7613373,-2.8021393,-0.24035645
1628,A,1138393051377104,0.35029602,5.096649,7.9994507,-0.9428406,-1.9280853,-0.7847595
1628,A,1138393071518705,0.23526001,5.1805573,8.268356,-0.80459595,-1.7857971,-0.6168518
1628,A,1138393091660307,0.20848083,5.1543427,7.942917,-0.6889343,-1.5845337,0.27011108
1628,A,1138393111801908,0.33241272,5.0075836,7.730362,-1.3403168,-0.3546753,-0.75753784
1628,A,1138393131943510,0.4201355,4.942047,7.683075,-0.7762451,-2.0111542,0.20640564
1628,A,1138393152085111,0.4192047,5.0482025,7.7296906,0.13475037,-2.0647888,0.15571594
1628,A,1138393172226713,0.38793945,5.1950226,7.8084717,1.559555,-1.7631989,-0.12780762
1628,A,1138393192368314,0.31993103,5.1505737,7.8267517,-0.37661743,-1.1051483,0.114730835
1628,A,1138393212509916,0.3102417,5.0046387,7.7848053,-0.26956177,-1.0186615,-0.3149414
1628,A,1138393232651518,0.6282654,4.955124,8.146622,-0.3367157,-0.9681854,0.35572815
1628,A,1138393252793119,0.47888184,4.8026733,8.511139,0.12986755,-0.99638367,0.30158997
1628,A,1138393272934721,0.3433838,4.9489746,7.996582,0.54597473,-1.5220642,0.4860382
1628,A,1138393293076322,0.28457642,4.9675293,7.5711975,0.897171,-1.0911255,0.55348206
1628,A,1138393313217924,0.34947205,4.8942566,7.55484,0.095199585,-0.6521301,0.50883484
1628,A,1138393333359525,0.28297424,4.9172974,7.745163,-0.10177612,-0.79119873,0.42642212
1628,A,1138393353501127,0.24702454,4.9551086,7.9841614,-1.1813812,-0.9555359,0.84825134
1628,A,1138393373642729,0.385437,4.949066,8.092392,-0.08796692,-0.85118103,0.628479
1628,A,1138393393784330,0.33055115,4.9364166,7.921692,0.0019836426,-0.5333557,0.2526245
1628,A,1138393413925932,0.2630005,4.8714447,7.885071,0.5229645,-0.40086365,0.9837494
1628,A,1138393434067533,0.294693,4.852524,7.842911,0.6402893,0.24946594,1.0886536
1628,A,1138393454209135,0.14457703,4.855194,7.7354736,0.901474,0.4468994,1.1930237
1628,A,1138393474350736,0.701004,4.9172974,8.033386,0.91859436,-0.1381836,1.2484436
1628,A,1138393494492338,0.5076294,5.015732,7.9704742,0.941864,-0.21282959,1.0380402
1628,A,1138393514633939,-0.12889099,5.027939,7.9364014,0.6869812,-0.2238617,1.0039978
1628,A,1138393534775541,-0.14787292,5.0106506,8.078598,0.5447693,-0.16886902,1.4286804
1628,A,1138393554917143,-0.04975891,4.9025116,7.958084,0.6301575,-0.6099243,1.990509
1628,A,1138393575058744,-0.07383728,4.90065,7.7282867,0.27157593,-0.7413788,1.7799835
1628,A,1138393595200346,-0.27427673,5.108368,7.456833,-0.19238281,-0.28163147,0.37828064
1628,A,1138393615341947,-0.42739868,5.240677,7.2520294,0.08065796,-0.33514404,-0.21902466
1628,A,1138393635483549,-0.37278748,5.1435547,7.3500977,0.052886963,0.31199646,-0.24986267
1628,A,1138393655625150,-0.18328857,5.039261,7.513275,0.41670227,-0.087142944,-0.9711304
1628,A,1138393675766752,-0.054595947,4.9366302,7.467819,0.254776,0.32400513,0.10295105
1628,A,1138393695908354,0.034240723,4.9329224,7.404907,-0.22654724,-0.12294006,0.65960693
1628,A,1138393716049955,-0.070388794,4.958267,7.4171143,-0.22711182,0.36087036,-0.1671753
1628,A,1138393736191557,-0.03816223,4.832321,7.4340515,-0.67407227,-0.009033203,0.039413452
1628,A,1138393756333158,0.060150146,4.9430084,7.1422424,-0.61587524,-0.7665558,1.0428467
1628,A,1138393776474760,0.8870239,5.335449,6.6718903,-0.67626953,-0.16113281,0.44776917
1628,A,1138393796616361,-0.34361267,5.1678467,6.9107056,-0.6168213,-0.4406128,0.21002197
1628,A,1138393816757963,0.719162,4.1566925,7.9918823,-0.5417175,-0.4222412,0.18011475
1628,A,1138393836899564,0.7698517,4.0819397,8.273132,-0.3988037,-0.14291382,0.447464
1628,A,1138393857041166,0.35845947,4.046356,7.755234,-0.5375366,-0.094558716,0.51623535
1628,A,1138393877182768,0.6629791,3.5391998,6.984329,-0.4421692,-0.0033416748,0.5064392
1628,A,1138393897324369,-0.28579712,3.8543396,6.522934,-0.3885498,0.030914307,0.9109955
1628,A,1138393917465971,0.37449646,3.6209564,6.4898376,-0.44953918,-0.19747925,0.23225403
1628,A,1138393937607572,-0.9016876,3.1919403,6.924713,-0.061264038,-0.07875061,-0.1774292
1628,A,1138393957749174,-1.5945435,3.585205,6.7963715,0.87939453,0.23980713,-0.4876709
1628,A,1138393977890775,-1.8722229,3.0552673,9.251343,0.9262543,0.057022095,-0.41453552
1628,A,1138393998032377,-1.111496,2.5878296,10.145218,0.8881378,0.09056091,-0.49293518
1628,A,1138394018173979,0.3368988,1.9780426,8.118118,0.9347534,0.2674408,-0.43475342
1628,A,1138394038315580,0.35578918,1.4772034,9.88295,0.7960205,0.7080078,-0.24205017
1628,A,1138394058457182,-1.0825653,-1.7341919,8.689728,0.62158203,0.85487366,-0.12472534
1628,A,1138394078598783,-1.3016205,0.8575897,9.988388,0.23812866,1.0359955,0.04460144
1628,A,1138394098740385,-0.246521,-1.3790283,8.942062,-0.23083496,0.74546814,0.103775024
1628,A,1138394118881986,1.1915131,-0.587677,8.421509,-0.14143372,0.9549713,0.12017822
1628,A,1138394139023588,0.2517395,-0.33563232,8.029938,-0.3451538,0.7775879,8.087158E-4
1628,A,1138394159165189,-0.40652466,-0.62350464,7.9948273,0.16090393,0.9197998,-0.2931366
1628,A,1138394179306791,2.4206085,0.31726074,8.077194,0.49519348,0.9541931,-0.43125916
1628,A,1138394199448393,4.440216,-0.09667969,6.958832,0.21624756,0.3533783,-0.110321045
1628,A,1138394219589994,3.6848145,-0.61683655,5.347931,-0.09895325,-0.27931213,0.28930664
1628,A,1138394239731596,3.5878296,-0.011871338,2.302658,-0.63298035,0.4070282,0.17462158
1628,A,1138394259873197,2.2432098,0.3872528,7.126938,-0.72073364,0.31741333,-0.015380859
1628,A,1138394280014799,2.2706451,1.9064026,7.8775177,-0.86047363,-0.9349518,-0.12226868
1628,A,1138394300156400,-0.6156311,-0.8507385,11.3284,-1.0484314,-0.65956116,0.05947876
1628,A,1138394320298002,1.0987091,-0.6390686,10.792892,-0.8391876,-0.49995422,0.20880127
1628,A,1138394340439604,0.5944519,0.3388672,9.423859,-0.5956726,-0.8147888,0.34194946
1628,A,1138394360581205,0.0657959,0.44184875,10.268158,-0.36772156,-0.7794037,0.37571716
1628,A,1138394380722807,4.532074,0.63856506,10.922714,-0.37387085,-0.7941437,0.54115295
1628,A,1138394400864408,0.40611267,-0.7395935,13.232834,-0.33554077,-0.97143555,0.6279144
1628,A,1138394421006010,-0.549942,-1.6575012,15.728409,-0.58717346,-1.0244293,0.41937256
1628,A,1138394441147611,0.927948,-0.45812988,12.661789,-0.46250916,-0.82321167,0.20013428
1628,A,1138394461289213,2.7787018,2.0991821,8.992645,-0.10966492,-0.1006012,-0.21929932
1628,A,1138394481430814,2.0037384,1.9087372,3.7572784,0.921875,1.351593,-1.1899414
1628,A,1138394501572416,0.2788849,0.9715576,7.561615,1.6229248,1.0283966,-1.1736908
1628,A,1138394521714018,-0.37757874,-0.10284424,13.165268,1.6225739,-0.11279297,-0.8939972
1628,A,1138394541855619,0.25741577,-0.1789093,12.77034,1.3658447,0.59365845,-0.46574402
1628,A,1138394561997221,-0.7085266,0.20872498,10.996521,0.9519043,1.7784271,-0.4002838
1628,A,1138394582138822,-0.29719543,-0.9360504,9.212265,0.40403748,2.0783234,-0.371109
1628,A,1138394602280424,2.879181,-1.2965698,9.2908325,0.012435913,1.7182007,-0.10017395
1628,A,1138394622422025,4.7710266,-0.54234314,9.982162,-0.48127747,1.5071106,0.07859802
1628,A,1138394642563627,2.1803284,-1.0348816,11.720032,-0.8843231,1.387146,0.052108765
1628,A,1138394662705229,2.0279999,-0.19622803,11.528595,-0.993515,1.0155334,0.2217102
1628,A,1138394682846830,3.135559,-1.6174622,9.810837,-0.8271637,0.8915405,0.040985107
1628,A,1138394702988432,3.3473816,-2.2758179,9.984833,-0.4842682,0.6226959,-0.029846191
1628,A,1138394723130033,3.6772308,-1.2321625,9.592697,0.5464325,-0.07369995,-0.021743774
1628,A,1138394743271635,3.076828,-1.9198303,7.069458,0.3924408,-1.6228333,-0.29371643
1628,A,1138394763413236,1.9960632,-1.4134674,8.953796,-0.14489746,-2.1560516,0.19526672
1628,A,1138394783554838,0.7491913,-0.8371277,12.055649,-1.0296936,-2.0117798,0.030273438
1628,A,1138394803696439,2.0569763,-1.3773804,9.521912,-1.3197479,-2.8746796,0.47483826
1628,A,1138394823838041,3.7862701,-1.749176,7.833954,-0.9059601,-2.9419708,0.73176575
1628,A,1138394843979643,2.9416351,-1.0949402,8.95079,-0.56703186,-1.9905548,0.6298218
1628,A,1138394864121244,1.9754333,-0.6335144,8.663437,-0.4624176,-1.0348053,0.32881165
1628,A,1138394884262846,1.8963928,-1.2307434,8.063568,-0.3459015,-0.517395,0.29655457
1628,A,1138394904404447,2.4726715,-1.602066,8.951019,-0.078689575,-0.12147522,-0.11930847
1628,A,1138394924546049,2.230896,-1.4945374,9.320129,0.20089722,-0.027053833,-0.76452637
1628,A,1138394944687650,1.9052429,-1.220871,6.6094666,1.627655,0.86006165,-1.2673492
1628,A,1138394964829252,1.1193085,-1.1815186,5.437805,1.8581085,-0.20748901,-0.7388611
1628,A,1138394984970854,-0.3527069,-1.7582703,7.5776978,1.843277,-0.41773987,-0.5332794
1628,A,1138395005112455,-1.2912598,-2.305313,7.5054474,1.4140167,0.6897278,-0.23098755
1628,A,1138395025254057,-2.3559418,-2.2566376,7.4844513,0.75001526,1.3017273,-0.22013855
1628,A,1138395045395658,-2.6697998,-1.773346,8.782974,0.20344543,0.93341064,0.19711304
1628,A,1138395065537260,-1.4964752,-1.6583405,9.768646,-0.31756592,0.60639954,0.27192688
1628,A,1138395085678861,0.8849335,-1.9981995,9.9045105,-0.69888306,0.48260498,0.34405518
1628,A,1138395105820463,1.6369781,-2.3705902,9.977966,-0.07733154,0.46540833,0.18515015
1628,A,1138395125962064,-0.05354309,-2.327942,9.602707,0.25354004,0.1638031,-0.19195557
1628,A,1138395146103666,-0.9624939,-2.0732117,9.55452,0.3257904,0.1962738,0.07208252
1628,A,1138395166245268,-0.7015991,-2.1998749,9.565002,-0.049346924,-0.58644104,0.37670898
1628,A,1138395186386869,0.8125763,-2.8160095,7.207123,-0.21372986,-0.7802429,0.4348297
1628,A,1138395206528471,2.3230286,-2.9271393,7.214905,-0.91822815,-0.6563721,0.30970764
1628,A,1138395226670072,2.235855,-2.8820038,8.091568,-1.1261597,-1.176117,-0.0016784668
1628,A,1138395246811674,2.5800629,-3.282959,7.846939,-1.0506439,-1.3846588,0.16186523
1628,A,1138395266953275,3.5111542,-3.6018524,7.9435577,-0.8839874,-1.0988007,0.11734009
1628,A,1138395287094877,2.9232483,-3.7730408,9.688721,-0.8024292,-0.26081848,0.44981384
1628,A,1138395307236479,3.514557,-4.1589966,8.844055,-0.7259064,-0.04121399,0.44441223
1628,A,1138395327378080,5.421631,-4.4733276,8.195297,-0.65283203,-0.041152954,0.54499817
1628,A,1138395347519682,5.460739,-4.749542,7.100357,-0.53053284,-0.1716919,0.3547821
1628,A,1138395367661283,5.3811493,-4.509201,6.77771,-0.49827576,-0.086502075,-0.08364868
1628,A,1138395387802885,4.339569,-4.11055,7.6716614,-0.15454102,0.58277893,-0.6541748
1628,A,1138395407944486,3.5152435,-4.006729,7.469055,0.9441223,1.2075806,-0.76135254
1628,A,1138395428086088,4.415695,-3.8910065,7.5100403,1.7895966,0.8441162,-0.46206665
1628,A,1138395448227689,-0.62768555,-5.855667,5.342926,1.592041,0.021362305,-0.4815979
1628,A,1138395468369291,4.8858795,-1.6420441,5.7766266,1.3457794,0.7043152,-0.31111145
1628,A,1138395488510893,9.785065,-5.3813934,3.3188782,0.96772766,1.5839233,-0.2354126
1628,A,1138395508652494,5.4184113,-5.9519196,2.5241547,0.7213135,1.368576,-0.15078735
1628,A,1138395528794096,5.2099457,-3.968521,6.7634277,0.17456055,0.6407776,-0.0793457
1628,A,1138395548935697,3.1619568,-4.428894,9.028732,-0.44900513,0.21549988,0.09362793
1628,A,1138395569077299,6.6272583,-4.20018,7.2124176,-0.82437134,0.21124268,0.34716797
1628,A,1138395589218900,6.3633423,-4.8107758,4.0650177,-0.022705078,0.1609497,0.13946533
1628,A,1138395609360502,6.9783173,-5.0858307,5.340042,0.23118591,-0.24909973,-0.18107605
1628,A,1138395629502104,9.864334,-3.2430267,6.1641693,0.15046692,-0.20332336,-0.017715454
1628,A,1138395649643705,6.871155,-5.8775177,4.992752,-0.11882019,-1.1446381,0.30325317
1628,A,1138395669785307,8.3107605,-2.8436737,3.4118958,-0.414505,-0.893692,0.36947632
1628,A,1138395689926908,7.861084,-4.0191803,0.4840088,-0.8358154,-0.76820374,0.39598083
1628,A,1138395710068510,6.6877594,-4.709854,1.061966,-1.1229553,-1.631958,0.06802368
1628,A,1138395730210111,7.128769,-3.96698,3.7271118,-1.1230316,-1.5588379,0.36027527
1628,A,1138395750351713,10.41391,-3.2131348,4.201065,-0.92578125,-1.3114014,0.34883118
1628,A,1138395770493314,9.608704,-4.333481,4.517166,-0.830307,-0.8109894,0.44854736
1628,A,1138395790634916,6.843445,-5.061859,2.6203918,-0.5279083,-0.6496582,0.31471252
1628,A,1138395810776518,6.298355,-5.4535675,1.2908173,-0.50115967,-0.50250244,0.3680725
1628,A,1138395830918119,6.5028687,-4.530197,3.4203339,-0.4611969,-0.20574951,0.16383362
1628,A,1138395851059721,7.766403,-4.0485077,3.9603882,-0.19978333,-0.4597931,-0.2706604
1628,A,1138395871201322,7.8535767,-4.556732,1.7111664,0.62257385,0.40805054,-0.98532104
1628,A,1138395891342924,6.048355,-4.9140778,1.2065735,1.7837219,0.9323273,-0.8734741
1628,A,1138395911484525,7.064804,-4.427582,1.5626373,1.7879791,-0.0743866,-0.4241333
1628,A,1138395931626127,8.995834,-3.6749878,5.2168427,1.5919495,0.5233307,-0.29962158
1628,A,1138395951767729,8.220322,-5.205475,1.8471222,1.1174774,1.4749298,-0.22541809
1628,A,1138395971909330,9.444946,-3.863266,1.3093414,0.7419586,1.5652008,-0.30603027
1628,A,1138395992050932,8.737793,-3.8961334,1.3638611,0.4021759,0.9992218,-0.062149048
1628,A,1138396012192533,8.478165,-4.238434,1.9010315,-0.2246399,0.52386475,0.011138916
1628,A,1138396032334135,8.816132,-4.3216705,1.0680237,-0.67085266,0.62268066,0.17250061
1628,A,1138396052475736,8.2859955,-4.30101,0.9805298,-0.14732361,0.95799255,0.14704895
1628,A,1138396072617338,6.9840393,-4.4659576,0.6246948,0.30099487,0.529541,-0.28596497
1628,A,1138396092758939,5.5891113,-4.853668,-0.1149292,0.5272217,0.350708,-0.24050903
1628,A,1138396112900541,7.049515,-4.7039948,1.1841888,-0.25901794,-0.27326965,-0.029800415
1628,A,1138396133042143,8.308563,-4.974289,2.4365692,-0.3960266,-0.015029907,0.20144653
1628,A,1138396153183744,8.232086,-4.888809,1.9116669,-0.92567444,0.4401703,0.09605408
1628,A,1138396173325346,8.44693,-5.47348,0.36065674,-1.0690308,-0.7415161,-0.19340515
1628,A,1138396193466947,8.202438,-5.6986237,1.2633667,-1.1631775,-1.3665009,0.067214966
1628,A,1138396213608549,8.497787,-5.038788,0.9955292,-1.1058044,-1.0179443,0.21989441
1628,A,1138396233750150,7.8457947,-5.4789734,0.3761139,-1.0338745,-0.61138916,0.5084839
1628,A,1138396253891752,6.3306427,-5.5653687,0.7202606,-0.6521454,-0.59664917,0.54177856
1628,A,1138396274033354,6.096924,-6.016327,-0.07034302,-0.46507263,-0.8769531,0.5209961
1628,A,1138396294174955,9.05748,-7.6156616,-1.9264221,-0.6555939,-0.69085693,0.3007965
1628,A,1138396314316557,6.7744293,-9.093079,-0.24421692,-0.53123474,-0.95410156,-0.067596436
1628,A,1138396334458158,6.1697693,-8.466095,0.40185547,-0.10310364,-0.86291504,-0.4461975
1628,A,1138396354599760,6.093704,-7.8749084,-0.11201477,1.1047974,0.31565857,-1.1374817
1628,A,1138396374741361,5.1999664,-7.827011,-0.11140442,1.6374359,0.54989624,-0.78060913
1628,A,1138396394882963,3.9338684,-8.328934,-0.008148193,1.643219,0.01461792,-0.49557495
1628,A,1138396415024564,5.201935,-9.197952,0.68478394,1.3917999,0.9665375,-0.18760681
1628,A,1138396435166166,6.870178,-9.280548,2.332611,1.0068207,1.6761475,-0.21694946
1628,A,1138396455307768,7.2526093,-8.561371,2.4043732,0.6889038,1.4914551,-0.22673035
1628,A,1138396475449369,5.397812,-8.48085,-0.39987183,0.20619202,0.89115906,0.037506104
1628,A,1138396495590971,3.694641,-7.9987183,-0.4200287,-0.37303162,0.4355011,0.026870728
1628,A,1138396515732572,3.548233,-7.675003,-0.2638855,-0.6087494,0.5898285,0.15708923
1628,A,1138396535874174,4.7927856,-7.700165,0.45443726,0.21205139,0.58924866,-0.030319214
1628,A,1138396556015775,3.5358276,-7.0737762,0.9604492,0.3960724,0.41989136,-0.10127258
1628,A,1138396576157377,4.4541016,-7.615967,1.7596893,0.30908203,-0.20133972,0.020095825
1628,A,1138396596298979,4.6932373,-7.0994873,3.2861786,-0.16239929,-1.2488861,0.3323059
1628,A,1138396616440580,2.6424713,-5.9149933,2.3537445,-0.542923,-0.9687042,0.37054443
1628,A,1138396636582182,3.341217,-8.139709,1.1200256,-0.9547577,-0.9895172,0.04876709
1628,A,1138396656723783,3.781601,-9.210739,1.4980774,-1.1102448,-1.3693085,-0.23539734
1628,A,1138396676865385,3.6821594,-8.843246,1.9276581,-1.0722961,-0.9593811,0.12953186
1628,A,1138396697006986,3.4521027,-8.828262,2.577011,-0.92897034,-0.68421936,0.29684448
1628,A,1138396717148588,3.719513,-8.720825,3.676651,-0.78219604,-0.3857727,0.4842987
1628,A,1138396737290189,4.678314,-8.388977,3.1398315,-0.6627655,-0.14294434,0.53819275
1628,A,1138396757431791,3.8977814,-7.673996,2.7684631,-0.5504303,-0.348526,0.4535675
1628,A,1138396777573393,1.616272,-7.0763397,2.5005493,-0.610199,-0.2158966,0.023712158
1628,A,1138396797714994,2.103592,-8.640564,3.0500183,-0.32919312,-0.33563232,-0.2605133
1628,A,1138396817856596,3.5067291,-9.655777,3.5736847,0.69233704,0.3935547,-0.81877136
1628,A,1138396837998197,4.624115,-8.675476,3.860855,1.624649,0.96325684,-0.7568054
1628,A,1138396858139799,4.6203003,-6.753647,3.5884094,1.6953125,0.050308228,-0.5080414
1628,A,1138396878281400,2.5025482,-5.796707,2.5962524,1.6499481,0.35578918,-0.29951477
1628,A,1138396898423002,0.7409668,-10.197235,2.0424194,1.1372375,1.0449371,-0.07119751
1628,A,1138396918564604,0.3330536,-13.516327,0.1767273,0.6894531,1.0594788,-0.10914612
1628,A,1138396938706205,1.959732,-10.101883,-0.8617859,0.2347107,0.5635834,0.1234436
1628,A,1138396958847807,4.119156,-10.152634,-1.1688995,-0.4216919,0.22894287,0.31237793
1628,A,1138396978989408,3.2325745,-8.470322,-0.30360413,-0.59936523,0.31002808,0.34594727
1628,A,1138396999131010,1.9740753,-6.661957,1.3019714,0.097579956,0.5842285,0.046539307
1628,A,1138397019272611,0.47801208,-9.153275,-1.3321381,0.2290802,0.28440857,-0.13728333
1628,A,1138397039414213,3.3038483,-7.7601776,-1.3547974,0.26989746,0.13554382,-0.02279663
1628,A,1138397059555814,4.02565,-8.358597,-1.0576935,-0.09324646,-0.84588623,0.3688202
1628,A,1138397079697416,2.4172516,-10.867905,0.1264801,-0.31230164,-0.9928894,0.3517151
1628,A,1138397099839018,2.1948242,-11.307236,0.58226013,-0.8976898,-0.6577301,0.19485474
1628,A,1138397119980619,3.1936493,-11.311508,-0.07711792,-1.0107574,-1.392868,2.4414063E-4
1628,A,1138397140122221,3.7948456,-10.590561,-0.06736755,-0.94921875,-1.4805908,0.08895874
1628,A,1138397160263822,3.9494019,-9.754486,0.18157959,-0.9180298,-1.0786438,0.03387451
1628,A,1138397180405424,2.9371643,-9.824005,0.7476196,-0.8518982,-0.4642334,0.33721924
1628,A,1138397200547025,2.527771,-9.778091,0.499115,-0.88186646,-0.17218018,0.48086548
1628,A,1138397220688627,2.1958923,-9.825668,0.28604126,-0.77386475,-0.21717834,0.662735
1628,A,1138397240830229,1.8085785,-9.961365,-0.13963318,-0.7882385,-0.010604858,0.4703369
1628,A,1138397260971830,2.4312134,-8.575226,-0.028518677,-0.6702118,-0.34165955,-0.023849487
1628,A,1138397281113432,2.1896667,-8.234512,0.4571991,-0.004837036,-0.57336426,-0.503952
1628,A,1138397301255033,0.55474854,-8.376724,0.5752716,1.4575195,0.7043915,-1.0356445
1628,A,1138397321396635,2.8848877,-8.595886,0.7520447,1.9058685,0.48791504,-0.62908936
1628,A,1138397341538236,2.3796387,-6.185272,0.31278992,1.9565125,-0.05848694,-0.3988037
1628,A,1138397361679838,2.6999664,-8.696106,0.26568604,1.5548248,0.73568726,-0.14190674
1628,A,1138397381821439,3.4837341,-8.807098,-0.30662537,1.0555573,1.1654205,-0.15585327
1628,A,1138397401963041,2.565689,-8.11145,-0.45541382,0.66285706,1.1233368,0.013916016
1628,A,1138397422104643,1.935318,-8.84787,-0.7024231,4.4250488E-4,0.81829834,0.19995117
1628,A,1138397442246244,1.3997192,-8.626877,-0.71481323,-0.50419617,0.4465027,0.16569519
1628,A,1138397462387846,0.8344879,-10.190689,-1.3209076,-0.24790955,0.6522217,0.23431396
1628,A,1138397482529447,4.0893555,-11.113861,-0.26759338,0.350708,0.34188843,-0.22845459
1628,A,1138397502671049,4.991852,-12.536285,-0.13903809,0.41836548,0.39541626,-0.12594604
1628,A,1138397522812650,4.871643,-10.821701,-0.29141235,-0.011016846,-0.55874634,0.14056396
1628,A,1138397542954252,4.321045,-10.697815,-0.9954834,-0.13058472,-0.9724579,0.3481598
1628,A,1138397563095854,2.7935486,-11.128754,-1.0259857,-0.8695679,-0.56562805,0.29507446
1628,A,1138397583237455,2.9243317,-10.805283,-0.1056366,-1.2141724,-0.7510376,-0.057159424
1628,A,1138397603379057,2.4073334,-10.966919,0.9347229,-1.1882172,-0.9342041,-0.011734009
1628,A,1138397623520658,1.1854858,-11.502823,-0.24014282,-1.1614532,-0.88668823,0.15838623
1628,A,1138397643662260,-0.0059051514,-12.243805,-1.2294006,-0.9589386,-0.5395813,0.44223022
1628,A,1138397663803861,-1.3400116,-12.022598,-1.3354797,-0.73464966,-0.33926392,0.5631561
1628,A,1138397683945463,-1.1961212,-12.3229065,-1.0852356,-0.6655121,-0.23075867,0.6774292
1628,A,1138397704087064,1.4489136,-12.013992,0.5356598,-0.6496277,-0.024337769,0.48033142
1628,A,1138397724228666,1.8065186,-10.476837,0.32096863,-0.77537537,-0.07765198,0.01651001
1628,A,1138397744370268,1.7088165,-10.484802,0.26615906,-0.41766357,0.053878784,-0.51797485
1628,A,1138397764511869,0.67276,-11.360794,-0.092056274,0.8151703,0.89401245,-0.8999481
1628,A,1138397784653471,-0.3812561,-10.307907,-0.23686218,1.8913574,0.96481323,-0.6530609
1628,A,1138397804795072,0.25889587,-8.999176,0.31092834,1.8298035,0.44995117,-0.51060486
1628,A,1138397824936674,1.1264191,-8.212585,0.1354065,1.5357056,0.81900024,-0.299469
1628,A,1138397845078275,2.0438995,-7.9054565,0.089782715,1.0625458,1.4989929,-0.23350525
1628,A,1138397865219877,2.6114807,-8.091187,0.10714722,0.8002167,1.3835602,-0.19244385
1628,A,1138397885361479,2.0940552,-8.118103,-0.69059753,0.33164978,0.8357849,-0.0501709
1628,A,1138397905503080,0.8518677,-7.1451416,-0.90701294,-0.3297119,0.3888855,0.030273438
1628,A,1138397925644682,0.7775116,-6.250717,-1.2488098,-0.56300354,0.5395813,0.17254639
1628,A,1138397945786283,1.9014435,-7.042938,-0.72732544,0.22865295,0.39501953,-0.016906738
1628,A,1138397965927885,1.2210693,-7.108017,0.2733307,0.3635254,0.09921265,-0.11782837
1628,A,1138397986069486,0.58657837,-7.357422,1.5404358,0.064071655,-0.47868347,0.048446655
1628,A,1138398006211088,0.7351074,-7.657593,1.8130188,-0.18345642,-1.2324066,0.38049316
1628,A,1138398026352689,1.6641083,-7.7288513,1.8115997,-0.9607239,-0.5921631,0.35339355
1628,A,1138398046494291,2.560791,-7.8048096,1.9408722,-1.3076477,-0.98786926,0.15402222
1628,A,1138398066635893,2.8419952,-8.707993,2.0999908,-1.3164368,-1.6341248,0.13319397
1628,A,1138398086777494,2.8336945,-9.642319,3.4337616,-1.2191772,-1.5598907,0.33177185
1628,A,1138398106919096,3.0010834,-10.321365,4.367386,-0.8744049,-0.9392395,0.41456604
1628,A,1138398127060697,2.5746613,-10.851135,3.863556,-0.7307892,-0.3351593,0.50601196
1628,A,1138398147202299,2.2848663,-10.1008,3.4713287,-0.73905945,-0.11941528,0.6194153
1628,A,1138398167341577,2.964096,-8.789246,3.5888672,-0.5821228,-0.18722534,0.4996643
1628,A,1138398187483179,3.01474,-8.76355,4.2259216,-0.6166992,-0.20210266,0.0074768066
1628,A,1138398207624781,2.2088165,-11.364563,2.7265778,-0.1625061,-0.15351868,-0.66082764
1628,A,1138398227766382,1.2636261,-14.579193,-0.46899414,1.2102661,1.0161896,-1.0596619
1628,A,1138398247907984,-0.797287,-13.53186,-0.8073883,1.8557281,0.67126465,-0.5875702
1628,A,1138398268049585,-2.009964,-10.006012,0.88694763,2.0116882,0.0859375,-0.30697632
1628,A,1138398288191187,0.2935791,-7.7347565,0.437088,1.5921478,0.46658325,-0.06123352
1628,A,1138398308332788,2.304123,-6.904602,-0.88417053,0.99264526,1.0209198,-0.2077179
1628,A,1138398328474390,2.614441,-7.3821106,-1.72406,0.7293854,1.3944702,-0.089035034
1628,A,1138398348615991,2.4098816,-8.794739,-1.1372528,0.24549866,1.2555847,-0.03404236
1628,A,1138398368757593,0.38500977,-10.118561,-0.029037476,-0.46525574,0.526947,-0.023803711
1628,A,1138398388899195,0.35739136,-9.609756,0.11555481,-0.2905426,0.8110504,0.13014221
1628,A,1138398409040796,0.31375122,-9.344406,-0.3492279,0.43019104,0.664917,-0.17210388
1628,A,1138398429182398,0.15992737,-9.08139,-0.08808899,0.32522583,0.05607605,-0.12643433
1628,A,1138398449323999,0.48132324,-8.309616,0.6775818,-0.22221375,-0.88835144,0.26817322
1628,A,1138398469465601,1.5791016,-7.7770233,-0.5187988,-0.8217621,-0.5260315,0.32687378
1628,A,1138398489607202,2.0373688,-8.222839,-0.9452362,-1.2644806,-0.1230011,-0.05091858
1628,A,1138398509748804,1.0367126,-9.308655,0.3119812,-1.3961487,-0.5598297,0.026763916
1628,A,1138398529890406,0.36567688,-9.624634,-0.6361542,-1.5058136,-0.8508606,0.24067688
1628,A,1138398550032007,0.29379272,-9.639877,-0.838562,-1.1282654,-1.1638641,0.3040924
1628,A,1138398570173609,0.2536621,-9.625687,0.06298828,-0.6613617,-0.818161,0.41304016
1628,A,1138398590315210,0.7640991,-9.376358,-0.05256653,-0.6367798,-0.35154724,0.47114563
1628,A,1138398610456812,1.0690765,-8.876877,-0.3471985,-0.5040283,-0.42243958,0.4402008
1628,A,1138398630598413,1.0274048,-8.81514,0.06263733,-0.5296631,-0.39620972,0.005203247
1628,A,1138398650740015,0.88378906,-9.362961,0.4011383,-0.19174194,0.103775024,-0.70625305
1628,A,1138398670881616,0.96302795,-9.788239,0.09817505,1.1095276,1.1510162,-1.153244
1628,A,1138398691023218,1.0670929,-9.890717,0.07627869,1.9181061,0.39875793,-0.62384033
1628,A,1138398711164820,1.6917267,-9.662979,-0.4888916,2.0026855,-0.33111572,-0.4748993
1628,A,1138398731306421,1.8562164,-8.981186,-0.49409485,1.4322052,0.5556183,-0.11923218
1628,A,1138398751448023,1.7381287,-8.882248,-0.5676422,0.9446106,1.5092773,-0.14785767
1628,A,1138398771589624,2.1602936,-9.924286,-0.55882263,0.70014954,1.6139984,-0.020431519
1628,A,1138398791731226,3.301529,-9.716644,-0.008514404,0.15122986,1.2158661,0.0049743652
1628,A,1138398811872827,3.6351013,-9.813507,0.33277893,-0.3223877,0.7390442,-0.024459839
1628,A,1138398832014429,3.7264404,-9.974716,1.1536255,-0.33576965,0.7529907,0.05114746
1628,A,1138398852156031,4.6960297,-10.013519,1.9187927,0.38108826,0.38200378,-0.16508484
1628,A,1138398872297632,5.971222,-8.761673,0.40682983,0.49734497,0.15611267,-0.018661499
1628,A,1138398892439234,6.492859,-9.781906,-0.25317383,-0.10244751,-0.8199158,-0.00642395
1628,A,1138398912580835,4.8260193,-11.173065,-1.2726135,-0.45410156,-0.9517822,0.42642212
1628,A,1138398932722437,2.4139557,-10.132767,-1.3778076,-1.190033,-0.14161682,0.35551453
1628,A,1138398952864038,-0.6360626,-11.140793,-1.1886597,-1.3447571,-0.86746216,-0.026535034
1628,A,1138398973005640,-1.3231049,-14.681519,-2.5299225,-1.289505,-1.168457,-0.031295776
1628,A,1138398993147241,-0.016342163,-15.876572,-2.66362,-1.1355286,-1.0286102,0.02029419
1628,A,1138399013288843,0.13830566,-14.989548,-0.8080597,-0.7753601,-0.66389465,0.3209076
1628,A,1138399033430445,-0.15200806,-13.7799225,0.2775879,-0.6587219,-0.41285706,0.47535706
1628,A,1138399053572046,-0.2769928,-12.594162,0.58833313,-0.58639526,-0.4041748,0.60331726
1628,A,1138399073713648,0.56311035,-10.941498,0.7279968,-0.6223755,-0.1051178,0.31817627
1628,A,1138399093855249,2.174286,-9.324509,0.74287415,-0.61543274,-0.03869629,-0.22361755
1628,A,1138399113996851,2.3223572,-8.897232,1.1208496,0.12260437,0.37156677,-0.9450989
1628,A,1138399134138452,2.9086761,-8.599884,0.34176636,1.525528,1.1124878,-0.9238281
1628,A,1138399154280054,2.6767578,-8.074966,-0.18881226,2.0487213,0.3289795,-0.5456848
1628,A,1138399174421656,2.0404816,-6.665436,-0.95677185,1.9255066,0.14910889,-0.4493866
1628,A,1138399194563257,0.8865967,-5.602173,-0.11125183,1.394928,0.9056244,-0.13780212
1628,A,1138399214704859,-0.16592407,-5.3613434,0.3522339,0.9946594,1.2005615,-0.24333191
1628,A,1138399234846460,-0.31575012,-5.3246,-0.18379211,0.73709106,0.8274231,0.008758545
1628,A,1138399254988062,0.6983795,-5.430237,0.2822876,-0.0061950684,0.4104309,0.13421631
1628,A,1138399275129663,1.431488,-5.5303345,1.3849182,-0.5020294,0.21055603,0.22398376
1628,A,1138399295271265,1.8395386,-5.4094543,1.6113434,-0.33132935,0.64689636,0.28553772
1628,A,1138399315412866,2.3579865,-5.5555573,1.4560394,0.30308533,0.33709717,-0.17480469
1628,A,1138399335554468,1.9494934,-6.038849,1.9867096,0.332901,0.06402588,-0.05380249
1628,A,1138399355696070,0.7501068,-6.5605927,2.477768,-0.325531,-1.2142792,0.13793945
1628,A,1138399375837671,0.16693115,-7.067398,2.4443054,-0.6531677,-1.2671967,0.62210083
1628,A,1138399395979273,0.32121277,-8.148956,2.7198792,-1.25383,-0.52160645,0.5427246
1628,A,1138399416120874,0.66911316,-9.294525,2.9334106,-1.6899567,-0.87927246,0.32754517
1628,A,1138399436262476,0.6844635,-9.693024,3.3726196,-1.5865936,-0.7404022,0.3544464
1628,A,1138399456404077,-0.065078735,-9.225357,3.963791,-0.89704895,-1.0341797,0.17938232
1628,A,1138399476545679,-1.0503693,-8.308151,3.8730469,-0.5904541,-0.60491943,0.13589478
1628,A,1138399496687281,-1.5949097,-7.0591125,3.159195,-0.7494354,-0.31004333,0.08030701
1628,A,1138399516828882,-1.8241882,-7.0563507,3.4619904,-0.7097626,-0.36175537,0.29293823
1628,A,1138399536970484,-2.0543823,-10.926254,2.7954254,-0.5478821,-0.2966156,0.28956604
1628,A,1138399557112085,-2.404068,-16.326202,-1.6947784,-0.4922943,-0.19692993,-0.16177368
1628,A,1138399577253687,-2.8841095,-16.602448,-3.6265259,0.3312683,0.20831299,-0.719635
1628,A,1138399597395288,-3.072235,-13.509827,-7.1625214,1.5175476,1.0214233,-0.82862854
1628,A,1138399617536890,-3.8697662,-16.784805,-3.5995026,2.0613098,0.6688385,-0.31420898
1628,A,1138399637678491,2.4020233,-16.314606,-2.2794952,1.8259888,-0.029006958,-0.23590088
1628,A,1138399657820093,5.7498016,-10.804855,-2.4261017,1.3309326,0.34762573,-0.18379211
1628,A,1138399677961695,1.8213501,-9.198944,-0.22407532,0.91485596,1.0144043,-0.30241394
1628,A,1138399698103296,0.45358276,-10.12236,-0.7307434,0.6990204,1.1445923,0.008682251
1628,A,1138399718244898,-0.57247925,-11.486313,-0.74783325,-0.08529663,0.6285553,0.07550049
1628,A,1138399738386499,-0.102752686,-11.439682,-1.8405914,-0.5377197,0.3491211,0.13964844
1628,A,1138399758528101,0.58058167,-11.529953,-1.3661041,0.08232117,0.52731323,0.11177063
1628,A,1138399778669702,0.2552185,-11.166794,-0.9051056,0.3708496,0.23538208,-0.30778503
1628,A,1138399798811304,1.4126129,-9.219223,-1.6275482,0.43016052,0.119155884,-0.03656006
1628,A,1138399818952906,3.3125763,-7.332184,-0.8969269,-0.056365967,-0.51127625,0.2011261
1628,A,1138399839094507,3.7488098,-6.587448,0.5158844,-0.61857605,-0.49191284,0.252182
1628,A,1138399859236109,3.3043365,-7.0099792,1.1331787,-1.0845947,-0.30870056,0.2298584
1628,A,1138399879377710,3.315857,-7.7463074,1.2753601,-1.3522644,-1.5001068,-0.20687866
1628,A,1138399899519312,3.2438812,-7.6255646,1.1305542,-1.2587433,-1.3318939,0.17982483
1628,A,1138399919660913,3.3486328,-7.4962006,1.0453186,-0.93348694,-1.0510712,0.34571838
1628,A,1138399939802515,3.8124084,-8.290482,0.78222656,-0.7001343,-0.9562988,0.5002289
1628,A,1138399959944116,4.2914124,-8.816574,0.8221741,-0.6889496,-0.48532104,0.4844818
1628,A,1138399980085718,4.1829834,-8.90416,0.6457977,-0.6703491,-0.44111633,0.447464
1628,A,1138400000227320,2.830658,-8.743591,0.47187805,-0.5861664,0.07043457,0.07556152
1628,A,1138400020368921,3.3038483,-8.5243225,-0.5089874,-0.25228882,0.0811615,-0.4706421
1628,A,1138400040510523,4.3775787,-9.957977,-0.78041077,0.9767456,0.68218994,-1.0010071
1628,A,1138400060652124,4.1518097,-13.19429,-1.157135,1.831665,0.7488251,-0.5409241
1628,A,1138400080793726,1.4097748,-12.591202,-0.20452881,1.8180542,0.15750122,-0.32374573
1628,A,1138400100935327,-1.0798645,-13.437027,-0.043151855,1.5202332,0.36473083,-0.17704773
1628,A,1138400121076929,-1.3440704,-14.985657,-2.385788,0.9861603,1.0027618,-0.15127563
1628,A,1138400141218531,-1.2407837,-15.786438,-1.5449524,0.7886505,0.8878021,-0.056854248
1628,A,1138400161360132,-0.38911438,-16.461334,-0.26063538,0.34700012,0.7394409,0.07028198
1628,A,1138400181501734,0.92697144,-15.093552,0.24568176,-0.38087463,0.50213623,0.08570862
1628,A,1138400201643335,2.2155304,-12.385315,0.74227905,-0.4834137,0.5539551,0.12025452
1628,A,1138400221784937,1.7983856,-10.303848,0.63487244,0.28967285,0.5345917,-0.023468018
1628,A,1138400241926538,0.7701874,-9.070984,0.4610901,0.3340454,0.35838318,-0.2453003
1628,A,1138400262068140,0.18963623,-8.56778,-0.18304443,0.09399414,-0.18525696,-0.19364929
1628,A,1138400282209741,0.09854126,-7.3115845,-0.6187744,-0.18138123,-0.7559967,0.37548828
1628,A,1138400302351343,0.24679565,-5.365677,-1.537384,-0.7345276,-0.56741333,0.31002808
1628,A,1138400322492945,0.6526642,-3.6794586,-1.1338348,-1.1003418,-0.50764465,0.08888245
1628,A,1138400342634546,0.37550354,-4.0482025,-0.47677612,-1.2200775,-1.0896301,-0.13482666
1628,A,1138400362776148,0.4304657,-5.62117,0.024658203,-1.1793976,-1.105072,0.14944458
1628,A,1138400382917749,0.71066284,-6.812134,0.78009033,-0.96492004,-0.6751251,0.2753601
1628,A,1138400403059351,0.9461365,-7.364456,1.6441345,-0.87457275,-0.25927734,0.528244
1628,A,1138400423200952,1.4246521,-7.6356964,2.1706848,-0.6941223,-0.044815063,0.6076813
1628,A,1138400443342554,1.6412964,-7.621628,2.7226563,-0.7377167,0.06625366,0.49705505
1628,A,1138400463484156,0.90037537,-8.133759,2.859726,-0.6554413,0.25645447,-0.03968811
1628,A,1138400483625757,0.15026855,-9.76387,4.738388,-0.21099854,-0.27374268,-0.59181213
1628,A,1138400503767359,1.9951172,-12.0039215,5.424179,1.2255249,0.43359375,-1.051651
1628,A,1138400523908960,2.4864044,-12.59227,4.1312714,1.8453522,0.6938629,-0.59210205
1628,A,1138400544050562,2.3681946,-10.264786,4.0184326,1.9550018,0.092453,-0.51174927
1628,A,1138400564192163,2.3116455,-8.015793,5.2070007,1.5624542,0.4751587,-0.20393372
1628,A,1138400584333765,0.43530273,-11.737961,5.996048,0.99079895,1.1205292,0.09263611
1628,A,1138400604475366,2.0443115,-15.319061,0.53034973,0.62979126,0.82366943,0.12413025
1628,A,1138400624616968,-2.4414063,-14.321472,-0.062561035,0.121292114,0.5220947,0.18861389
1628,A,1138400644758570,-4.2252502,-9.380722,0.9133301,-0.5217743,0.23530579,0.20820618
1628,A,1138400664900171,-1.5056915,-8.298645,0.89834595,-0.3768158,0.23829651,0.23353577
1628,A,1138400685041773,0.17468262,-7.9165955,-1.068161,0.3221283,0.20742798,-0.08476257
1628,A,1138400705183374,0.47756958,-7.2549744,-1.5979004,0.45072937,0.25125122,-0.22999573
1628,A,1138400725324976,1.8792877,-7.7829437,-3.1916504,0.06971741,-0.3199768,-0.26287842
1628,A,1138400745466577,1.8962402,-9.837158,-0.49996948,-0.32255554,-0.855072,0.412323
1628,A,1138400765608179,0.8072357,-10.389679,0.6574402,-0.7189636,-0.6781006,0.63230896
1628,A,1138400785749781,1.2601471,-9.375717,0.3228302,-1.2427673,-0.69262695,0.31425476
1628,A,1138400805891382,-0.12045288,-8.844559,0.19935608,-1.3137207,-1.2025757,0.16371155
1628,A,1138400826032984,-0.5924835,-7.6211243,-0.092453,-1.5185089,-0.97624207,0.2888794
1628,A,1138400846174585,0.25027466,-7.592987,-0.25471497,-0.9782562,-0.53904724,0.34892273
1628,A,1138400866316187,1.751236,-8.737808,-0.13612366,-0.58078,-0.10418701,0.27555847
1628,A,1138400886457788,1.9558716,-9.457886,1.1605072,-0.68182373,0.14648438,0.20932007
1628,A,1138400906599390,1.8808289,-9.344208,0.5894928,-0.80322266,0.07936096,0.3226471
1628,A,1138400926740991,2.1933289,-8.788345,0.048797607,-0.70028687,-0.059524536,0.18763733
1628,A,1138400946882593,2.2479858,-8.801712,0.27807617,-0.5919647,0.0030212402,-0.2759552
1628,A,1138400967024195,1.8524017,-8.927628,0.15231323,0.4325409,0.76652527,-0.83766174
1628,A,1138400987165796,1.2297363,-9.111389,0.35830688,1.7420502,0.9421692,-0.6157074
1628,A,1138401007307398,1.1243744,-9.213196,0.71795654,2.1371613,0.2724762,-0.34127808
1628,A,1138401027448999,1.3035126,-8.972229,0.37652588,1.8757782,-0.110183716,-0.29338074
1628,A,1138401047590601,1.2250671,-8.946747,-0.3287506,1.4191895,0.3178711,-0.14642334
1628,A,1138401067732202,1.6633606,-9.482666,-0.4880066,0.9494324,0.93785095,-0.04284668
1628,A,1138401087873804,2.2125854,-10.252014,-0.42507935,0.5214081,0.72032166,0.15985107
1628,A,1138401108015406,2.9131622,-10.272202,-0.74897766,-0.17582703,0.3684082,0.19734192
1628,A,1138401128157007,3.2768707,-9.851395,-0.72332764,-0.5445099,0.32052612,0.12107849
1628,A,1138401148298609,3.369049,-9.699219,-0.90686035,0.15797424,0.6586914,0.06265259
1628,A,1138401168440210,4.1615143,-10.759811,-1.4515381,0.53733826,0.2710724,-0.22218323
1628,A,1138401188581812,4.460312,-12.6792145,-1.1876984,0.42495728,-0.038528442,-0.20153809
1628,A,1138401208723413,3.8567963,-13.340576,-0.6798096,-0.33506775,-1.309433,0.1681366
1628,A,1138401228865015,2.3121948,-12.761047,-0.5116577,-0.5391693,-0.85990906,0.5760498
1628,A,1138401249006616,0.58639526,-10.893845,-1.1151428,-1.1446686,-0.6650696,0.3136444
1628,A,1138401269148218,-1.2177582,-9.719955,-1.1111603,-1.2995453,-1.0977783,0.11154175
1628,A,1138401289289820,-2.1644592,-11.491898,-0.076934814,-1.1786804,-1.2916412,0.40281677
1628,A,1138401309431421,-1.2029114,-13.309723,-0.7264404,-1.1364899,-1.2188721,0.3239746
1628,A,1138401329573023,-0.39398193,-13.027603,-0.69955444,-0.74134827,-0.79325867,0.40319824
1628,A,1138401349714624,0.23912048,-12.056641,-0.64823914,-0.80000305,-0.31549072,0.48796082
1628,A,1138401369856226,0.66841125,-11.091812,-0.7992859,-0.7575073,-0.42382813,0.47480774
1628,A,1138401389997827,0.6815033,-10.779343,-0.18031311,-0.6730957,-0.21980286,0.21116638
1628,A,1138401410139429,1.1456451,-10.014542,-0.10220337,-0.35258484,-0.16889954,-0.21911621
1628,A,1138401430281031,1.9381104,-8.652664,-0.14646912,0.5383606,0.65223694,-0.9246521
1628,A,1138401450422632,1.8407898,-7.4509735,0.052078247,1.6863556,1.3276672,-0.9463043
1628,A,1138401470564234,0.61187744,-6.7289734,0.2848053,2.026474,0.55081177,-0.37609863
1628,A,1138401490705835,-0.45314026,-6.5007477,-0.15206909,1.7690582,0.09439087,-0.30088806
1628,A,1138401510847437,-0.55029297,-7.0746765,-0.50115967,1.3257141,0.89346313,-0.19041443
1628,A,1138401530989038,-0.10171509,-7.7704773,-0.2093811,0.7618561,1.3677673,-0.3214264
1628,A,1138401551130640,0.185318,-7.902466,0.20837402,0.4540863,1.1871796,0.058792114
1628,A,1138401571272241,0.2955475,-7.0442963,0.56977844,-0.14926147,0.85975647,0.074295044
1628,A,1138401591413843,0.4441681,-6.047058,0.7604065,-0.5278473,0.9555969,0.1219635
1628,A,1138401611555445,0.63568115,-5.7585907,0.78915405,0.22181702,1.0353699,0.002090454
1628,A,1138401631697046,0.3587494,-6.371628,1.7575531,0.6943512,0.51597595,-0.22007751
1628,A,1138401651838648,0.034088135,-7.711502,3.0868988,-0.017456055,-0.32437134,-0.36895752
1628,A,1138401671980249,0.32159424,-9.394424,5.1080475,-0.3869171,-0.9136658,0.46116638
1628,A,1138401692121851,1.7594757,-11.333389,5.490814,-0.9222107,-0.31600952,0.31463623
1628,A,1138401712263452,2.4785156,-12.638733,4.294052,-1.0769501,-0.41194153,0.09609985
1628,A,1138401732405054,1.8001862,-11.996399,4.172058,-1.280716,-0.6973877,-0.050704956
1628,A,1138401752546656,1.5685425,-9.284012,4.617874,-1.2830963,-0.49778748,0.105148315
1628,A,1138401772688257,1.5488129,-10.17598,5.4621124,-1.1799774,-0.37365723,0.28648376
1628,A,1138401792829859,2.2863617,-13.294662,2.0627441,-0.8334961,-0.37680054,0.34179688
1628,A,1138401812971460,-1.3019867,-13.8055725,0.6179199,-0.70988464,-0.46591187,0.47636414
1628,A,1138401833113062,-4.3367157,-11.547302,0.58673096,-0.60787964,-0.23994446,0.35151672
1628,A,1138401853254663,-2.217331,-9.384369,0.5718689,-0.59710693,-0.02720642,-0.113601685
1628,A,1138401873396265,0.49900818,-8.410309,-0.14732361,-0.048980713,0.1555481,-0.75935364
1628,A,1138401893537866,1.0733185,-7.7783356,-1.203064,1.3648987,0.82458496,-0.9999695
1628,A,1138401913679468,0.48472595,-7.1132507,-1.7349548,1.9101563,0.34202576,-0.5007782
1628,A,1138401933821070,0.92163086,-8.188065,-1.2821655,1.7928009,-0.19346619,-0.5097809
1628,A,1138401953962671,0.937912,-10.241364,-0.25738525,1.3371735,0.526886,-0.16029358
1628,A,1138401974104273,0.41600037,-10.567581,0.23007202,0.8836975,1.1856079,-0.066467285
1628,A,1138401994245874,0.3045349,-9.273697,-0.37390137,0.56126404,0.6819763,0.008621216
1628,A,1138402014387476,0.18617249,-8.261459,-0.7672577,-0.13871765,0.31375122,0.22831726
1628,A,1138402034529077,-0.24079895,-8.008194,-0.040420532,-0.62805176,0.29309082,0.27748108
1628,A,1138402054670679,0.8800049,-8.423019,-0.6010437,-0.18840027,0.686615,0.2088623
1628,A,1138402074812281,1.4482422,-9.166946,-0.2093811,0.45463562,0.21591187,-0.11291504
1628,A,1138402094953882,1.0392914,-9.441864,0.14228821,0.5827179,0.18041992,-0.10546875
1628,A,1138402115095484,0.7802124,-9.292053,-0.0140686035,-0.2425232,-0.93481445,0.08917236
1628,A,1138402135237085,1.2437439,-9.039017,-0.68748474,-0.4594574,-1.3927917,0.5789032
1628,A,1138402155378687,1.6751709,-9.082016,0.027328491,-1.0023956,-0.80078125,0.32580566
1628,A,1138402175520288,1.5942383,-9.451843,0.54078674,-1.171524,-1.0110474,0.19844055
1628,A,1138402195661890,1.1909943,-9.31665,0.46853638,-1.1197357,-1.0081635,0.14823914
1628,A,1138402215803491,0.6153717,-9.330338,0.89053345,-1.0792542,-1.0472107,0.1493988
1628,A,1138402235945093,1.2675934,-9.036957,0.7057648,-0.84469604,-0.83473206,0.34516907
1628,A,1138402256086695,2.582779,-9.119217,0.41203308,-0.8552551,-0.49249268,0.6016846
1628,A,1138402276228296,3.3059845,-9.896057,0.4426117,-0.844162,-0.1976471,0.6742401
1628,A,1138402296369898,2.9917603,-10.295105,0.27946472,-0.8652649,0.3694458,0.40405273
1628,A,1138402316511499,1.8983307,-10.027298,0.26481628,-0.56181335,0.112854004,-0.113464355
1628,A,1138402336653101,0.78686523,-9.953888,0.045715332,0.42918396,0.2967987,-0.89530945
1628,A,1138402356794702,1.6345673,-9.869766,-0.7093048,1.9599915,1.0375214,-0.8681183
1628,A,1138402376936304,3.8503113,-11.446838,-1.2140961,2.0200653,0.022766113,-0.5035553
1628,A,1138402397077906,4.0809174,-13.197037,-1.9992523,1.8826294,0.41700745,-0.2722473
1628,A,1138402417219507,3.811325,-12.615082,-1.2358246,1.4236908,1.2265625,-0.11231995
1628,A,1138402437361109,1.4382172,-10.303238,-1.8570099,0.76319885,1.7020569,-0.17633057
1628,A,1138402457502710,-1.7236176,-11.04245,-0.964447,0.21331787,1.1877747,0.04548645
1628,A,1138402477644312,-2.3184967,-14.344788,-1.2666931,-0.44708252,0.7169037,0.020019531
1628,A,1138402497785913,-0.6746216,-14.257324,-1.9576569,-0.43695068,0.6699829,0.11201477
1628,A,1138402517927515,0.05090332,-13.332962,-0.35934448,0.5191498,0.70732117,-0.14857483
1628,A,1138402538069116,1.1605835,-11.644348,-0.21568298,0.657135,0.5084686,-0.30142212
1628,A,1138402558210718,2.091507,-10.637344,0.9597626,0.36880493,-0.22102356,-0.110076904
1628,A,1138402578352320,2.0904388,-9.869019,0.3811798,-0.062179565,-0.4290161,0.28181458
1628,A,1138402598493921,1.4432526,-8.922745,-0.415802,-1.0568695,-0.13755798,0.11994934
1628,A,1138402618635523,0.83444214,-8.170486,-0.5150757,-1.6401978,-1.0776978,-0.14663696
1628,A,1138402638777124,0.31608582,-7.1822815,-0.6813202,-1.6297607,-1.598114,0.16595459
1628,A,1138402658918726,-0.37528992,-5.980591,-0.66070557,-1.3205109,-1.7445984,0.3894043
1628,A,1138402679060327,-0.37960815,-5.811386,-0.5398865,-0.958374,-1.3390961,0.37294006
1628,A,1138402699201929,-0.43954468,-6.5691223,-0.14363098,-0.5562134,-0.9182434,0.4361725
1628,A,1138402719343531,-0.14796448,-7.3025055,-0.024505615,-0.6615448,-0.5411072,0.5195465
1628,A,1138402739485132,0.41574097,-7.4234924,0.5830078,-0.5400238,-0.14151001,0.3028412
1628,A,1138402759626734,0.9042816,-6.857712,1.2430115,-0.5190735,-0.15557861,-0.21382141
1628,A,1138402779768335,1.1914215,-6.4042053,1.7107239,0.35073853,0.31835938,-0.98483276
1628,A,1138402799909937,1.2414246,-6.676422,2.2532806,1.487854,1.207367,-0.8355255
1628,A,1138402820051538,1.2045898,-7.4836273,3.1238556,2.0802765,0.31399536,-0.38102722
1628,A,1138402840193140,1.3879242,-9.153351,4.49794,1.764389,0.14395142,-0.20454407
1628,A,1138402860334741,2.1791534,-11.458282,5.6194305,1.2466888,0.8159027,-0.027038574
1628,A,1138402880476343,3.0291595,-12.954269,4.8092194,0.7621002,1.584732,-0.15338135
1628,A,1138402900617945,2.1320648,-12.12973,4.4738464,0.42056274,1.6078796,0.081329346
1628,A,1138402920759546,1.5803986,-9.230591,5.4502563,-0.20704651,0.8049774,-0.01637268
1628,A,1138402940901148,1.4572601,-9.637711,6.399109,-0.47486877,0.50608826,-0.060775757
1628,A,1138402961042749,2.163208,-13.973709,3.5100098,0.31420898,0.7289734,-0.042526245
1628,A,1138402981184351,1.1321411,-14.264938,-0.39260864,0.49591064,0.43722534,-0.32125854
1628,A,1138403001325952,-2.9429932,-10.101196,0.3173523,0.3083954,-0.14053345,-0.22895813
1628,A,1138403021467554,-2.5272522,-7.222397,0.56373596,-0.18415833,-0.6226196,0.27104187
1628,A,1138403041609156,0.1758728,-6.742264,0.42329407,-0.6999359,-0.8080292,0.42092896
1628,A,1138403061750757,1.6877594,-7.2638855,-0.85498047,-1.3070679,-0.65431213,0.17774963
1628,A,1138403081892359,2.5397644,-8.553986,-2.6015625,-1.4054718,-0.9886017,-0.10823059
1628,A,1138403102033960,1.6637573,-9.882462,-1.4686584,-1.3625336,-0.9424286,0.18991089
1628,A,1138403122175562,0.2890625,-10.428284,0.32411194,-1.0444183,-0.6688843,0.27590942
1628,A,1138403142317163,0.11973572,-10.102127,0.40647888,-0.77578735,-0.49263,0.49720764
1628,A,1138403162458765,-0.48466492,-9.749725,-0.14323425,-0.81292725,-0.2710266,0.60743713
1628,A,1138403182600366,-0.79808044,-8.7235565,-0.3031006,-0.7794342,-0.022888184,0.5703125
1628,A,1138403202741968,-0.46347046,-7.8585205,-0.10920715,-0.7258606,0.17459106,0.083847046
1628,A,1138403222883570,0.5068512,-8.143158,-0.2390747,-0.3921051,0.023513794,-0.69680786
1628,A,1138403243025171,1.6523743,-8.737335,-0.316391,1.0428009,0.61816406,-1.122406
1628,A,1138403263166773,1.9007416,-9.051804,0.27619934,2.0681915,0.6598053,-0.5228729
1628,A,1138403283308374,1.0497437,-8.845779,0.11299133,2.115921,0.040267944,-0.38334656
1628,A,1138403303449976,0.4438324,-8.839859,-0.54922485,1.7039948,0.27357483,-0.124313354
1628,A,1138403323591577,0.49674988,-9.076706,-0.23323059,1.1574402,0.75790405,-0.20158386
1628,A,1138403343733179,0.5351715,-8.939468,0.35523987,0.83303833,0.99783325,-3.9672852E-4
1628,A,1138403363874781,-0.14555359,-9.307602,0.5742798,0.020004272,0.8544922,0.182724
1628,A,1138403384016382,-0.31976318,-10.204468,0.88697815,-0.62483215,0.617218,0.19078064
1628,A,1138403404157984,0.15124512,-9.52269,0.12249756,-0.14466858,0.8748779,0.12310791
1628,A,1138403424299585,1.137085,-8.694962,-0.7171173,0.5655365,0.22207642,-0.23217773
1628,A,1138403444441187,2.8142395,-9.341171,-0.667572,0.5858154,0.00642395,-0.04069519
1628,A,1138403464582788,2.7365417,-10.294067,-0.49752808,-0.023803711,-0.8168793,0.23825073
1628,A,1138403484724390,1.7213593,-10.520508,-0.24624634,-0.61694336,-0.9433594,0.38853455
1628,A,1138403504865991,1.2719269,-10.699539,0.022018433,-1.2413788,-0.14411926,0.16018677
1628,A,1138403525007593,1.2804565,-10.768005,0.5701294,-1.3817902,-1.2110596,0.081451416
1628,A,1138403545149195,3.6836243,-11.1635895,-0.85894775,-1.4163666,-1.1969604,0.13278198
1628,A,1138403565290796,4.122238,-12.841522,-0.057540894,-1.1381989,-0.91218567,0.20956421
1628,A,1138403585432398,4.3777313,-11.610138,-1.2169495,-0.72772217,-0.576416,0.38645935
1628,A,1138403605573999,2.8474274,-10.547272,-0.26312256,-0.7403259,-0.39112854,0.5551605
1628,A,1138403625715601,0.52545166,-9.250656,-1.128067,-0.83480835,-0.16427612,0.54792786
1628,A,1138403645857202,-1.4502411,-10.619568,-0.43307495,-0.6530762,0.2511902,0.101242065
1628,A,1138403665998804,-0.7680359,-14.376144,-1.8484497,-0.29031372,0.104156494,-0.6105194
1628,A,1138403686140406,-0.0071868896,-13.734055,-1.2446289,1.0780182,0.74850464,-1.2190399
1628,A,1138403706282007,0.41345215,-13.260681,0.90802,1.8400269,0.8143463,-0.61491394
1628,A,1138403726423609,1.2642059,-11.879883,-0.35336304,2.0829315,0.40629578,-0.5150299
1628,A,1138403746565210,1.1756439,-10.887848,-0.018081665,1.6054688,0.38276672,-0.16122437
1628,A,1138403766706812,1.0265045,-10.271576,-0.38807678,1.0418701,0.9621124,-0.038772583
1628,A,1138403786848413,0.94818115,-10.014069,-0.012649536,0.6756897,1.0820923,0.07635498
1628,A,1138403806990015,1.3563385,-9.483429,0.07594299,-0.052947998,0.9525757,0.23365784
1628,A,1138403827131616,1.0784454,-8.372116,-0.6959839,-0.66400146,0.6264496,0.20957947
1628,A,1138403847273218,0.21362305,-6.6761017,-0.6935425,-0.14944458,0.7094879,0.11392212
1628,A,1138403867414820,-0.26776123,-5.938568,-0.89549255,0.52127075,0.18026733,-0.18083191
1628,A,1138403887556421,-0.7524414,-5.7012177,-0.84768677,0.65089417,0.20205688,-0.097229004
1628,A,1138403907698023,-0.89907837,-5.9253845,-0.45141602,-0.12309265,-0.5432739,-0.025131226
1628,A,1138403927839624,-0.353302,-6.363144,0.19644165,-0.48214722,-0.49987793,0.3821106
1628,A,1138403947981226,0.89971924,-6.339691,0.83950806,-1.1421509,0.26689148,0.18147278
1628,A,1138403968122827,1.8613281,-6.143036,1.1876678,-1.3717651,-0.8531952,0.015350342
1628,A,1138403988264429,1.7209625,-6.331543,1.7242126,-1.3821564,-1.2068787,0.08413696
1628,A,1138404008406031,1.1415405,-7.369217,2.6858368,-1.4149017,-0.8326416,0.21051025
1628,A,1138404028547632,0.96247864,-9.275711,3.8948517,-1.059555,-0.56018066,0.46192932
1628,A,1138404048689234,1.5638733,-11.866989,6.1354523,-0.6131897,-0.50408936,0.43989563
1628,A,1138404068830835,3.1276093,-13.141739,5.799164,-0.6058502,-0.3981781,0.41311646
1628,A,1138404088972437,2.096939,-11.881058,4.677597,-0.61738586,-0.08769226,0.1293335
1628,A,1138404109114038,0.8855591,-9.829178,5.0816956,-0.40873718,-0.13143921,-0.30717468
1628,A,1138404129255640,1.0773621,-9.853973,5.959839,0.58699036,0.29318237,-1.0591278
1628,A,1138404149397241,0.28599548,-14.722565,3.4966125,1.8654633,0.929718,-0.9591217
1628,A,1138404169538843,0.054138184,-15.448196,-0.47499084,1.9434967,0.1771698,-0.43170166
1628,A,1138404189680445,-4.5216675,-10.65184,-1.1534729,1.7791901,-0.008300781,-0.41166687
1628,A,1138404209822046,-4.670166,-7.2191772,0.32936096,1.2326355,0.8968048,-0.1331482
1628,A,1138404229963648,-0.9225311,-6.626816,-0.25894165,0.7779846,1.343277,-0.13386536
1628,A,1138404250105249,0.72698975,-7.133011,-1.8223267,0.31826782,1.1192322,0.24182129
1628,A,1138404270246851,1.8289337,-8.4752655,-2.1702576,-0.43574524,0.8437195,0.22467041
1628,A,1138404290388452,2.4906158,-9.879395,-0.78318787,-0.4794159,0.60232544,0.13085938
1628,A,1138404310530054,1.4880219,-10.820938,0.9910736,0.3630066,0.67881775,-0.060272217
1628,A,1138404330671656,1.2422485,-10.05719,0.7904053,0.42166138,0.41526794,-0.21160889
1628,A,1138404350813257,1.1897125,-9.055206,0.633255,0.49015808,0.14111328,-0.047424316
1628,A,1138404370954859,0.3464203,-8.0142975,0.45645142,-0.31851196,-0.9444885,0.24160767
1628,A,1138404391096460,0.68678284,-7.172455,0.23130798,-0.64527893,-1.026886,0.3859253
1628,A,1138404411238062,1.1402435,-7.919235,0.17437744,-1.1802826,-0.6929779,0.30273438
1628,A,1138404431379663,1.4154205,-8.96019,0.22473145,-1.4048767,-1.3033447,-0.10379028
1628,A,1138404451521265,0.86938477,-9.320343,0.5128479,-1.2345428,-1.3324432,0.13259888
1628,A,1138404471662866,0.8458252,-9.011749,0.09083557,-1.137085,-0.93788147,0.14674377
1628,A,1138404491804468,1.5256195,-8.678314,0.14118958,-0.79862976,-0.47764587,0.40396118
1628,A,1138404511946070,1.9812927,-8.811752,0.5483093,-0.69551086,-0.38945007,0.5509033
1628,A,1138404532087671,1.9020996,-8.792709,0.6038513,-0.83348083,-0.09056091,0.64538574
1628,A,1138404552229273,1.3194275,-8.707153,0.59991455,-0.7119446,0.4684906,0.25152588
1628,A,1138404572370874,1.1188202,-9.086945,0.60850525,-0.37239075,0.086746216,-0.42401123
1628,A,1138404592512476,1.1288757,-9.546478,0.25299072,0.91989136,0.7926178,-1.1306915
1628,A,1138404612654077,1.7478638,-9.547745,-0.6944275,2.014389,0.65431213,-0.62171936
1628,A,1138404632795679,2.990509,-9.596924,-0.87908936,1.9070435,-0.0823822,-0.4227295
1628,A,1138404652937281,3.6066437,-9.937988,-0.77082825,1.6545563,0.43470764,-0.2952423
1628,A,1138404673078882,3.0005493,-10.122299,-0.64308167,1.0855255,1.4228058,-0.17164612
1628,A,1138404693220484,2.1927338,-10.372269,-0.062423706,0.7757416,1.4842834,-0.103271484
1628,A,1138404713362085,3.1993408,-10.3276825,-0.47505188,0.18164063,1.1001587,0.09965515
1628,A,1138404733503687,3.609497,-12.128143,-0.4697876,-0.49072266,0.62138367,0.0677948
1628,A,1138404753645288,3.182541,-13.01889,-0.516037,-0.28918457,0.70285034,0.11328125
1628,A,1138404773786890,2.7821198,-12.207306,-0.26045227,0.5357666,0.43777466,-0.13226318
1628,A,1138404793928491,1.3790283,-10.227402,-0.98287964,0.4094391,0.1877594,-0.15351868
1628,A,1138404814070093,-1.0616455,-10.1119995,-0.8065491,0.16740417,-0.21456909,0.02482605
1628,A,1138404834211695,-1.9876099,-13.610535,-1.2688141,-0.32032776,-0.7820282,0.43870544
1628,A,1138404854353296,-1.5440063,-14.858154,-1.433197,-1.082077,-0.43952942,0.36177063
1628,A,1138404874494898,-0.8532715,-13.982574,-0.3774109,-1.3855438,-0.89779663,0.22499084
1628,A,1138404894636499,-0.29599,-12.317871,-0.39027405,-1.5091705,-1.5097046,0.10722351
1628,A,1138404914778101,0.023773193,-11.08165,-0.22311401,-1.3808136,-1.2505646,0.17086792
1628,A,1138404934919702,0.050476074,-10.190369,-0.20869446,-0.80451965,-0.78186035,0.23002625
1628,A,1138404955061304,0.312912,-9.455902,-0.25196838,-0.6227417,-0.36143494,0.30244446
1628,A,1138404975202906,0.6121216,-8.799545,0.044174194,-0.82029724,-0.17181396,0.43049622
1628,A,1138404995344507,0.89045715,-7.866333,0.0015869141,-0.75549316,-0.015701294,0.45300293
1628,A,1138405015486109,0.84602356,-6.558548,-0.1708374,-0.5101471,-0.13978577,-0.04246521
1628,A,1138405035627710,0.49586487,-6.140976,-0.14129639,0.14450073,-0.023117065,-0.73509216
1628,A,1138405055769312,-0.14151001,-6.4001465,0.35427856,1.5159302,0.98172,-1.1087494
1628,A,1138405075910913,-0.5219879,-6.77652,0.3742218,2.0553741,0.620697,-0.57754517
1628,A,1138405096052515,-0.33102417,-6.4980164,0.33927917,1.9093628,0.1306305,-0.44110107
1628,A,1138405116194116,0.65649414,-5.7216187,1.002121,1.4284058,0.70747375,-0.12313843
1628,A,1138405136335718,1.5352936,-5.518326,1.5377045,0.9825897,1.2591095,-0.11300659
1628,A,1138405156477320,1.5510864,-5.924881,2.3917694,0.6968689,1.0556641,0.035476685
1628,A,1138405176618921,0.6346588,-7.359207,3.6284027,-0.04548645,0.8493347,0.18745422
1628,A,1138405196760523,0.27345276,-9.456726,5.214432,-0.486557,0.57592773,0.18441772
1628,A,1138405216902124,1.9264832,-11.730698,5.36586,-0.050079346,0.8737335,0.13407898
1628,A,1138405237043726,2.5258484,-12.447189,4.7151337,0.44822693,0.4651184,-0.1352539
1628,A,1138405257185327,1.0826416,-12.11615,4.364044,0.58428955,0.4289856,-0.058624268
1628,A,1138405277326929,0.060821533,-10.306839,4.5969696,-0.2740631,-0.48210144,0.018844604
1628,A,1138405297468531,2.034134,-8.226318,5.9276276,-0.5903015,-0.38890076,0.54919434
1628,A,1138405317610132,0.5212555,-12.828064,3.9102478,-1.2153015,0.034469604,0.24971008
1628,A,1138405337751734,0.5314789,-15.3403015,0.33514404,-1.3957062,-0.7061157,0.03578186
1628,A,1138405357893335,-4.278305,-12.082901,0.49697876,-1.456604,-0.7887726,0.046676636
1628,A,1138405378034937,-4.4577484,-8.72229,0.317688,-1.2479095,-0.60647583,0.07215881
1628,A,1138405398176538,-0.9864197,-7.9281464,-0.14131165,-0.888855,-0.39872742,0.36549377
1628,A,1138405418318140,0.9275818,-7.7531433,-0.35214233,-0.8796387,-0.2013855,0.52027893
1628,A,1138405438459741,1.3563995,-7.908966,-1.8160553,-0.7619324,-0.28437805,0.5400238
1628,A,1138405458601343,2.058197,-8.311996,-3.0125885,-0.5605011,-0.043395996,0.1637268
1628,A,1138405478742945,0.7659607,-9.69548,-0.64427185,-0.3751831,0.03804016,-0.40093994
1628,A,1138405498884546,-0.65586853,-10.04985,0.76831055,0.7322235,0.86538696,-1.0850525
1628,A,1138405519026148,0.24342346,-9.675812,-0.05455017,1.9038086,0.97052,-0.6664734
1628,A,1138405539167749,-0.29725647,-9.040024,-0.316391,1.9338379,0.35153198,-0.50572205
1628,A,1138405559309351,-0.4745636,-7.937866,0.08119202,1.6700134,0.33520508,-0.3774414
1628,A,1138405579450952,0.5782623,-7.9911194,-0.21987915,1.2009583,1.2763519,-0.33976746
1628,A,1138405599592554,1.9331512,-8.812119,-0.3171692,0.9993744,1.5839996,-0.39318848
1628,A,1138405619734156,2.0468903,-9.230087,0.53131104,0.5325165,1.1862488,-0.046417236
1628,A,1138405639875757,1.1824341,-9.242752,0.8371124,-0.22566223,0.7059784,0.049621582
1628,A,1138405660017359,1.3581238,-9.036575,0.21594238,-0.38850403,0.7798767,0.09938049
1628,A,1138405680158960,1.4514008,-8.955994,0.21929932,0.3082428,0.89604187,-0.010223389
1628,A,1138405700300562,1.4945679,-9.139313,0.5357666,0.23432922,0.43408203,-0.16462708
1628,A,1138405720442163,1.4299622,-9.209183,0.42304993,0.029754639,-0.092666626,0.025390625
1628,A,1138405740583765,0.97543335,-9.385635,0.6699524,-0.3421173,-0.9926758,0.37657166
1628,A,1138405760725366,0.80171204,-9.751083,1.1595764,-0.9433594,-0.5804901,0.45903015
1628,A,1138405780866968,1.6213837,-9.431046,0.74450684,-1.35466,-0.5825958,0.28553772
1628,A,1138405801008570,2.313095,-9.213715,0.06614685,-1.442215,-0.9005127,0.020858765
1628,A,1138405821150171,3.3936768,-9.098099,-0.5263519,-1.2922363,-0.793869,0.10447693
1628,A,1138405841291773,2.7093048,-9.507599,-0.22257996,-0.9356537,-0.578537,0.1716156
1628,A,1138405861433374,1.3382721,-9.521042,-0.57847595,-0.868927,-0.17544556,0.45715332
1628,A,1138405881574976,0.41844177,-10.071136,-0.43162537,-0.8947296,-0.1435852,0.56629944
1628,A,1138405901716577,0.8993683,-10.3493805,-0.66334534,-0.7198334,-0.06918335,0.3668518
1628,A,1138405921858179,2.8388977,-11.358002,-1.4680176,-0.4814148,0.07939148,-0.18457031
1628,A,1138405941999781,3.8264008,-13.445206,-1.0184326,0.3617401,0.54551697,-0.9263611
1628,A,1138405962141382,4.071686,-12.040817,-1.2042542,1.7899475,1.3067474,-0.92871094
1628,A,1138405982282984,1.2055817,-10.536911,-0.6750641,2.0623932,0.5796051,-0.388443
1628,A,1138406002424585,-1.7376099,-11.593002,-0.95518494,1.7935791,0.25076294,-0.34033203
1628,A,1138406022566187,-2.3206177,-14.671692,-1.6072388,1.3103333,1.1950226,-0.19293213
1628,A,1138406042707788,-1.250946,-14.33725,-2.1407318,0.88926697,1.8977051,-0.35856628
1628,A,1138406062849390,-0.8874054,-13.045578,-0.5369568,0.60668945,1.5168915,-0.12931824
1628,A,1138406082990991,0.049041748,-12.200516,-0.09411621,-0.23060608,0.97839355,0.010818481
1628,A,1138406103132593,0.7644348,-11.229858,0.022537231,-0.43022156,0.9824066,0.10269165
1628,A,1138406123274195,0.6639862,-10.150543,-0.10887146,0.42945862,0.89186096,-0.04650879
1628,A,1138406143415796,0.17050171,-9.226639,-0.056030273,0.38052368,0.15730286,-0.19828796
1628,A,1138406163557398,0.54833984,-8.505768,-0.07594299,0.19493103,-0.24032593,-0.08203125
1628,A,1138406183698999,0.74586487,-7.4983215,-0.09402466,-0.4365692,-0.8583069,0.3295288
1628,A,1138406203840601,0.77571106,-6.059494,-0.36439514,-1.0498352,-0.53523254,0.45285034
1628,A,1138406223982202,0.6703644,-5.460724,-0.33564758,-1.3260803,-0.6319885,0.28660583
1628,A,1138406244123804,0.07923889,-6.015106,-0.22702026,-1.6307983,-1.4309692,-0.055358887
1628,A,1138406264265406,-0.3930359,-6.6909027,-0.13835144,-1.4532776,-1.0978851,0.05784607
1628,A,1138406284407007,-0.25917053,-6.7201843,0.56199646,-0.885849,-0.7363281,0.16571045
1628,A,1138406304548609,0.5037842,-6.3931885,1.2667542,-0.8329773,-0.39172363,0.36669922
1628,A,1138406324690210,1.0123749,-6.4465027,1.902832,-0.76838684,-0.51452637,0.41253662
1628,A,1138406344831812,0.5603485,-6.6823883,3.1768036,-0.6151123,-0.5003662,0.25746155
1628,A,1138406364973413,0.021453857,-7.9440613,3.9416504,-0.47361755,-0.089416504,-0.18383789
1628,A,1138406385115015,0.045715332,-10.263763,4.931381,0.35861206,0.6435547,-1.0006561
1628,A,1138406405256616,1.698822,-12.007431,5.268265,1.6605988,0.83425903,-0.8751526
1628,A,1138406425398218,2.5042725,-12.542358,4.668396,1.9971161,0.35562134,-0.48114014
1628,A,1138406445539820,1.3730469,-11.4578705,5.0303345,1.8013916,0.016998291,-0.43992615
1628,A,1138406465681421,1.2988434,-8.395523,5.5603333,1.2954712,0.71562195,-0.14549255
1628,A,1138406485823023,1.3088684,-7.7141724,5.858841,0.92567444,1.095108,-0.062561035
1628,A,1138406505964624,0.37809753,-12.7808075,1.1876678,0.5109253,0.77246094,0.20370483
1628,A,1138406526106226,-3.0022583,-15.6622925,-0.67048645,-0.24250793,0.28912354,0.28138733
1628,A,1138406546247827,-5.1595306,-12.530197,0.71650696,-0.48510742,0.45124817,0.38171387
1628,A,1138406566389429,-1.9030762,-8.920914,-0.35134888,0.16181946,0.5292053,0.10079956
1628,A,1138406586531031,0.6374054,-8.228134,-0.6425171,0.62205505,0.118377686,-0.09616089
1628,A,1138406606672632,1.4910126,-7.865341,-1.6056519,0.46931458,-0.03933716,-0.09034729
1628,A,1138406626814234,2.605301,-7.920166,-2.534546,-0.363266,-0.80137634,0.13812256
1628,A,1138406646955835,2.003479,-9.005432,-0.3442688,-0.6657257,-0.2861023,0.44750977
1628,A,1138406667097437,0.31137085,-9.973038,1.110611,-1.0781403,-0.09838867,0.2919922
1628,A,1138406687239038,0.86946106,-9.722641,0.51908875,-1.3574677,-1.122345,0.10295105
1628,A,1138406707380640,-0.09136963,-9.384674,0.37127686,-1.2945709,-1.2830048,0.24273682
1628,A,1138406727522241,-0.7966919,-7.963089,-0.01940918,-1.1396637,-0.7229767,0.2250061
1628,A,1138406747663843,-0.77124023,-7.2301483,-0.36479187,-0.82987976,-0.34162903,0.32556152
1628,A,1138406767805445,0.49050903,-8.175613,-0.51626587,-0.9617157,-0.073410034,0.59306335
1628,A,1138406787947046,0.6032257,-9.391754,0.43354797,-0.8222351,-0.30215454,0.49565125
1628,A,1138406808088648,0.25082397,-9.623459,0.01083374,-0.6245575,-0.22406006,0.09046936
1628,A,1138406828230249,0.5060425,-9.087051,-0.09359741,-0.3975067,-0.3092804,-0.20419312
1628,A,1138406848371851,1.0040894,-9.0008545,0.107406616,0.4489441,0.37094116,-0.67041016
1628,A,1138406868513452,1.4134674,-9.107773,0.29881287,1.624115,1.2510223,-0.76005554
1628,A,1138406888655054,1.0610199,-8.877777,0.45518494,1.9759064,0.96362305,-0.18692017
1628,A,1138406908796656,0.9823303,-8.825287,1.0369263,1.658905,0.11424255,-0.24383545
1628,A,1138406928938257,1.5318298,-9.691925,0.73387146,1.2055359,0.63679504,-0.1854248
1628,A,1138406949079859,1.5972137,-9.628098,-0.103897095,0.9230957,1.5987549,-0.48503113
1628,A,1138406969221460,1.5480042,-9.3606415,-0.5528412,0.8033142,1.5760651,-0.13591003
1628,A,1138406989363062,2.64122,-9.747925,-0.3196411,0.10145569,0.96707153,-0.06271362
1628,A,1138407009504663,2.668274,-9.312042,-0.6951752,-0.49137878,0.6378174,0.029449463
1628,A,1138407029646265,1.9090424,-9.751602,-0.71414185,0.3247223,0.84306335,0.030563354
1628,A,1138407049787866,1.7965088,-10.155838,-0.574646,0.47010803,0.5299225,-0.38552856
1628,A,1138407069929468,2.9855194,-11.608704,-0.9077301,0.34181213,0.4306488,-0.32803345
1628,A,1138407090071070,3.0130768,-13.717102,-1.4866486,-0.31672668,-0.06463623,0.18624878
1628,A,1138407110212671,3.3418121,-13.698578,-1.565567,-0.56385803,-0.5749054,0.42556763
1628,A,1138407130354273,2.580429,-11.758331,-0.084106445,-1.2491302,-0.06123352,0.3270111
1628,A,1138407150495874,0.5292969,-9.505112,-1.3675079,-1.353241,-0.671051,-0.14268494
1628,A,1138407170637476,-1.7683105,-9.847626,-0.7334595,-1.3255463,-0.4822235,-0.018936157
1628,A,1138407190779077,-2.1855469,-13.120895,-0.41549683,-0.93577576,-0.38024902,0.019088745
1628,A,1138407210920679,-1.078125,-13.429932,-1.5632935,-0.85427856,0.0019378662,0.25001526
1628,A,1138407231062281,-1.268158,-12.782135,-0.92411804,-0.88656616,0.14840698,0.5015564
1628,A,1138407251203882,-0.076156616,-12.453323,-0.4534607,-0.73498535,0.108291626,0.4205475
1628,A,1138407271345484,0.7731323,-11.2265625,-0.7726288,-0.6011658,0.16952515,0.029647827
1628,A,1138407291487085,0.74617004,-10.707779,0.23867798,-0.25138855,-0.17414856,-0.5350647
1628,A,1138407311628687,0.7798157,-10.183029,-0.2702942,1.0431824,0.39886475,-1.1775055
1628,A,1138407331770288,1.3500671,-8.941437,-0.2872467,2.0105438,0.5424042,-0.6853943
1628,A,1138407351911890,0.95765686,-7.3557434,0.061187744,1.77211,-0.13815308,-0.4680481
1628,A,1138407372053491,0.19290161,-5.8658447,0.14749146,1.4459229,0.3297119,-0.1769867
1628,A,1138407392195093,-0.48634338,-5.7788086,-0.21942139,1.0505371,1.4677887,-0.2520752
1628,A,1138407412336695,-0.93377686,-6.53096,-0.08996582,0.9172516,1.5072479,-0.026229858
1628,A,1138407432478296,-0.6824646,-7.0803986,-0.012313843,0.36160278,0.61961365,0.15579224
1628,A,1138407452619898,-0.12971497,-7.3691406,0.27207947,-0.18450928,0.15066528,0.13745117
1628,A,1138407472761499,0.2421112,-6.8034515,0.8181305,-0.17047119,0.25123596,0.02229309
1628,A,1138407492903101,0.49398804,-6.316437,1.312439,0.38546753,0.51530457,-0.038619995
1628,A,1138407513044702,0.5338898,-6.4418945,2.0045776,0.21298218,0.6549835,-0.10090637
1628,A,1138407533186304,0.4519043,-7.305786,3.1644287,0.5527191,0.31852722,-0.17120361
1628,A,1138407553327906,0.57810974,-8.774109,4.383133,-0.50968933,-0.46141052,0.25143433
1628,A,1138407573469507,0.8362427,-10.353104,5.894623,-0.68089294,-0.7610626,0.31866455
1628,A,1138407593611109,1.462326,-12.15802,5.589279,-1.0208893,-0.6245117,0.3403778
1628,A,1138407613752710,1.4404907,-12.368912,4.708618,-1.3057709,-0.86032104,0.080444336
1628,A,1138407633894312,1.440567,-10.128128,5.326355,-1.2469482,-1.0224915,0.13752747
1628,A,1138407654035913,0.69285583,-10.853317,5.0400696,-1.1722107,-1.0725098,0.09233093
1628,A,1138407674177515,-0.6043701,-16.040283,0.80914307,-0.9564514,-0.70350647,0.15405273
1628,A,1138407694319116,-2.9411163,-14.991974,-1.2901154,-0.8543854,-0.40823364,0.28492737
1628,A,1138407714460718,-4.808243,-9.227402,0.69540405,-0.83880615,-0.28811646,0.49032593
1628,A,1138407734602320,-2.1660614,-7.030731,-0.21409607,-0.793869,-0.22036743,0.4668579
1628,A,1138407754743921,0.41558838,-7.437866,-1.1690369,-0.7009125,-0.008392334,0.1639862
1628,A,1138407774885523,1.9177856,-8.413574,-1.9360046,-0.5316467,-0.21697998,-0.22717285
1628,A,1138407795027124,2.316864,-9.3013,-2.018341,0.5088043,0.3970337,-0.8068695
1628,A,1138407815168726,1.3978882,-10.140625,-0.3417511,1.7627411,0.68696594,-0.7134857
1628,A,1138407835310327,0.13536072,-10.198441,0.4507599,1.8926392,0.3179016,-0.40577698
1628,A,1138407855451929,-0.7846985,-9.332947,-0.07070923,1.6864777,0.31666565,-0.17323303
1628,A,1138407875593531,-1.0669861,-8.444687,-0.5081024,1.4414978,1.1518097,-0.04144287
1628,A,1138407895735132,-1.0062103,-7.8756866,-0.57118225,1.0623169,1.3582916,-0.09164429
1628,A,1138407915876734,-0.5911865,-7.6596375,-0.57025146,0.5809326,1.0980988,0.11305237
1628,A,1138407936018335,0.6875305,-8.15686,-0.82699585,-0.0054473877,0.6996155,0.1262207
1628,A,1138407956159937,1.3002472,-9.238022,-2.2888184E-4,-0.17956543,0.6355896,0.013244629
1628,A,1138407976301538,1.017273,-9.785568,0.9760437,0.3589325,0.721405,-0.026397705
1628,A,1138407996443140,1.5007935,-9.56488,0.7640381,0.39413452,0.4680481,-0.1691742
1628,A,1138408016584741,2.1437683,-9.075943,0.4320984,0.45524597,0.0023040771,-0.17939758
1628,A,1138408036726343,1.818573,-8.662033,0.5580139,-0.28752136,-0.48908997,0.28559875
1628,A,1138408056867945,1.1571045,-8.669052,0.5198822,-0.81025696,-0.26228333,0.15751648
1628,A,1138408077009546,0.68426514,-9.339294,0.6598816,-1.1218872,0.10159302,0.09902954
1628,A,1138408097151148,0.8842468,-9.846924,0.7095947,-1.3377838,-0.795166,-0.12693787
1628,A,1138408117292749,1.5825806,-9.316971,0.6510773,-1.3220062,-0.8062744,-0.005569458
1628,A,1138408137434351,2.0992584,-9.499313,0.26272583,-1.1951141,-0.23397827,0.09555054
1628,A,1138408157575952,2.428421,-9.9831085,-0.34629822,-0.9570465,-0.12173462,0.32789612
1628,A,1138408177730993,1.6999359,-9.6813965,-0.44729614,-0.8338928,-0.25701904,0.4915924
1628,A,1138408197872595,0.9712982,-9.811707,-0.35598755,-0.7615814,-0.5349579,0.49491882
1628,A,1138408218014196,1.4601288,-9.551071,-1.5605469,-0.7718811,-0.16127014,0.16529846
1628,A,1138408238155798,2.7321167,-11.786514,-0.968338,-0.5669098,-0.35090637,-0.19824219
1628,A,1138408258297399,4.004608,-12.93602,-1.6515961,0.38815308,0.26179504,-0.84935
1628,A,1138408278439001,3.2528076,-12.400925,-0.057022095,1.8789215,1.0406647,-0.8469238
1628,A,1138408298580602,0.31750488,-10.860931,-1.0201263,1.9588776,0.40104675,-0.40040588
1628,A,1138408318722204,-1.9258728,-12.948166,-1.3639679,1.8646545,-0.01272583,-0.25471497
1628,A,1138408338863805,-1.6442261,-15.114914,-1.9244843,1.4485931,0.73921204,-0.1244812
1628,A,1138408359005407,-1.5071411,-14.31102,-1.2562256,1.1777496,1.3614349,-0.23338318
1628,A,1138408379147009,-1.408371,-13.734833,-0.65541077,0.9264679,1.0298004,0.08895874
1628,A,1138408399288610,-0.7516022,-12.4440155,-1.0358429,0.33866882,0.5939331,0.11424255
1628,A,1138408419430212,0.13331604,-10.968384,0.06777954,0.17230225,0.4499054,-0.05392456
1628,A,1138408439571813,-0.1270752,-9.779068,-0.3927002,0.334198,0.73342896,-0.2743683
1628,A,1138408459713415,0.25279236,-8.904037,-0.3468933,0.11341858,0.9408264,-0.2310791
1628,A,1138408479855016,0.35099792,-8.302399,-0.5465088,0.08514404,0.76408386,-0.36010742
1628,A,1138408499996618,0.87228394,-7.0171967,-0.6237488,-0.34339905,-0.1403656,0.096343994
1628,A,1138408520138220,0.5503998,-5.2317657,-0.4404602,-0.73617554,-1.2220154,0.26663208
1628,A,1138408540279821,0.20193481,-4.5654907,0.26481628,-1.0619965,-0.7209778,0.20516968
1628,A,1138408560421423,0.54145813,-5.9437256,-0.35751343,-1.2609711,-0.4907837,0.17184448
1628,A,1138408580563024,-0.05882263,-7.3083496,-0.053649902,-1.2097473,-0.5813141,0.15068054
1628,A,1138408600704626,-0.24305725,-7.9057617,-0.02130127,-1.1231995,-0.87350464,0.20347595
1628,A,1138408620846227,-0.44963074,-7.2196198,0.6100006,-1.0272522,-0.5925751,0.043167114
1628,A,1138408640987829,-0.030151367,-6.8352966,1.3278503,-0.92407227,-0.07778931,0.24819946
1628,A,1138408661129430,0.41845703,-6.7289886,2.2035065,-0.9421387,-0.09593201,0.43937683
1628,A,1138408681271032,0.25442505,-6.9771423,3.588379,-0.92781067,-0.40673828,0.53689575
1628,A,1138408701412634,0.15597534,-9.165985,4.2792053,-0.7548828,-0.45542908,0.3406372
1628,A,1138408721554235,1.5138092,-11.955841,6.609848,-0.6105652,-0.4810028,0.08987427
1628,A,1138408741695837,3.5863037,-13.364716,6.003128,-0.06211853,0.10406494,-0.30770874
1628,A,1138408761837438,2.0715942,-12.807587,4.9509125,0.95991516,0.948349,-0.749115
1628,A,1138408781979040,-2.128189,-15.1436,6.733841,2.0023346,1.0508575,-0.45036316
1628,A,1138408802120641,0.48861694,-18.035461,-0.9084625,1.7884521,0.21870422,-0.31529236
1628,A,1138408822262243,-3.4455261,-10.282257,-1.8452454,1.5022888,0.089416504,-0.18553162
1628,A,1138408842403845,-4.2924347,-6.0185394,1.5462799,1.0609894,0.8017273,-0.38842773
1628,A,1138408862545446,-0.7615814,-5.3951874,-0.96632385,0.9815216,1.2519226,-0.31939697
1628,A,1138408882687048,0.6130371,-6.551697,-1.3614044,0.4663849,0.9088135,-0.02003479
1628,A,1138408902828649,1.7076416,-8.570389,-2.0799255,-0.27745056,0.41244507,0.08895874
1628,A,1138408922970251,1.8923187,-10.880432,-4.272461E-4,-0.389328,0.58265686,0.14208984
1628,A,1138408943111852,1.6474609,-11.040466,0.6415405,0.393219,0.5917053,-0.030212402
1628,A,1138408963253454,0.52301025,-9.798752,0.8437042,0.33847046,0.28015137,-0.28233337
1628,A,1138408983395055,-0.57388306,-8.737564,-0.34121704,0.15440369,-0.19932556,-0.08547974
1628,A,1138409003536657,-0.8336334,-7.933716,-1.4722595,0.122177124,-0.11076355,0.5484009
1628,A,1138409023678259,-1.4808197,-7.9551086,-1.6963348,-0.79740906,-0.6433716,0.2722931
1628,A,1138409043819860,-2.1024628,-8.227493,-1.3790131,-1.3910828,-0.32862854,0.28977966
1628,A,1138409063961462,-1.6864166,-8.526733,-1.5794525,-1.6331635,-0.7191467,-0.046905518
1628,A,1138409084103063,-0.8664093,-9.136032,-1.0378418,-1.5684662,-0.47695923,0.12913513
1628,A,1138409104244665,-0.44978333,-9.647263,-0.4813385,-0.9497223,-0.38671875,0.22372437
1628,A,1138409124386266,0.74617004,-9.599152,-0.5698242,-0.8126221,-0.1859436,0.44566345
1628,A,1138409144527868,1.6239471,-9.659241,-0.20739746,-0.77427673,-0.12005615,0.57759094
1628,A,1138409164669470,1.8170776,-9.676605,0.29896545,-0.65127563,0.055633545,0.2974701
1628,A,1138409184811071,1.342453,-9.539993,0.52056885,-0.4052887,0.17326355,-0.24769592
1628,A,1138409204952673,0.48989868,-9.323471,0.59524536,0.4335327,0.52497864,-1.0719452
1628,A,1138409225094274,0.2184143,-8.912018,0.27272034,1.8603668,0.9867554,-0.94111633
1628,A,1138409245235876,0.9784088,-8.987045,0.3918457,1.9638062,0.10491943,-0.51916504
1628,A,1138409265377477,2.2330017,-9.28447,0.3844757,1.7559357,-0.06378174,-0.37530518
1628,A,1138409285519079,2.6337128,-9.49176,0.26812744,1.2957306,1.1478119,-0.21977234
1628,A,1138409305660680,2.4191437,-9.566772,0.064834595,0.90592957,1.8072052,-0.25282288
1628,A,1138409325802282,3.0074158,-9.331802,-0.88067627,0.47250366,1.3463593,0.05718994
1628,A,1138409345943884,3.9879913,-10.948578,-1.5336761,-0.26313782,0.8877411,0.06925964
1628,A,1138409366085485,4.0516663,-13.716537,-1.8421631,-0.53367615,0.6174774,0.090652466
1628,A,1138409386227087,2.8951874,-13.751938,-1.0767365,0.20152283,0.6819916,0.026504517
1628,A,1138409406368688,0.29832458,-11.458298,-0.766037,0.31478882,0.17671204,-0.322464
1628,A,1138409426510290,-2.4204254,-12.292694,-0.9790344,0.1729126,0.21757507,-0.15226746
1628,A,1138409446651891,-2.7536469,-14.996017,-1.5912323,-0.033462524,-0.26213074,0.34202576
1628,A,1138409466793493,-2.1585236,-14.586548,-2.2274323,-0.63087463,-0.97402954,0.2831421
1628,A,1138409486935095,-2.0032349,-13.494522,-1.2839966,-1.3010864,-0.61050415,0.35057068
1628,A,1138409507076696,-1.1422882,-12.693893,-0.5703125,-1.5799103,-1.3832855,-0.12660217
1628,A,1138409527218298,0.10343933,-11.024887,0.140625,-1.4243774,-1.4633789,0.11828613
1628,A,1138409547359899,0.7073822,-9.77948,0.031326294,-1.1593475,-1.2463837,0.11804199
1628,A,1138409567501501,1.064209,-9.169388,0.014419556,-0.7838898,-0.73114014,0.26689148
1628,A,1138409587643102,1.5546112,-8.4021,-0.05958557,-0.7362976,-0.34547424,0.38900757
1628,A,1138409607784704,1.6907654,-7.1060333,-0.3343048,-0.7547302,-0.16615295,0.4752655
1628,A,1138409627926305,0.62449646,-5.8302765,-0.15556335,-0.64053345,0.18614197,0.16412354
1628,A,1138409648067907,-0.056762695,-5.2166443,-0.20257568,-0.46835327,-0.22477722,-0.27127075
1628,A,1138409668209509,-0.22207642,-5.7535553,-0.49287415,0.66719055,0.18377686,-0.9285431
1628,A,1138409688351110,-0.4269867,-6.528824,-0.23561096,1.8359375,0.7831421,-0.8236389
1628,A,1138409708492712,-0.23869324,-7.0286407,0.35029602,2.1515503,-0.22872925,-0.48651123
1628,A,1138409728634313,-0.001739502,-6.834778,1.0950775,1.8370209,0.11248779,-0.25056458
1628,A,1138409748775915,0.7170563,-6.5514374,1.2350464,1.3759766,1.0141754,-0.11013794
1628,A,1138409768917516,0.7693329,-6.8235626,1.6593628,0.90065,1.6013641,-0.12734985
1628,A,1138409789059118,0.07536316,-7.6148224,2.7408142,0.46891785,1.2282104,0.135849
1628,A,1138409809200720,0.08508301,-9.190628,4.636429,-0.41377258,0.8371887,0.18180847
1628,A,1138409829342321,0.6495209,-11.853607,6.0468597,-0.5501404,0.3709259,0.21302795
1628,A,1138409849483923,1.7254333,-13.225845,5.304657,-0.0025787354,0.5547638,0.22491455
1628,A,1138409869625524,0.95765686,-11.914627,4.412262,0.30833435,0.0778656,-0.16384888
1628,A,1138409889767126,0.26272583,-8.718796,5.2899475,0.45932007,0.18252563,0.14486694
1628,A,1138409909908727,-1.1950836,-12.257996,6.5361176,-0.08016968,-0.57910156,0.2237854
1628,A,1138409930050329,1.3092651,-17.561493,0.128479,-0.7028351,-0.677063,0.33113098
1628,A,1138409950191930,-2.6940918,-13.456207,-1.4396515,-1.2466888,-0.17726135,0.23484802
1628,A,1138409970333532,-5.26355,-7.9357605,0.7378235,-1.6008911,-1.1287994,-0.02696228
1628,A,1138409990475134,-1.925354,-5.881729,-0.19499207,-1.593811,-0.9916687,0.057891846
1628,A,1138410010616735,0.6426544,-6.3280945,-0.4778595,-1.1398315,-0.80792236,0.11602783
1628,A,1138410030758337,2.3401184,-8.63002,-2.579071,-0.7664032,-0.588501,0.28570557
1628,A,1138410050899938,2.1258392,-10.265945,-2.278778,-0.76678467,-0.31591797,0.4597473
1628,A,1138410071041540,0.75990295,-9.985336,0.43484497,-0.7197113,-0.17121887,0.45515442
1628,A,1138410091183141,-0.6021118,-9.531586,0.3381958,-0.58273315,0.17045593,0.019134521
1628,A,1138410111324743,-0.5002289,-8.882324,-0.41574097,-0.19474792,0.2166748,-0.7418976
1628,A,1138410131466345,-1.0036926,-8.594757,-0.34332275,1.2978516,0.85391235,-1.3289948
1628,A,1138410151607946,-0.9873657,-7.3943176,-1.0495911,2.2303314,0.035446167,-0.60354614
1628,A,1138410171749548,-0.9199219,-7.5009766,-0.85795593,2.1058197,-0.41999817,-0.45866394
1628,A,1138410191891149,0.8293457,-9.0086975,-0.76020813,1.6376038,0.32588196,-0.12973022
1628,A,1138410212032751,0.6396332,-10.009811,0.40827942,1.0510254,1.2844849,-0.057235718
1628,A,1138410232174352,-0.05848694,-9.514236,0.07774353,0.6301575,1.0613251,0.017593384
1628,A,1138410252315954,0.44805908,-9.195831,-0.2549286,-0.077560425,1.0200958,0.16397095
1628,A,1138410272457555,1.1160126,-9.800598,0.39427185,-0.56225586,0.7053375,0.129776
1628,A,1138410292599157,1.0976563,-9.536484,0.49726868,-0.201828,0.8306122,0.18408203
1628,A,1138410312740759,0.29388428,-8.772766,0.54177856,0.473114,0.17485046,-0.22810364
1628,A,1138410332882360,0.3115692,-8.822647,1.0203552,0.61242676,0.14865112,-0.041885376
1628,A,1138410353023962,0.85336304,-9.094574,0.6603699,0.12721252,-0.6799774,-0.114868164
1628,A,1138410373165563,1.6574249,-9.223785,0.3219452,-0.26197815,-0.5169983,0.5115967
1628,A,1138410393307165,2.8736115,-9.819672,0.015563965,-1.1516724,0.135849,0.28422546
1628,A,1138410413448766,3.1425018,-10.018799,-0.3530426,-1.4381866,-0.94215393,-0.09629822
1628,A,1138410433590368,2.7770996,-9.641296,-0.57214355,-1.45607,-1.1505127,0.114364624
1628,A,1138410453731970,2.1120453,-9.723465,-0.46600342,-1.4473114,-0.7639618,0.18647766
1628,A,1138410473873571,2.518921,-10.173325,-1.407135,-1.0884857,-0.41453552,0.41822815
1628,A,1138410494015173,2.899994,-13.536545,-0.61026,-0.6671295,-0.4033203,0.49327087
1628,A,1138410514156774,3.140396,-13.594254,-1.7751007,-0.6850891,-0.42326355,0.5252838
1628,A,1138410534298376,1.9220734,-12.569275,-0.23603821,-0.6147766,-0.059188843,0.21594238
1628,A,1138410554439977,-0.03678894,-10.608429,-1.2514191,-0.46730042,0.12582397,-0.2802124
1628,A,1138410574581579,-2.3473053,-11.9565735,-1.1296387,0.37442017,0.6803894,-1.1000366
1628,A,1138410594723180,-2.0963898,-15.147583,-1.6580658,1.8146667,1.029892,-0.92544556
1628,A,1138410614864782,-1.1549835,-14.399155,-1.4920807,1.9594269,0.17752075,-0.42588806
1628,A,1138410635006384,-1.5231934,-13.870834,-0.3265686,1.8702698,-0.076828,-0.38604736
1628,A,1138410655147985,-0.9056244,-12.450928,-0.39108276,1.3542175,0.83177185,-0.11453247
1628,A,1138410675289587,-0.43325806,-10.680496,-0.5582733,1.0515289,1.3558502,-0.062194824
1628,A,1138410695431188,-0.3056488,-9.873093,-0.004760742,0.4527588,0.9080353,0.21713257
1628,A,1138410715572790,0.11555481,-8.975555,-0.14016724,-0.4729309,0.65696716,0.34066772
1628,A,1138410735714391,1.0546417,-7.886612,-0.21464539,-0.56837463,0.37408447,0.25483704
1628,A,1138410755855993,0.9850006,-6.453354,-0.25785828,0.13449097,0.5865936,0.127182
1628,A,1138410775997595,0.27661133,-5.1889954,0.19136047,0.4869995,0.023590088,-0.22822571
1628,A,1138410796139196,-0.1259613,-5.263138,0.4119568,0.67300415,0.18544006,-0.024246216
1628,A,1138410816280798,-0.18249512,-6.386627,-0.079193115,-0.08375549,-0.6221466,0.05886841
1628,A,1138410836422399,-0.2967224,-7.1012573,-0.22666931,-0.52809143,-0.40138245,0.49510193
1628,A,1138410856564001,-0.33735657,-7.0034637,0.374115,-1.2556915,0.07763672,0.2147522
1628,A,1138410876705602,-0.1295166,-6.480423,1.4413757,-1.5326996,-1.030365,-0.14526367
1628,A,1138410896847204,0.7142792,-6.1934814,1.6873474,-1.4001923,-1.0342712,0.012634277
1628,A,1138410916988805,1.0682526,-6.119461,2.4164886,-1.1654205,-0.77464294,0.0211792
1628,A,1138410937130407,0.7639923,-7.3606415,3.5555725,-0.8160858,-0.33955383,0.3320465
1628,A,1138410957272009,0.7364197,-9.744812,4.8999634,-0.72732544,-0.28105164,0.43449402
1628,A,1138410977413610,1.8288574,-11.74765,6.368744,-0.68696594,-0.40989685,0.49369812
1628,A,1138410997555212,3.0561829,-12.778168,5.58638,-0.6521759,-0.23068237,0.13311768
1628,A,1138411017696813,1.9882965,-11.718765,4.693924,-0.46296692,-0.09890747,-0.4086609
1628,A,1138411037838415,-0.01625061,-9.921722,5.564087,0.47428894,0.42089844,-1.0671539
1628,A,1138411057980016,-0.83966064,-12.933258,4.5558777,1.8114471,0.8748169,-0.86398315
1628,A,1138411078121618,-0.6130066,-16.62677,0.1890564,1.9145966,-0.12542725,-0.48831177
1628,A,1138411098263220,-3.3603516,-12.930389,-0.84902954,1.7202606,-0.24963379,-0.4308319
1628,A,1138411118404821,-5.1680603,-8.061996,0.47084045,1.3318939,1.1136932,-0.12034607
1628,A,1138411138546423,-2.728531,-6.1463623,0.09643555,1.0269012,1.6942444,0.037231445
1628,A,1138411158688024,-0.10139465,-6.9260254,-0.7402954,0.37156677,1.0169678,0.13511658
1628,A,1138411178829626,1.6625061,-8.979004,-1.4048157,-0.45910645,0.5895691,0.24551392
1628,A,1138411198971227,2.4429474,-10.294815,-1.6655273,-0.6365204,0.17451477,0.20829773
1628,A,1138411219112829,1.5639801,-9.985748,0.125,0.0625,0.44148254,0.16294861
1628,A,1138411239254430,0.41964722,-8.832947,1.0184937,0.5574951,0.01965332,-0.1802063
1628,A,1138411259396032,0.21017456,-7.8928375,-0.2640686,0.7123718,0.36257935,0.040893555
1628,A,1138411279537634,-0.44607544,-7.540802,-0.87091064,0.101501465,-0.8455353,0.10211182
1628,A,1138411299679235,-1.5898132,-6.9879456,-0.61665344,-0.41471863,-0.9621124,0.3711853
1628,A,1138411319820837,-1.4230804,-7.476059,-0.29222107,-1.1581116,-0.5461273,0.23324585
1628,A,1138411339962438,-0.5285492,-9.492416,0.14027405,-1.4468536,-1.1392975,-0.021972656
1628,A,1138411360104040,-0.43504333,-10.993805,0.25636292,-1.4444733,-1.2553253,0.17486572
1628,A,1138411380245641,0.44625854,-10.380447,-1.3317719,-1.405838,-1.1697235,0.1431427
1628,A,1138411400387243,1.634491,-9.101883,-1.0364532,-1.003067,-0.65008545,0.3776245
1628,A,1138411420528845,1.498169,-9.042404,0.38241577,-0.6492157,-0.41915894,0.39164734
1628,A,1138411440670446,1.0481415,-8.665466,-0.06925964,-0.8346863,-0.15597534,0.53097534
1628,A,1138411460812048,0.5433502,-8.585587,-0.52622986,-0.76538086,0.20559692,0.38174438
1628,A,1138411480953649,0.27815247,-8.149048,-0.6645355,-0.649353,0.060775757,-0.035247803
1628,A,1138411501095251,0.026229858,-9.213196,0.11288452,-0.30647278,-0.15039063,-0.51464844
1628,A,1138411521236852,0.7455902,-10.626556,0.011245728,0.8796692,0.39556885,-0.9566803
1628,A,1138411541378454,1.1214294,-11.332123,0.028747559,2.093277,0.5265808,-0.4202118
1628,A,1138411561520055,2.7039948,-10.281036,-0.5335846,1.96521,-0.305542,-0.2063446
1628,A,1138411581661657,2.8265839,-10.184296,-0.27030945,1.7486877,0.13076782,-0.06774902
1628,A,1138411601803259,1.3470917,-9.78598,-0.42092896,1.1979523,0.9629364,-0.041641235
1628,A,1138411621944860,0.86743164,-9.636337,-0.7831726,0.94747925,1.2288055,0.03186035
1628,A,1138411642086462,2.6642761,-11.383728,-1.4139099,0.254776,0.7296753,0.14704895
1628,A,1138411662228063,2.619522,-13.763245,-1.9285126,-0.48129272,0.23602295,0.16682434
1628,A,1138411682369665,3.8526154,-13.421585,-1.295639,-0.46054077,0.29229736,0.17321777
1628,A,1138411702511266,1.5521698,-11.220047,-0.60879517,0.48435974,0.45401,-0.058761597
1628,A,1138411722652868,-0.94221497,-9.697189,-1.6486206,0.5628052,0.2711792,-0.2878723
1628,A,1138411742794470,-3.122116,-13.899536,0.11705017,0.36061096,-0.32496643,-0.3349762
1628,A,1138411762936071,-0.5964203,-14.666931,-1.4658508,-0.17921448,-0.31427002,0.29782104
1628,A,1138411783077673,-0.5429535,-12.845337,-0.79844666,-0.7493744,-0.38331604,0.34013367
1628,A,1138411803219274,-0.8694916,-11.325363,-0.66526794,-1.1164551,-0.06414795,0.0622406
1628,A,1138411823360876,-0.49272156,-10.949936,-0.08699036,-1.4641113,-0.54937744,-0.29193115
1628,A,1138411843502477,-1.20018,-10.474686,-0.27400208,-1.3523865,-0.47338867,0.029464722
1628,A,1138411863644079,-0.66908264,-9.598099,-0.38708496,-1.1516418,-0.41047668,0.20491028
1628,A,1138411883785680,0.5930023,-8.683456,-0.13317871,-0.94241333,-0.47140503,0.53634644
1628,A,1138411903927282,1.414032,-7.6589813,-0.2562256,-0.8085785,-0.38017273,0.6370239
1628,A,1138411924068884,0.676178,-6.1790924,0.13209534,-0.87405396,0.09429932,0.54963684
1628,A,1138411944210485,0.22573853,-5.0289154,0.19859314,-0.77111816,0.23033142,0.0021972656
1628,A,1138411964352087,0.08232117,-5.9342194,-0.058639526,-0.23799133,-0.0034179688,-0.7164154
1628,A,1138411984493688,-0.10864258,-7.158066,-0.40737915,1.1455994,0.39486694,-1.1448212
1628,A,1138412004635290,-0.5192261,-7.222946,-0.17144775,2.1793976,0.17492676,-0.5436096
1628,A,1138412024776891,-0.6809082,-6.731308,0.50509644,2.0216064,-0.41438293,-0.35508728
1628,A,1138412044918493,-0.14065552,-6.195587,1.4108276,1.7042084,0.055023193,-0.088531494
1628,A,1138412065060095,0.9046478,-6.5782623,1.9758759,1.3053741,0.8866272,-0.07115173
1628,A,1138412085201696,1.0394287,-7.699478,3.3999176,0.8578644,0.83283997,0.08866882
1628,A,1138412105343298,0.5132599,-9.736954,4.785202,0.05128479,0.5523224,0.22999573
1628,A,1138412125484899,0.53518677,-11.54866,6.7785034,-0.61260986,0.50405884,0.24562073
1628,A,1138412145626501,2.041153,-11.983215,5.6982727,-0.32673645,0.5467377,0.26324463
1628,A,1138412165768102,2.2605743,-11.378555,4.141678,0.6124115,0.2136383,-0.0743866
1628,A,1138412185909704,1.7577362,-9.36644,4.8989716,0.43722534,0.13691711,-0.24391174
1628,A,1138412206051305,1.1816711,-8.767227,5.0572968,0.3235016,-0.20246887,0.23881531
1628,A,1138412226192907,-1.3386688,-15.735107,1.7346802,-0.25395203,-0.9042053,0.27778625
1628,A,1138412246334509,-3.3070374,-17.14563,-2.308792,-1.0652466,-0.30238342,0.15689087
1628,A,1138412266476110,-4.984085,-10.541794,1.0703735,-1.092926,-0.76930237,0.09385681
1628,A,1138412286617712,-1.0257263,-6.9762726,-1.1529999,-1.4663391,-1.1103516,-0.07159424
1628,A,1138412306759313,0.7812805,-7.1547546,-1.9516296,-1.2438965,-0.6174469,0.09260559
1628,A,1138412326900915,1.1366119,-7.810791,-2.0674896,-1.0950928,-0.36116028,0.2233429
1628,A,1138412347042516,0.97909546,-8.771286,-1.6670685,-0.77163696,-0.4478302,0.44067383
1628,A,1138412367184118,-0.078048706,-10.0559845,-0.3570099,-0.72566223,-0.4182434,0.49395752
1628,A,1138412387325720,-0.7446594,-10.560944,0.14160156,-0.6609802,-0.009109497,0.33370972
1628,A,1138412407467321,-1.2823486,-9.932297,-0.12358093,-0.65667725,0.26834106,-0.07936096
1628,A,1138412427608923,-0.99079895,-8.644287,-0.6710663,-0.20857239,0.16778564,-0.6408386
1628,A,1138412447750524,-0.41838074,-7.620392,-1.0350952,1.1709442,0.8092346,-0.87576294
1628,A,1138412467892126,-0.055847168,-7.5016937,-1.0416718,1.9511108,0.700943,-0.47488403
1628,A,1138412488033727,0.36605835,-8.38974,-0.49180603,1.8924103,-0.13951111,-0.4725952
1628,A,1138412508175329,0.041641235,-9.519104,0.1051178,1.4069977,0.22810364,-0.21694946
1628,A,1138412528316930,-0.14517212,-9.623489,0.04814148,1.086441,1.1424713,-0.26327515
1628,A,1138412548458532,0.3972473,-9.126862,-0.089263916,0.78759766,0.8540344,-0.07406616
1628,A,1138412568600134,1.0181427,-9.139938,0.43244934,0.025238037,0.5249634,0.1889801
1628,A,1138412588741735,1.2849731,-8.977509,0.8911743,-0.6726837,0.25047302,0.26237488
1628,A,1138412608883337,1.1931915,-8.289642,0.85220337,-0.44281006,0.450943,0.31411743
1628,A,1138412629024938,1.0578918,-8.590637,1.3482666,0.43286133,0.26559448,0.032424927
1628,A,1138412649166540,1.3980255,-9.738007,1.6565399,0.5396118,0.124313354,-0.095840454
1628,A,1138412669308141,2.2565613,-10.004471,1.0233765,0.16239929,-0.58374023,-0.20071411
1628,A,1138412689449743,3.054306,-10.026718,0.71961975,-0.32650757,-0.8336029,0.5332031
1628,A,1138412709591345,3.3403015,-10.188309,-0.051452637,-0.8444977,-0.17887878,0.302536
1628,A,1138412729732946,2.485733,-10.027847,-0.38069153,-1.1376038,-0.75180054,0.12162781
1628,A,1138412749874548,1.6277161,-9.673233,-0.80244446,-1.3585205,-0.8116455,-0.07487488
1628,A,1138412770016149,2.1123505,-11.125519,-1.0190582,-1.2115479,-0.4037323,0.154953
1628,A,1138412790157751,2.5926971,-13.794952,-1.1641846,-1.1262207,-0.32133484,0.3004303
1628,A,1138412810299352,1.9689789,-14.199173,-0.03263855,-0.9151306,-0.15403748,0.50157166
1628,A,1138412830440954,1.159317,-12.238068,-0.042633057,-0.90449524,-0.035186768,0.58843994
1628,A,1138412850582555,-0.411026,-9.998245,-0.8093567,-0.7116852,-0.010009766,0.32791138
1628,A,1138412870724157,-2.3844452,-12.23056,-0.16964722,-0.60639954,0.10545349,-0.0821228
1628,A,1138412890865759,-1.1043549,-13.773392,-1.7873993,-0.11669922,-0.24267578,-0.69288635
1628,A,1138412911007360,-0.32476807,-13.235046,-0.97143555,1.4267731,0.5125427,-1.0194855
1628,A,1138412931148962,-0.25984192,-12.457809,0.3921051,2.1087952,0.2610321,-0.43481445
1628,A,1138412951290563,0.2657013,-11.389008,0.170578,1.977951,-0.35671997,-0.22615051
1628,A,1138412971432165,-0.3031006,-10.891617,0.16479492,1.5146027,0.2982025,-0.15582275
1628,A,1138412991573766,-0.12586975,-9.707733,-0.33268738,0.97177124,1.0670166,-0.25305176
1628,A,1138413011715368,0.8267822,-8.602615,-0.04763794,0.6561279,1.0305786,0.09625244
1628,A,1138413031856970,1.0331573,-7.86322,0.5209656,-0.17338562,0.7981415,0.22439575
1628,A,1138413051998571,0.60517883,-6.379059,0.5394592,-0.8060303,0.50083923,0.2316742
1628,A,1138413072140173,0.12084961,-5.50502,0.5726776,-0.21186829,0.40367126,0.26489258
1628,A,1138413092281774,-0.019943237,-5.8790894,0.60227966,0.6506958,0.015045166,-0.11231995
1628,A,1138413112423376,-0.13220215,-6.7198334,0.15107727,0.79052734,-0.06480408,-0.1315155
1628,A,1138413132564977,-0.1368866,-7.2225647,-0.034591675,0.0864563,-0.71029663,0.2083435
1628,A,1138413152706579,0.0064086914,-6.8881683,-0.049087524,-0.49978638,-0.4689331,0.3981018
1628,A,1138413172848180,0.117874146,-6.0340576,0.7043762,-1.1668091,-0.068237305,0.094696045
1628,A,1138413192989782,0.6181793,-6.047348,1.5754547,-1.3899231,-1.1321106,-0.036315918
1628,A,1138413213131384,0.6936188,-6.9813843,2.7707977,-1.3267822,-1.0747223,0.10346985
1628,A,1138413233272985,0.66693115,-9.259293,3.9752655,-1.2750244,-0.95521545,0.13613892
1628,A,1138413253414587,0.98265076,-10.779327,5.0734253,-1.0302124,-0.48693848,0.47834778
1628,A,1138413273556188,0.81069946,-11.496719,6.4297943,-0.75476074,-0.34591675,0.5907593
1628,A,1138413293697790,1.402771,-12.539291,4.761734,-0.79003906,-0.3156128,0.5586548
1628,A,1138413313839391,1.2488556,-11.424118,3.9547424,-0.6695862,-0.027999878,0.2400055
1628,A,1138413333980993,1.615799,-8.320023,5.248169,-0.52394104,0.11416626,-0.22917175
1628,A,1138413354122595,1.8360443,-8.19545,6.521408,0.29885864,0.48680115,-1.0579529
1628,A,1138413374264196,0.19573975,-15.781128,-0.091430664,1.7598419,0.7890625,-0.87687683
1628,A,1138413394405798,-3.9766388,-16.329071,-2.7571716,2.0398254,0.19708252,-0.38304138
1628,A,1138413414547399,-7.0852814,-8.971161,2.6606293,1.9797058,0.0053100586,-0.34890747
1628,A,1138413434689001,-1.2322693,-6.942795,-0.19577026,1.3928986,0.8304596,-0.13626099
1628,A,1138413454830602,0.80178833,-7.9190216,-0.6098175,1.0526123,1.2673492,-0.26576233
1628,A,1138413474972204,1.879837,-8.513626,-2.3400269,0.589859,1.1997528,0.05706787
1628,A,1138413495113805,2.67305,-8.7630005,-1.812561,-0.31422424,0.8038788,0.1451416
1628,A,1138413515255407,0.83096313,-9.680939,0.29792786,-0.63926697,0.4526825,0.17700195
1628,A,1138413535397009,0.094955444,-10.096252,0.985199,-0.0016937256,0.7328491,0.17085266
1628,A,1138413555538610,0.60336304,-9.518051,-0.26023865,0.52796936,0.013320923,-0.27293396
1628,A,1138413575680212,-0.6143341,-8.867172,-0.35206604,0.6036835,0.2205658,-0.035232544
1628,A,1138413595821813,-0.90031433,-8.013428,-0.29989624,0.0040283203,-0.68930054,0.05168152
1628,A,1138413615963415,-0.41337585,-8.103195,-0.7758026,-0.48594666,-0.7247467,0.42608643
1628,A,1138413636105016,0.42616272,-8.724167,-0.688324,-1.2005463,-0.14694214,0.2476654
1628,A,1138413656246618,-0.2131195,-9.454498,0.7219391,-1.4270172,-1.1491394,-0.06878662
1628,A,1138413676388220,0.34646606,-9.724136,0.54663086,-1.3169708,-1.3361359,-0.016937256
1628,A,1138413696529821,0.94117737,-9.163345,0.18600464,-1.2646637,-1.030716,0.048431396
1628,A,1138413716671423,0.8624115,-8.72316,0.3828125,-1.0409241,-0.33615112,0.411911
1628,A,1138413736813024,0.78811646,-9.15213,0.72776794,-0.7543335,-0.28497314,0.5877838
1628,A,1138413756954626,0.9674225,-9.369843,0.6835022,-0.8481598,-0.11714172,0.67115784
1628,A,1138413777096227,1.0782471,-8.917679,0.81866455,-0.7645416,0.105270386,0.36653137
1628,A,1138413797237829,1.2987671,-8.687088,1.0954895,-0.6490631,-0.10357666,-0.083465576
1628,A,1138413817379430,1.8625641,-8.867004,0.28933716,-0.033706665,0.18922424,-0.7198639
1628,A,1138413837521032,2.4348145,-8.875336,-0.010406494,1.1571045,0.8074646,-1.0241089
1628,A,1138413857662634,2.705902,-9.65329,-0.35507202,2.0576935,0.7353363,-0.3988037
1628,A,1138413877804235,2.382141,-9.9939575,-0.8292999,1.9508209,0.026153564,-0.35305786
1628,A,1138413897945837,1.2176666,-10.191299,-0.5391846,1.6570129,0.5335083,-0.20600891
1628,A,1138413918087438,0.9167175,-10.783676,-1.01857,1.2467346,1.2303314,-0.2992401
1628,A,1138413938229040,1.7709808,-12.647278,-1.7947693,0.988327,1.2814789,-0.16596985
1628,A,1138413958370641,2.3561554,-13.953049,-0.82836914,0.24328613,0.8741913,0.033432007
1628,A,1138413978512243,2.541275,-12.293579,0.18630981,-0.4825287,0.4880066,0.17042542
1628,A,1138413998653845,1.0323944,-10.0997925,-0.17332458,-0.50019836,0.45458984,0.261261
1628,A,1138414018795446,-1.5073853,-11.050842,-0.44866943,0.3163147,0.4569397,0.042144775
1628,A,1138414038937048,-1.6933136,-14.328766,-1.1273804,0.10734558,0.14808655,-0.0664978
1628,A,1138414059078649,-0.33628845,-14.573685,-1.1508636,0.2669983,-0.040405273,0.18856812
1628,A,1138414079220251,-0.32170105,-13.748032,0.033309937,-0.053833008,-0.86291504,0.27279663
1628,A,1138414099361852,-0.31777954,-12.848877,-0.10821533,-0.7455902,-0.7932739,0.24620056
1628,A,1138414119503454,-0.8505707,-11.336105,-0.04309082,-1.2707672,-0.43725586,0.3057251
1628,A,1138414139645055,-1.3731842,-9.809174,-0.34848022,-1.6068573,-1.5442352,-0.06529236
1628,A,1138414159786657,-1.2297363,-8.87706,-0.4262848,-1.5097809,-1.4160614,0.15124512
1628,A,1138414179928259,-0.44044495,-8.130539,-0.31277466,-1.3131866,-0.9226532,0.2077179
1628,A,1138414200069860,0.47265625,-6.965103,-0.1295929,-0.7613678,-0.52853394,0.35639954
1628,A,1138414220211462,0.99928284,-6.049637,0.28341675,-0.677475,-0.1852417,0.4178772
1628,A,1138414240353063,0.69984436,-6.0125427,0.46713257,-0.6989441,0.16236877,0.45858765
1628,A,1138414260494665,0.13275146,-6.282181,0.2959137,-0.5910797,0.2902527,0.18817139
1628,A,1138414280636266,-0.24195862,-6.4415436,0.13427734,-0.3804474,-0.22506714,-0.31932068
1628,A,1138414300777868,-0.19273376,-6.0139008,0.32554626,0.7637024,0.29301453,-1.0648956
1628,A,1138414320919470,0.28567505,-5.726242,0.9743042,1.9647064,0.83213806,-0.8664551
1628,A,1138414341061071,0.7225952,-5.6483307,1.7511139,2.052719,-0.06175232,-0.37278748
1628,A,1138414361202673,0.5457001,-6.0251007,2.5285492,1.8143616,-0.08178711,-0.25204468
1628,A,1138414381344274,-0.28546143,-8.083008,3.5825348,1.2412872,0.83644104,-0.21508789
1628,A,1138414401485876,-0.9302368,-11.156021,5.04158,0.91064453,1.4250488,-0.19897461
1628,A,1138414421627477,0.6395416,-12.978851,5.52063,0.45066833,1.1773834,0.13139343
1628,A,1138414441769079,2.583786,-12.532349,4.6474457,-0.37768555,0.74864197,0.13420105
1628,A,1138414461910680,1.4503479,-11.275009,4.7756042,-0.52464294,0.5041199,0.12315369
1628,A,1138414482052282,0.83148193,-9.515991,5.4033356,0.22676086,0.62576294,0.119155884
1628,A,1138414502193884,1.4858093,-8.986984,6.9453125,0.52760315,0.028289795,-0.2119751
1628,A,1138414522335485,1.3220673,-13.800034,2.9289856,0.4671936,-0.13580322,-0.2288971
1628,A,1138414542477087,-0.8753052,-16.4478,-1.3722382,-0.0059814453,-0.39474487,0.22714233
1628,A,1138414562618688,-4.713867,-10.827866,0.056732178,-0.7841339,-0.04660034,0.29707336
1628,A,1138414582760290,-4.2164917,-7.224701,0.14215088,-1.1451569,-0.16471863,-0.049240112
1628,A,1138414602901891,-2.1189117,-6.9640503,0.4013977,-1.5711212,-1.019455,-0.30108643
1628,A,1138414623043493,-0.1643219,-8.102295,-0.47236633,-1.4334717,-0.801178,0.16114807
1628,A,1138414643185095,1.7394257,-9.377014,-3.3359985,-1.269928,-0.6233063,0.3685608
1628,A,1138414663326696,1.1182861,-10.26886,-1.6171417,-0.8298187,-0.42518616,0.517395
1628,A,1138414683468298,0.39331055,-10.412155,-0.047729492,-0.79904175,-0.29580688,0.55810547
1628,A,1138414703609899,0.8783417,-9.552277,0.1846466,-0.75405884,0.013092041,0.49235535
1628,A,1138414723751501,0.015914917,-8.892227,0.102371216,-0.5494995,0.025238037,-0.031951904
1628,A,1138414743893102,-1.0287781,-7.764435,0.20611572,-0.33389282,-0.10536194,-0.56111145
1628,A,1138414764034704,-1.4749146,-6.455658,-0.7867584,0.91548157,0.5695801,-1.0697021
1628,A,1138414784176305,-0.14706421,-7.304779,-1.5566559,1.9836273,0.45469666,-0.5770569
1628,A,1138414804317907,1.3362579,-8.820282,0.052963257,1.9303131,-0.23248291,-0.40400696
1628,A,1138414824459509,0.8416443,-9.739426,2.023758,1.7020111,0.12939453,-0.21504211
1628,A,1138414844601110,0.43865967,-9.899384,1.0581512,1.1813354,1.0542908,-0.083496094
1628,A,1138414864742712,1.8649597,-9.489365,-0.0897522,0.90982056,1.2073517,0.037017822
1628,A,1138414884884313,1.9229279,-9.243103,0.7951355,0.2756958,0.8929138,0.17378235
1628,A,1138414905025915,1.3895111,-9.351837,1.0624847,-0.56295776,0.48477173,0.22990417
1628,A,1138414925167516,1.1807861,-8.747986,0.5226288,-0.47766113,0.2721405,0.2432251
1628,A,1138414945309118,0.81640625,-8.419983,0.65063477,0.2910614,0.18875122,0.069122314
1628,A,1138414965450720,0.77604675,-8.417755,-0.21730042,0.37678528,-0.06939697,-0.16159058
1628,A,1138414985592321,1.0169525,-8.444962,-0.5389557,0.4744568,-0.009506226,0.1149292
1628,A,1138415005733923,1.6492615,-10.357895,-0.8317108,0.04084778,-0.6182251,0.2732849
1628,A,1138415025875524,1.8503113,-11.730469,-0.58776855,-0.9757385,-0.24624634,0.15786743
1628,A,1138415046017126,1.4434662,-10.821899,-0.68318176,-1.2047272,-0.44882202,0.12651062
1628,A,1138415066158727,1.0708466,-10.226166,-0.56185913,-1.5161438,-1.4626923,-0.029815674
1628,A,1138415086300329,3.0082397,-10.247208,-1.8791199,-1.5162811,-1.0546417,0.09628296
1628,A,1138415106441930,2.8302917,-13.488647,-1.4492188,-1.2528992,-0.502182,0.2545166
1628,A,1138415126583532,2.9004517,-14.570206,-1.6323547,-0.7052307,-0.43423462,0.39691162
1628,A,1138415146725134,2.0128937,-13.724701,-0.8432312,-0.67007446,-0.38560486,0.48783875
1628,A,1138415166866735,0.023452759,-11.302719,-0.9566345,-0.6858978,-0.13667297,0.3904724
1628,A,1138415187008337,-1.8874207,-9.6128845,-1.5289612,-0.49920654,0.29063416,-0.02709961
1628,A,1138415207149938,-3.4940186,-10.843185,-0.4090271,-0.25346375,0.17652893,-0.6858673
1628,A,1138415227291540,-2.584259,-13.32756,-1.1907806,1.107193,0.6591644,-1.2679291
1628,A,1138415247433141,-1.6516266,-12.743439,-1.8858337,2.180481,0.38360596,-0.68177795
1628,A,1138415267574743,-1.257843,-11.986496,-1.0960083,2.1049652,-0.3190155,-0.45204163
1628,A,1138415287716345,-1.108902,-10.713242,-1.3462524,1.7459869,0.24610901,-0.2195282
1628,A,1138415307857946,-1.1737823,-10.605408,-0.28485107,1.1141205,1.0041962,-0.0634613
1628,A,1138415327999548,-0.6682434,-10.5321045,-0.109802246,0.6928406,0.8967285,0.102493286
1628,A,1138415348141149,0.1304779,-9.82991,0.21400452,0.0060577393,0.8170471,0.3134308
1628,A,1138415368282751,0.42538452,-8.445938,0.031204224,-0.6821747,0.7023163,0.291687
1628,A,1138415388424352,0.2763214,-6.973053,0.11766052,-0.38983154,0.68603516,0.3182068
1628,A,1138415408565954,0.12902832,-6.100067,0.26600647,0.29452515,0.36561584,-0.00680542
1628,A,1138415428707555,-0.23902893,-6.016098,0.30296326,0.18333435,0.21147156,-0.1458435
1628,A,1138415448849157,-0.4784851,-6.322891,0.31913757,0.49913025,-0.17959595,0.34039307
1628,A,1138415468990759,-0.41603088,-6.4094086,0.388443,0.04751587,-1.0464325,0.2199707
1628,A,1138415489132360,-0.13645935,-5.530075,0.5744629,-0.99591064,-0.34423828,0.103759766
1628,A,1138415509273962,0.27444458,-4.8710175,1.1775665,-1.1778107,-0.7688751,0.032852173
1628,A,1138415529415563,0.8341675,-5.213745,1.7934265,-1.3896179,-1.686264,-0.1277008
1628,A,1138415549557165,0.8280487,-6.4258575,2.5995026,-1.2778015,-1.2000122,0.09162903
1628,A,1138415569698766,0.081832886,-9.154617,4.4882965,-1.1071472,-0.6018219,0.2736969
1628,A,1138415589840368,-0.0466156,-12.678909,6.274231,-0.77700806,-0.31176758,0.5519104
1628,A,1138415609981970,1.2205963,-13.970627,6.087616,-0.83032227,-0.18331909,0.67163086
1628,A,1138415630123571,1.585556,-12.379639,4.955887,-0.7666168,-0.16525269,0.5777283
1628,A,1138415650265173,0.48287964,-10.48262,5.2605133,-0.6217041,-0.032608032,0.13006592
1628,A,1138415670406774,-1.2074432,-11.743225,5.9424133,-0.356781,0.114974976,-0.5110626
1628,A,1138415690548376,-0.6399689,-16.559647,3.1320343,0.9481964,0.9553528,-1.207962
1628,A,1138415710689977,-0.25794983,-14.95517,-0.2392273,2.2121735,0.6073761,-0.74375916
1628,A,1138415730831579,-3.646637,-8.652878,0.055114746,2.0146332,-0.34176636,-0.448349
1628,A,1138415750973180,-3.9991608,-5.7627716,-0.26635742,1.7435608,0.47131348,-0.29104614
1628,A,1138415771114782,-2.6264038,-6.636963,-0.144104,1.2701721,1.7187347,-0.25842285
1628,A,1138415791256384,-0.28071594,-9.062225,-0.75723267,0.78027344,1.7568359,-0.142807
1628,A,1138415811397985,2.1677856,-10.584213,-2.766388,0.08830261,1.1508484,0.015426636
1628,A,1138415831539587,1.5170593,-10.308762,-1.759201,-0.5212555,0.7424927,0.03387451
1628,A,1138415851681188,0.9480591,-9.136688,0.14482117,-0.57588196,0.6669159,0.092285156
1628,A,1138415871822790,0.86221313,-9.06134,0.4214325,-7.019043E-4,0.7682495,-0.021469116
1628,A,1138415891964391,0.29196167,-9.009842,0.07247925,0.22325134,0.27870178,-0.10409546
1628,A,1138415912105993,-0.5288391,-8.2430725,0.04269409,0.65812683,-0.10908508,0.17404175
1628,A,1138415932247595,-1.4577332,-7.5582275,0.10858154,-0.12890625,-1.441864,0.13591003
1628,A,1138415952389196,-1.0492554,-8.025177,-0.4875641,-0.56373596,-0.78289795,0.22846985
1628,A,1138415972530798,0.053634644,-8.846573,-0.5504608,-1.0369873,-0.33171082,0.18640137
1628,A,1138415992672399,0.31419373,-8.979477,0.40820313,-1.3689117,-1.3934174,-0.089279175
1628,A,1138416012814001,0.538208,-8.9865265,1.2767487,-1.3360138,-1.4131012,0.08000183
1628,A,1138416032955602,1.5219269,-9.356918,0.81321716,-1.2227478,-1.0426941,0.2081604
1628,A,1138416053097204,1.9151917,-8.942169,0.41407776,-0.9772186,-0.78048706,0.39678955
1628,A,1138416073238805,1.2800751,-8.746567,0.61763,-0.76989746,-0.5183716,0.5385437
1628,A,1138416093380407,0.6154022,-9.110596,0.58348083,-0.82507324,-0.255188,0.6734772
1628,A,1138416113522009,0.16418457,-9.20491,0.9651184,-0.67352295,0.1477356,0.4434204
1628,A,1138416133663610,0.33042908,-8.77269,0.5745697,-0.48347473,0.19522095,-0.14738464
1628,A,1138416153805212,1.2433624,-8.3280945,0.11543274,0.39178467,0.57173157,-1.0975037
1628,A,1138416173946813,2.583023,-9.956528,-0.12080383,1.9307709,0.83361816,-1.0644836
1628,A,1138416194088415,2.518097,-11.366867,0.035995483,2.0786896,-0.3635254,-0.51586914
1628,A,1138416214230016,1.5569305,-11.190262,-0.07096863,1.9343109,0.03276062,-0.30680847
1628,A,1138416234371618,1.0622101,-10.527893,0.1043396,1.4815216,1.3448029,-0.18449402
1628,A,1138416254513220,2.1986694,-10.02771,-1.0962219,0.9507446,1.7072449,-0.10240173
1628,A,1138416274654821,3.52063,-13.214386,-0.20736694,0.4079895,1.1222839,0.18925476
1628,A,1138416294796423,3.9450836,-13.299789,-0.9699707,-0.44973755,0.8798981,0.16807556
1628,A,1138416314938024,3.1349182,-12.764999,0.31671143,-0.4612732,0.41488647,0.06442261
1628,A,1138416335079626,0.9486542,-9.976181,-1.2614746,-0.010406494,0.5098877,0.15727234
1628,A,1138416355221227,-1.7313995,-9.368149,-1.3137054,0.3852539,-0.084991455,-0.116500854
1628,A,1138416375362829,-3.3536682,-14.046982,-1.1492767,0.52944946,-0.2901001,0.18037415
1628,A,1138416395504430,-1.6516876,-14.38559,-2.0999603,0.011199951,-0.91993713,0.2791748
1628,A,1138416415646032,-1.7576904,-13.735397,-0.49147034,-0.8946228,-0.30827332,0.07333374
1628,A,1138416435787634,-0.5618286,-12.173691,-0.9976959,-1.1800232,-0.22770691,0.029663086
1628,A,1138416455929235,0.039596558,-11.31575,0.16262817,-1.4679718,-1.5190887,-0.14666748
1628,A,1138416476070837,0.48866272,-10.671814,-0.1274414,-1.3576202,-1.3914795,0.088378906
1628,A,1138416496212438,0.5566559,-9.8276825,0.2993164,-1.1495056,-0.7848511,0.3180542
1628,A,1138416516354040,0.5977173,-8.736313,-0.040390015,-0.83384705,-0.45335388,0.530838
1628,A,1138416536495641,0.96217346,-7.348114,-0.58506775,-0.70407104,-0.5895691,0.5990753
1628,A,1138416556637243,0.12553406,-5.5554657,-6.866455E-4,-0.76387024,-0.29426575,0.47973633
1628,A,1138416576778845,-0.10328674,-4.8461,0.2619171,-0.65411377,0.13171387,0.02822876
1628,A,1138416596920446,-0.4248352,-5.145294,-0.34602356,-0.3748932,0.28007507,-0.5558014
1628,A,1138416617062048,-0.033065796,-6.2832184,0.4038391,0.9426117,0.7553406,-1.2578735
1628,A,1138416637203649,0.3496399,-7.103714,0.87716675,2.1316223,0.4857483,-0.7270813
1628,A,1138416657345251,0.7193451,-6.378662,1.144516,2.0340576,-0.42791748,-0.49510193
1628,A,1138416677486852,1.216217,-6.223114,1.6284332,1.7153778,0.21871948,-0.26028442
1628,A,1138416697628454,0.9668884,-6.5545654,2.6773987,1.2409515,1.4125366,-0.06530762
1628,A,1138416717770055,0.27792358,-8.233276,3.89888,0.8310547,1.2303772,-0.027511597
1628,A,1138416737911657,-0.07258606,-10.941101,5.7943115,0.13616943,0.8612213,0.19654846
1628,A,1138416758053259,1.408371,-12.667389,6.2629395,-0.5505829,0.6308441,0.19528198
1628,A,1138416778194860,1.7410736,-12.844467,4.3832703,-0.5259094,0.39076233,0.19699097
1628,A,1138416798336462,0.35494995,-11.995621,4.620926,0.19969177,0.46020508,0.061782837
1628,A,1138416818478063,-1.1645966,-13.655609,6.158615,0.4404602,0.22784424,-0.17514038
1628,A,1138416838619665,0.65519714,-17.606674,0.9447479,0.45718384,-0.09567261,-0.011734009
1628,A,1138416858761266,-1.0817108,-11.040649,-2.3296661,0.011627197,-0.68167114,0.2363739
1628,A,1138416878902868,-4.8473053,-5.237549,0.96784973,-0.8690491,-0.3966217,0.33050537
1628,A,1138416899044470,-3.2548218,-4.6670227,0.09300232,-1.278717,-0.6326599,0.094833374
1628,A,1138416919186071,-1.7227783,-6.8370667,0.55870056,-1.4248505,-1.6931152,-0.11703491
1628,A,1138416939327673,1.9480133,-10.800034,-2.4466858,-1.2949524,-1.4477844,-0.00541687
1628,A,1138416959469274,2.5507507,-12.571762,-1.6913757,-0.9842682,-0.62846375,0.1301117
1628,A,1138416979610876,0.69343567,-9.674957,0.48353577,-0.6698761,-0.26789856,0.3413086
1628,A,1138416999752477,0.36575317,-8.1974945,1.4506378,-0.7393646,-0.20788574,0.5678253
1628,A,1138417019894079,-0.030883789,-8.498291,0.8867645,-0.6743927,-0.23309326,0.6529236
1628,A,1138417040035680,-0.17382813,-8.4492035,-0.20030212,-0.70944214,-0.22114563,0.22264099
1628,A,1138417060177282,-0.5241089,-8.010117,-0.14399719,-0.7268524,-0.18499756,-0.29171753
1628,A,1138417080318884,-0.6056366,-8.007156,-0.19169617,0.30778503,0.4773407,-0.9552002
1628,A,1138417100460485,0.062805176,-8.709473,-0.6824188,1.6998444,0.8251648,-0.80200195
1628,A,1138417120602087,0.3052063,-8.931625,-0.4060974,2.1717224,-0.4042511,-0.46461487
1628,A,1138417140743688,-0.5906677,-8.719131,-0.47633362,1.7671204,-0.26898193,-0.31793213
1628,A,1138417160885290,-0.4701538,-8.839859,-0.6068573,1.4304047,1.1043854,-0.12013245
1628,A,1138417181026891,0.24763489,-9.402191,0.21743774,0.9698334,1.6574097,-0.0036315918
1628,A,1138417201168493,0.41874695,-9.719162,0.66944885,0.33291626,1.2632599,0.12512207
1628,A,1138417221310095,0.10041809,-9.705124,0.4992218,-0.5467682,0.85105896,0.21543884
1628,A,1138417241451696,0.048431396,-9.71376,0.64834595,-0.7480011,0.17044067,0.08944702
1628,A,1138417261593298,0.7111511,-9.444885,0.9833679,-0.038024902,0.43077087,0.11553955
1628,A,1138417281734899,1.8006744,-9.095474,0.77523804,0.7274475,0.012481689,-0.18521118
1628,A,1138417301876501,2.5244598,-9.58345,0.22817993,0.82754517,0.007827759,-0.0033111572
1628,A,1138417322018102,3.0327606,-9.916168,-0.27153015,-0.11653137,-1.1977997,0.016983032
1628,A,1138417342159704,3.091751,-9.724609,-0.13415527,-0.47695923,-0.9138794,0.46472168
1628,A,1138417362301305,2.431717,-9.62854,-0.02178955,-1.1378937,0.0466156,0.36116028
1628,A,1138417382442907,2.4510803,-10.624115,-0.76568604,-1.4676208,-0.8484955,0.053619385
1628,A,1138417402584509,2.5332031,-13.38681,-1.4447174,-1.4615784,-0.8475189,0.10646057
1628,A,1138417422726110,2.163391,-14.15947,-1.0346985,-1.3192749,-0.71572876,0.10002136
1628,A,1138417442867712,1.3541107,-12.170929,-0.7161102,-0.87072754,-0.47616577,0.3134613
1628,A,1138417463009313,-0.93722534,-9.88382,-0.6996918,-0.8063202,-0.23373413,0.49543762
1628,A,1138417483150915,-2.977707,-10.549042,-0.43736267,-0.7714386,-0.31173706,0.5622406
1628,A,1138417503292516,-2.634903,-13.566986,-1.923645,-0.72010803,-0.105529785,0.2520752
1628,A,1138417523434118,-1.7914429,-13.965363,-1.7439575,-0.605011,-0.34394836,-0.26690674
1628,A,1138417543575720,-1.5955963,-13.738861,-0.09780884,0.22209167,-0.27030945,-0.88079834
1628,A,1138417563717321,-1.0670471,-13.048172,-0.3915863,1.7824249,0.70402527,-1.204071
1628,A,1138417583858923,-0.30471802,-11.70137,0.10220337,2.236267,-0.5886688,-0.66345215
1628,A,1138417604000524,0.118377686,-10.436386,0.116104126,1.9690094,-0.56004333,-0.33006287
1628,A,1138417624142126,0.33119202,-9.299179,0.13418579,1.7421417,0.9249878,-0.29486084
1628,A,1138417644283727,0.6971283,-7.9035645,0.3423462,1.110733,1.7494965,-0.17422485
1628,A,1138417664425329,0.82266235,-6.4937897,0.18507385,0.3799591,0.9210663,-0.0082092285
1628,A,1138417684566930,0.3851471,-5.5240784,0.20184326,-0.41529846,0.69573975,0.15122986
1628,A,1138417704708532,-0.4169922,-5.780548,0.17781067,-0.64915466,0.51667786,0.055740356
1628,A,1138417724850134,-1.0900269,-6.31221,0.15226746,-0.08909607,0.9541168,0.10197449
1628,A,1138417744991735,-0.8513794,-6.319931,-0.030288696,0.2412262,0.47225952,-0.2587738
1628,A,1138417765133337,0.039230347,-5.9667053,0.36427307,0.46217346,0.38485718,0.04827881
1628,A,1138417785274938,0.92022705,-5.520813,0.94836426,-0.004501343,-0.58898926,0.17829895
1628,A,1138417805416540,1.2230072,-5.6243744,1.643692,-0.4207306,-0.38616943,0.49827576
1628,A,1138417825558141,0.97262573,-6.04068,3.1234436,-1.3195343,0.24885559,0.40304565
1628,A,1138417845699743,0.7620239,-8.8124695,3.9800568,-1.5709229,-0.55348206,0.14811707
1628,A,1138417865841345,0.685379,-11.6545105,5.6738434,-1.6743774,-0.47377014,0.17823792
1628,A,1138417885982946,1.1576996,-12.553909,5.8874207,-1.1347961,-0.67626953,0.11228943
1628,A,1138417906124548,0.7581482,-12.405624,4.2043457,-0.7390747,-0.18676758,0.18017578
1628,A,1138417926266149,0.3254547,-11.430008,4.17659,-0.7167816,-0.017318726,0.16644287
1628,A,1138417946407751,0.45706177,-10.058228,5.8121185,-0.7805481,-0.24493408,0.26741028
1628,A,1138417966549352,-1.3001404,-14.214157,5.4101257,-0.73716736,-0.29089355,0.26184082
1628,A,1138417986690954,1.1656036,-18.01088,-1.1947937,-0.69143677,-0.13963318,-0.11437988
1628,A,1138418006832555,-4.3012695,-10.5456085,-0.89782715,0.032165527,0.2233429,-0.9549103
1628,A,1138418026974157,-7.085251,-6.080185,0.8029175,1.4280853,0.43203735,-0.9818878
1628,A,1138418047115759,-2.7851868,-4.6041107,-0.39305115,2.2898407,-0.2236023,-0.38708496
1628,A,1138418067257360,-0.2711792,-7.514023,-0.8705597,2.0290375,-0.27296448,-0.29847717
1628,A,1138418087398962,1.8487091,-10.913147,-1.9456177,1.6271667,0.38278198,-0.13131714
1628,A,1138418107540563,2.2053375,-11.274429,-1.6379395,1.1703033,1.1584778,-0.11254883
1628,A,1138418127682165,0.57221985,-9.685822,0.19706726,0.78022766,1.0941772,0.086639404
1628,A,1138418147809893,-0.10900879,-8.737961,1.1974945,-0.06594849,0.73887634,0.12850952
1628,A,1138418167951495,0.41856384,-8.539581,-0.11694336,-0.6626892,0.62249756,0.10231018
1628,A,1138418188093097,-0.06518555,-8.424576,-0.50727844,-0.3343048,0.62358093,0.08453369
1628,A,1138418208234698,-0.2889099,-7.6558685,-0.25515747,0.56407166,0.34823608,-0.11300659
1628,A,1138418228376300,-0.9795685,-8.118118,-0.01637268,0.6633606,0.16426086,-0.08355713
1628,A,1138418248517901,-0.03276062,-8.933853,-0.7696228,0.23547363,-0.62220764,-0.17202759
1628,A,1138418268659503,-0.21018982,-9.54332,0.12580872,-0.2903595,-0.90237427,0.40527344
1628,A,1138418288801104,-0.50024414,-9.445541,0.12843323,-1.0359192,-0.20005798,0.32765198
1628,A,1138418308942706,0.07589722,-9.123825,0.03730774,-1.2825012,-0.7332001,0.09461975
1628,A,1138418329084307,0.4690857,-9.101547,0.59555054,-1.5052032,-1.2998505,-0.01713562
1628,A,1138418349225909,0.9013214,-9.308914,0.7334442,-1.3679504,-1.0040283,0.12942505
1628,A,1138418369367511,1.020752,-9.088684,0.7506561,-1.1202393,-0.63964844,0.28440857
1628,A,1138418389509112,1.2781982,-8.872696,1.2749023,-0.6917572,-0.45243835,0.41046143
1628,A,1138418409650714,2.5568848,-9.044968,1.3279114,-0.7070465,-0.25854492,0.5175934
1628,A,1138418429792315,3.475891,-9.188675,1.2380829,-0.6767731,-0.2001648,0.36357117
1628,A,1138418449933917,3.7689972,-9.590881,0.6152649,-0.5914459,-0.11631775,-0.15597534
1628,A,1138418470075518,3.4617462,-10.115921,-0.1129303,-0.029083252,0.06575012,-0.89001465
1628,A,1138418490217120,1.6116943,-10.103012,-0.3341217,1.3391266,0.8076019,-1.1846924
1628,A,1138418510358722,0.17419434,-10.315796,-0.31077576,2.0484924,0.06616211,-0.58044434
1628,A,1138418530500323,0.26948547,-10.842834,-1.3109436,2.182953,0.021011353,-0.40707397
1628,A,1138418550641925,1.8361511,-12.819351,-1.7074127,1.6528473,0.40194702,-0.09527588
1628,A,1138418570783526,2.4838715,-13.366913,-2.163437,1.0231934,0.7810974,-0.19927979
1628,A,1138418590925128,1.90625,-11.372513,-0.87402344,0.59840393,0.7734375,-0.006652832
1628,A,1138418611066729,-1.539917,-10.71994,-1.1532898,-0.08622742,0.77534485,0.43701172
1628,A,1138418631208331,-3.7294617,-14.69133,-1.070755,-0.556839,0.46710205,0.34222412
1628,A,1138418651349932,-2.8310242,-15.325195,-2.9465027,-0.20593262,0.8866577,0.36317444
1628,A,1138418671491534,-2.323227,-14.009155,-0.75253296,0.38023376,0.2818451,-0.2583313
1628,A,1138418691633136,-0.5676575,-13.238129,-0.37773132,0.4640808,0.18295288,-0.13160706
1628,A,1138418711774737,0.996048,-11.3706665,-0.71824646,0.04321289,-0.40841675,0.035858154
1628,A,1138418731916339,0.91400146,-9.862061,0.24440002,-0.29031372,-0.68536377,0.41220093
1628,A,1138418752057940,-0.57910156,-9.1293335,-0.29489136,-1.1771698,0.11456299,0.21505737
1628,A,1138418772199542,-1.0606842,-8.6497345,-0.49594116,-1.5825958,-1.0259552,-0.322052
1628,A,1138418792341143,-0.5944519,-7.662842,-1.1681213,-1.3754425,-0.95581055,0.05973816
1628,A,1138418812482745,-0.32356262,-6.2472076,-1.5189514,-1.3066864,-0.6925659,0.19714355
1628,A,1138418832624347,-0.1262207,-4.975296,-1.1472473,-1.0788727,-0.3575287,0.37670898
1628,A,1138418852765948,-0.10848999,-5.069351,-0.6517639,-0.80293274,-0.3400116,0.53848267
1628,A,1138418872907550,-0.8082886,-5.8783875,-0.5169983,-0.7268219,-0.19413757,0.5419769
1628,A,1138418893049151,-1.04599,-5.94191,0.03503418,-0.7493439,0.1910553,0.17593384
1628,A,1138418913190753,-0.78674316,-5.899948,0.98750305,-0.61398315,0.0053863525,-0.23155212
1628,A,1138418933332354,-0.30215454,-6.4181976,1.7766113,0.21833801,0.1356659,-0.85450745
1628,A,1138418953473956,0.09350586,-6.8413696,2.8086853,1.8630371,0.8197632,-1.1184387
1628,A,1138418973615557,-0.43019104,-8.335861,4.7332306,2.1884155,-0.12878418,-0.46063232
1628,A,1138418993757159,-0.69532776,-11.98764,6.4996796,2.0847626,-0.27511597,-0.276062
1628,A,1138419013898761,0.97257996,-13.750458,6.6632385,1.6377258,0.82196045,-0.0050964355
1628,A,1138419034040362,2.3191528,-12.382263,5.8484344,1.003006,1.184021,-0.031143188
1628,A,1138419054181964,1.7623138,-9.000015,5.09169,0.5467224,0.86756897,0.09086609
1628,A,1138419074323565,0.34951782,-7.664276,7.1917267,-0.24458313,0.725235,0.25979614
1628,A,1138419094465167,-1.1243591,-14.531021,3.3245544,-0.5130615,0.4237671,0.16635132
1628,A,1138419114606768,-3.432129,-19.152084,-1.9598236,-0.042800903,0.7810364,0.24821472
1628,A,1138419134748370,-5.0799255,-12.123489,0.1816864,0.4079895,0.09599304,-0.25164795
1628,A,1138419154889972,-2.452942,-6.446106,-0.12721252,0.40838623,0.28915405,0.019195557
1628,A,1138419175031573,0.015609741,-6.253479,-1.2817535,0.23721313,-0.54278564,0.27886963
1628,A,1138419195173175,1.7971954,-6.992447,-2.4234924,-0.53822327,-0.87908936,0.14762878
1628,A,1138419215314776,1.5058136,-9.760727,-2.022461,-1.242279,-0.11727905,0.103378296
1628,A,1138419235456378,0.53305054,-11.661087,-0.7511444,-1.4715729,-1.0814667,-0.09689331
1628,A,1138419255597979,-0.59428406,-11.520828,-0.7272949,-1.4536743,-0.9496155,0.019454956
1628,A,1138419275739581,-1.4357147,-9.990387,-0.87298584,-1.3193817,-0.61943054,0.23756409
1628,A,1138419295881182,-2.686737,-8.990112,-1.1119232,-1.0679626,-0.45552063,0.4515381
1628,A,1138419316022784,-2.2276611,-7.410034,-1.459259,-0.77256775,-0.48835754,0.6371155
1628,A,1138419336164386,-2.0921326,-6.3989716,-0.7591553,-0.71965027,-0.16410828,0.5811157
1628,A,1138419356305987,-1.3221893,-7.285187,-1.4523468,-0.64341736,0.23078918,0.18937683
1628,A,1138419376447589,0.429245,-9.024628,-0.6434479,-0.563385,0.03904724,-0.26023865
1628,A,1138419396589190,0.72994995,-9.901093,-0.3186493,0.34455872,0.301651,-1.0233612
1628,A,1138419416730792,1.0458832,-9.454422,-0.65567017,1.7716522,0.6707306,-0.891449
1628,A,1138419436872393,1.1534882,-9.10173,0.18609619,2.0748901,-0.2718048,-0.47206116
1628,A,1138419457013995,1.2343292,-9.381348,1.0803375,1.8011932,-0.05116272,-0.33976746
1628,A,1138419477155597,1.5541229,-9.13504,0.67155457,1.4074554,1.0666046,-0.21276855
1628,A,1138419497297198,1.1608887,-8.921036,1.1505432,1.0390015,1.6113281,-0.24446106
