Subject-Id,Activity Label,Time stamp,Accel_x,Accel_y,Accel_z,Gyro_x,Gyro_y,Gyro_z
1625,A,707355716103806,-11.082596,-0.957016,-0.6021576,0.40361023,1.2955933,0.23588562
1625,A,707355736245407,-11.443451,-1.052475,-0.7533417,0.454422,1.0104218,0.4543152
1625,A,707355756387009,-11.586105,-0.8895111,-1.5395508,-0.037490845,0.7585602,-0.13156128
1625,A,707355776528610,-11.52446,0.5474396,-1.8071747,-0.17111206,0.5457611,-0.58065796
1625,A,707355796670212,-12.226578,1.2627716,-1.3973694,-0.076034546,0.38868713,-0.6712036
1625,A,707355816811814,-12.643143,-0.13642883,-1.7543793,-0.013381958,0.35139465,-0.27264404
1625,A,707355836953415,-12.83934,-1.7848511,-2.5829315,-0.07739258,0.45083618,0.18589783
1625,A,707355857095017,-12.750961,-3.3648987,-3.2244415,-0.20567322,0.0975647,0.622879
1625,A,707355877236618,-11.812805,-4.635788,-4.532608,0.09133911,-1.0879822,0.66459656
1625,A,707355897378220,-10.160461,-5.638077,-4.1852264,0.5885315,-1.7570953,0.24380493
1625,A,707355917519821,-9.608582,-7.897949,-0.20672607,-0.094940186,-2.0368042,0.34710693
1625,A,707355937661423,-10.7400055,-10.485931,1.036499,-1.3321991,-2.285324,0.34736633
1625,A,707355957803025,-11.244186,-10.663483,-1.4806824,-1.1359558,-1.4990082,0.0041503906
1625,A,707355977944626,-12.177078,-7.4709625,-2.2704315,-0.941391,-0.5455017,-0.02558899
1625,A,707355998086228,-13.21254,-3.1963348,-2.264862,-1.0030823,0.49816895,0.17616272
1625,A,707356018227829,-12.363113,0.1656189,-2.7998962,-0.6456909,0.4320221,0.20089722
1625,A,707356038369431,-9.747025,1.7124634,-3.1952972,-1.1455383,-1.0019684,0.37471008
1625,A,707356058511032,-7.560974,1.0798798,-3.408554,-0.8082733,-0.8231354,-0.49053955
1625,A,707356078652634,-5.621567,-0.6051636,-1.0499573,0.2955475,0.31854248,-0.16993713
1625,A,707356098794235,-3.9794006,-1.9340973,2.3600464,0.79289246,1.2301941,0.047210693
1625,A,707356118935837,-3.628662,-3.0690308,3.419571,0.6146698,1.213211,-0.4413147
1625,A,707356139077439,-5.0026855,-3.6185913,2.7602081,0.66563416,1.5071411,0.13026428
1625,A,707356159219040,-6.147583,-3.5187378,2.4860382,0.73202515,1.3769684,0.32174683
1625,A,707356179360642,-6.190674,-2.9734955,2.050232,0.5882416,1.244751,-0.08013916
1625,A,707356199502243,-5.6504974,-2.1655731,1.6317749,0.1798706,1.0436249,-0.291214
1625,A,707356219643845,-5.62059,-1.2230835,1.6425781,-0.020492554,0.42965698,-0.44403076
1625,A,707356239785446,-6.3232574,-0.087371826,2.608139,-0.13240051,0.2841034,-0.5654907
1625,A,707356259927048,-8.003906,0.37709045,3.435852,-0.029693604,0.41519165,-0.30456543
1625,A,707356280068650,-10.214767,0.1730957,3.4307861,-0.28862,0.5077057,0.26611328
1625,A,707356300210251,-13.032776,-1.4328461,2.8506927,-0.46614075,-0.039535522,0.5081024
1625,A,707356320351853,-15.907455,-3.0371246,3.058014,-0.5973511,-1.13974,0.748291
1625,A,707356340493454,-15.427841,-4.1410217,4.1547394,0.1550293,-1.5566864,0.31643677
1625,A,707356360635056,-11.124954,-3.566513,5.0475006,-0.33520508,-2.1540527,0.09825134
1625,A,707356380776657,-7.7530212,-1.9098511,5.638977,-1.6859894,-2.5820923,-0.06161499
1625,A,707356400918259,-8.617508,-1.9808044,4.403702,-1.0855408,-1.6760254,-0.035064697
1625,A,707356421059860,-10.616425,-4.441513,0.85150146,-0.5325165,-0.3579712,0.03994751
1625,A,707356441201462,-14.731232,-9.038986,-1.3012695,-0.37376404,0.62384033,0.045150757
1625,A,707356461343064,-14.464981,-7.1808624,-0.70399475,0.10839844,0.44589233,0.11979675
1625,A,707356481484665,-6.0261536,-1.8453369,-1.0725403,-0.2548828,-0.6096649,0.18130493
1625,A,707356501626267,-2.9175873,-1.5693359,-1.8570709,0.506897,-0.26313782,-0.19561768
1625,A,707356521767868,-7.398224,0.02355957,-1.4934845,0.9607239,0.69589233,-0.26138306
1625,A,707356541909470,-10.511429,-1.8343201,-1.9682312,0.37013245,0.8858032,-0.2373352
1625,A,707356562051071,-8.791458,-2.402481,0.82102966,0.38926697,1.5331421,-0.62809753
1625,A,707356582192673,-9.130844,-2.5233765,0.24885559,0.16622925,1.4059143,0.09780884
1625,A,707356602334275,-10.991074,-2.6408386,-2.5415497,0.15545654,1.2793427,0.5863342
1625,A,707356622475876,-12.853928,-2.843933,-1.6988373,-0.20925903,0.6970062,-0.0927124
1625,A,707356642617478,-9.77977,-2.436142,0.18717957,-0.059005737,0.13378906,-0.50723267
1625,A,707356662759079,-7.1098022,-1.4040222,-0.7695465,0.34402466,0.1875,-0.82214355
1625,A,707356682900681,-6.996109,-0.57406616,-1.5224152,0.2892151,0.45788574,-0.61834717
1625,A,707356703042282,-7.8041687,-0.6663666,-2.439743,0.22041321,0.7596283,0.32284546
1625,A,707356723183884,-8.216843,-0.83473206,-1.5547333,0.2142334,0.59213257,-0.11793518
1625,A,707356743325485,-7.9353943,-0.8583832,-0.77845764,-0.3695526,-0.76727295,-0.99121094
1625,A,707356763467087,-8.332962,-1.0289459,-0.283432,1.3168182,-1.196579,-0.17066956
1625,A,707356783608689,-8.857162,-1.1885529,-0.8686676,0.069366455,-1.0779877,0.08453369
1625,A,707356803750290,-9.459671,-1.908905,-0.37768555,-1.1850433,-2.1141205,-0.22894287
1625,A,707356823891892,-9.734482,-1.4696045,-0.42993164,-0.9741516,-1.31427,0.10006714
1625,A,707356844033493,-11.08284,-1.3740387,-0.3528595,-0.3323822,-0.7485657,0.07267761
1625,A,707356864175095,-11.545731,-1.9247437,-0.9169922,-0.25509644,0.20301819,0.052490234
1625,A,707356884316696,-11.328415,-1.151825,-1.5174408,-0.14031982,0.5800171,0.16011047
1625,A,707356904458298,-12.149124,0.95355225,-1.7296906,-0.318985,-0.4684143,0.3768463
1625,A,707356924599900,-12.729553,-0.04273987,-1.7796783,-0.4487152,-0.8103943,0.39434814
1625,A,707356944741501,-13.114563,-2.4142914,-3.0082397,-0.61631775,-0.96195984,-0.11541748
1625,A,707356964883103,-13.473755,-3.6793823,-3.6026459,-0.36047363,0.3476715,0.18338013
1625,A,707356985024704,-12.298981,-4.2638702,-3.8751678,-0.28511047,0.45687866,0.06607056
1625,A,707357005166306,-9.819443,-6.139023,-2.0231323,-0.7212372,0.8977661,-0.040100098
1625,A,707357025307907,-10.794998,-7.651947,-0.0046691895,-0.20095825,0.9842224,0.40563965
1625,A,707357045449509,-11.446762,-9.818863,0.7414093,0.5628357,1.2236023,0.5267792
1625,A,707357065591110,-11.320648,-8.283981,-2.223526,0.7836151,1.2439728,0.2846985
1625,A,707357085732712,-12.673462,-5.311493,-2.7908783,0.339386,0.6204376,-0.30706787
1625,A,707357105874314,-13.903442,-3.0685577,0.36723328,0.8058777,0.7089386,-0.29927063
1625,A,707357126015915,-12.204269,-1.8062286,-0.9290314,0.79592896,0.50042725,-0.15562439
1625,A,707357146157517,-9.546646,-0.585907,-2.9074554,0.41305542,0.70581055,0.061416626
1625,A,707357166299118,-7.313675,-0.88150024,-1.3899078,0.13349915,0.72857666,0.35142517
1625,A,707357186440720,-3.9279938,-1.5155182,1.659378,-0.6093445,-0.46646118,0.44836426
1625,A,707357206582321,-2.6460114,-1.255539,1.9078522,0.561615,-1.4588928,0.076797485
1625,A,707357226723923,-3.9884949,-0.73298645,1.6066132,0.70314026,-1.1749725,0.0521698
1625,A,707357246856658,-4.719162,-0.83403015,1.3392639,-0.33171082,-1.89711,-0.23431396
1625,A,707357266998259,-4.9101257,-0.7496643,1.4952087,-0.18177795,-1.4031525,-0.025543213
1625,A,707357287139861,-4.988373,-0.7388153,1.4226379,0.18489075,-0.48202515,-0.0435791
1625,A,707357307281462,-5.3007813,-0.7494507,1.3596344,-0.18501282,0.25386047,-0.18423462
1625,A,707357327423064,-6.092926,-0.86231995,2.8893585,-0.25538635,0.3624115,0.028503418
1625,A,707357347564665,-7.56958,-1.1094055,4.5839996,-0.425354,-0.42684937,0.13723755
1625,A,707357367706267,-10.104431,-2.0721436,4.267914,-0.48381042,-0.57839966,0.043304443
1625,A,707357387847868,-13.546555,-3.8895264,2.765152,0.3965912,0.43145752,-0.27246094
1625,A,707357407989470,-16.703949,-5.286026,1.9927368,0.3872223,0.6993561,-0.0036621094
1625,A,707357428131072,-16.408936,-5.2222443,3.9369812,-0.07322693,0.92555237,-0.34358215
1625,A,707357448272673,-9.549072,-4.230118,7.368164,-0.21003723,0.9994354,0.14916992
1625,A,707357468414275,-5.541275,-4.325577,7.5428925,0.0027008057,0.9853363,0.60098267
1625,A,707357488555876,-8.210297,-5.0198975,4.676544,0.2855072,1.0379944,0.28086853
1625,A,707357508697478,-12.163513,-4.929779,0.5839081,0.13587952,0.91012573,-0.25811768
1625,A,707357528839079,-14.954529,-5.98999,-0.66703796,0.27781677,0.42036438,-0.66012573
1625,A,707357548980681,-11.740753,-5.1557007,0.37872314,0.62153625,0.3244629,-0.30493164
1625,A,707357569122283,-6.8566895,-2.4035492,-0.83218384,0.18058777,0.5235748,0.23016357
1625,A,707357589263884,-6.2054596,-1.3379211,-2.3147888,-0.5514221,0.12007141,0.5212097
1625,A,707357609405486,-8.271072,-1.4148865,-2.0680847,-1.0445404,-1.3798065,0.24319458
1625,A,707357629547087,-8.392273,-2.558136,-1.2363129,1.2650299,-1.2803802,0.24261475
1625,A,707357649688689,-7.949539,-2.5163422,-0.9931946,0.23062134,-1.3821869,0.01979065
1625,A,707357669830290,-10.869919,-2.645691,-1.9922333,-1.343811,-2.2057648,0.0074310303
1625,A,707357689971892,-11.859299,-2.7899017,-1.1546326,-0.96580505,-1.3277435,-0.41584778
1625,A,707357710113493,-8.118652,-2.5719452,-0.8276825,-0.6040802,-0.44273376,-0.11128235
1625,A,707357730255095,-6.083969,-2.403061,-1.6913452,-0.53211975,0.41015625,0.11268616
1625,A,707357750396697,-7.6859436,-1.7064362,-1.3698883,-0.48454285,0.26927185,0.3960724
1625,A,707357770538298,-8.663635,-1.1142883,-0.93162537,-0.68803406,-1.0070648,0.23849487
1625,A,707357790679900,-8.359375,-1.3903809,-1.1827087,-0.49215698,-0.5533905,-0.10417175
1625,A,707357810821501,-8.444397,-1.5328522,-1.541153,0.18856812,0.95710754,-0.23738098
1625,A,707357830963103,-8.3684845,-1.027298,-1.282608,0.50875854,0.5406189,-0.18754578
1625,A,707357851104704,-9.362396,-0.39863586,-0.49917603,0.5466156,1.2809143,-0.18032837
1625,A,707357871246306,-10.114761,0.05697632,-0.3551941,0.38801575,1.316803,0.63700867
1625,A,707357891387908,-10.059418,0.068115234,-0.7159729,0.6217346,1.2311859,0.3718109
1625,A,707357911529509,-10.26738,-0.63549805,-0.52856445,0.3977661,1.1164703,-0.042770386
1625,A,707357931671111,-10.5394745,-1.9873962,-0.5543213,0.27278137,0.81100464,-0.484375
1625,A,707357951812712,-10.200928,-2.426773,-0.99635315,0.7879944,0.43495178,-0.6656647
1625,A,707357971954314,-10.472733,-0.6916504,-0.9676361,0.60617065,0.4453888,-0.02331543
1625,A,707357992095915,-11.713684,0.9693146,-1.3339996,-0.35714722,0.49726868,0.5881195
1625,A,707358012237517,-13.376923,0.8616333,-2.4191742,-0.90878296,-0.51911926,0.43859863
1625,A,707358032379118,-13.3354645,-0.8078308,-2.4675598,0.5410156,-1.520462,0.34545898
1625,A,707358052520720,-12.775345,-2.281189,-2.6035614,0.29312134,-1.470581,-0.06965637
1625,A,707358072662322,-12.215759,-2.83815,-3.1882477,-0.92578125,-2.0656433,-0.10417175
1625,A,707358092803923,-11.517212,-3.5412445,-5.900116,-1.122055,-1.9819794,0.011505127
1625,A,707358112945525,-9.889526,-3.4356232,-4.5499115,-0.67362976,-0.85173035,-0.13201904
1625,A,707358133087126,-10.538712,-7.2912903,0.09953308,-0.5840759,0.1724701,0.0022583008
1625,A,707358153228728,-11.706787,-10.893326,1.2710266,-0.2311554,0.6651459,0.18933105
1625,A,707358173370329,-10.690308,-9.522827,-2.787384,-0.41822815,-0.5114136,0.2218628
1625,A,707358193511931,-11.573471,-6.2950897,-2.7871246,-0.5392761,-0.82325745,-0.066970825
1625,A,707358213653533,-11.854004,-2.1919556,-1.6567535,0.24816895,0.45115662,-0.21911621
1625,A,707358233795134,-11.185028,0.060897827,-1.3969269,0.36946106,0.6179352,-0.0020446777
1625,A,707358253936736,-9.425903,-0.20428467,-2.9367676,0.290802,0.8655853,-0.23791504
1625,A,707358274078337,-7.796692,-2.2352142,-3.9602814,0.2833557,1.3803406,0.3740692
1625,A,707358294219939,-5.2342987,-2.68396,-1.1313782,0.580719,1.3598785,0.4936676
1625,A,707358314361540,-3.469101,-2.8972626,3.3101654,0.5722046,1.1116791,0.09666443
1625,A,707358334503142,-4.4858856,-3.1655273,3.804535,0.3106537,0.9684143,-0.4158783
1625,A,707358354644743,-5.866455,-3.5450287,2.734726,0.39990234,0.46243286,-0.749176
1625,A,707358374786345,-5.9259644,-3.0197144,1.5813599,0.37548828,0.348526,-0.2516327
1625,A,707358394927947,-5.3198853,-2.1101532,1.5175934,-0.09124756,0.59747314,0.3025055
1625,A,707358415069548,-5.4642334,-1.7192383,2.2991028,-0.3913269,0.2682495,0.6258087
1625,A,707358435211150,-6.020767,-1.1003265,3.479248,-0.45391846,-1.2397766,0.6307831
1625,A,707358455352751,-7.7255554,-0.84173584,4.6525116,1.3632507,-1.4325256,0.42544556
1625,A,707358475494353,-9.1562195,-1.2113953,5.4269104,0.39959717,-1.4516144,-0.11186218
1625,A,707358495635954,-11.554123,-3.327896,2.8092194,-1.1891327,-2.1364746,-0.005722046
1625,A,707358515777556,-15.5334015,-4.9440613,2.4081573,-1.0155945,-1.4619751,-0.28977966
1625,A,707358535919158,-16.52797,-6.743393,5.7269745,-0.4784088,-0.39764404,-0.13768005
1625,A,707358556060759,-11.044312,-5.4167633,4.999588,-0.61502075,0.4831848,0.04270935
1625,A,707358576202361,-8.699051,-3.1942444,6.611725,-0.3234558,0.29856873,0.33258057
1625,A,707358596343962,-7.7453156,-3.427246,3.4328003,-0.72032166,-0.72914124,0.21884155
1625,A,707358616485564,-10.079483,-5.2711945,-3.596756,-0.4243164,-0.5138397,-0.5087433
1625,A,707358636627165,-15.318695,-9.18306,-2.786972,0.7182007,0.7388611,-0.31333923
1625,A,707358656768767,-10.550491,-1.7612152,-0.45877075,1.0904388,1.2304688,0.09176636
1625,A,707358676910368,-3.9234467,-0.7228241,-2.6230316,0.9719391,1.2588959,-0.32485962
1625,A,707358697051970,-6.3190002,0.7162628,-1.042572,0.87709045,1.5916901,0.6166382
1625,A,707358717193572,-9.765503,-1.1462402,-1.3350525,1.1249237,1.3294525,0.48213196
1625,A,707358737335173,-9.001968,-2.245987,-0.066101074,1.0945587,1.1069183,0.061340332
1625,A,707358757476775,-9.24913,-2.010498,-1.0809326,0.41462708,0.8093567,-0.45695496
1625,A,707358777618376,-12.6879425,-2.401947,-6.3116913,0.08047485,0.38095093,-0.861496
1625,A,707358797759978,-12.107376,-2.5133362,-0.7932434,0.3097229,0.41281128,-0.41822815
1625,A,707358817901579,-9.522797,-2.7541656,0.44459534,0.09805298,0.753952,0.042053223
1625,A,707358838043181,-6.6956024,-1.6318359,-0.68208313,-0.77182007,0.36187744,0.19099426
1625,A,707358858184783,-6.416336,-1.5386505,-2.0088196,-1.4663391,-0.9049988,0.17597961
1625,A,707358878326384,-7.5919495,-3.0999603,-1.1537933,-0.26335144,-1.9730225,0.043884277
1625,A,707358898467986,-8.253128,-1.4593506,-1.2839966,-0.026290894,-1.4985504,-0.15789795
1625,A,707358918609587,-7.6325684,-1.7439423,1.3082123,-0.82624817,-2.3065186,-0.024841309
1625,A,707358938751189,-8.614044,-2.4422607,0.5564728,-0.8040161,-1.9104156,-0.1347351
1625,A,707358958892790,-9.234268,-1.8306122,0.3735199,-0.39949036,-0.74061584,-0.1304779
1625,A,707358979034392,-9.3541565,-1.3482971,0.19824219,-0.6093445,0.100982666,-0.075042725
1625,A,707358999175993,-8.833832,-1.9663239,-0.38980103,-0.22012329,0.17488098,0.31059265
1625,A,707359019317595,-8.070587,-2.6057892,-0.18095398,-0.5102234,-0.7489624,0.17822266
1625,A,707359039459197,-10.588684,-1.2170105,-1.2114105,-0.17373657,-0.4414978,-0.14227295
1625,A,707359059600798,-14.621719,-0.5109253,-0.8307648,0.43022156,0.98257446,-0.20721436
1625,A,707359079742400,-14.980667,-1.0269165,-0.47291565,0.2676239,0.75294495,-0.17398071
1625,A,707359099884001,-13.469345,-1.562973,0.3240204,0.09857178,1.3802338,-0.1802826
1625,A,707359120025603,-13.594208,-1.6035156,-1.6790619,0.03277588,1.4858856,0.62275696
1625,A,707359140167204,-14.602966,-2.730423,-5.022293,0.38529968,1.2519989,0.41685486
1625,A,707359160308806,-13.640366,-6.177704,-8.403854,0.2875061,0.9949646,0.0066375732
1625,A,707359180450408,-10.562515,-10.467667,-7.630234,0.17584229,0.52593994,-0.5305939
1625,A,707359200592009,-7.8828278,-11.783752,-1.2070313,0.4072113,0.4541626,-0.5431824
1625,A,707359220733611,-6.0302734,-7.164322,3.1624603,0.10229492,0.54299927,0.057357788
1625,A,707359240875212,-5.848648,-3.0110168,3.7039185,-0.513916,0.4116211,0.4473114
1625,A,707359261016814,-7.264145,-3.1739502,-2.7066956,-1.3589935,-0.9928894,0.44345093
1625,A,707359281158415,-7.8256226,-2.8623352,-5.268875,0.2606659,-1.758255,0.3633728
1625,A,707359301300017,-8.738525,-1.6498108,-2.8828125,0.2846222,-1.6442413,-0.13868713
1625,A,707359321441618,-7.640808,-2.696701,-1.4510345,-0.9162445,-2.3164063,0.050247192
1625,A,707359341583220,-8.522095,-4.317383,0.16317749,-0.74005127,-1.7864227,-0.2646637
1625,A,707359361724822,-10.227646,-5.377228,1.8557434,-0.3169403,-0.26438904,-0.13845825
1625,A,707359381866423,-9.2491,-5.158493,1.9881287,-0.5538635,0.4575653,0.015670776
1625,A,707359402008025,-7.837326,-4.7841644,1.8525848,-0.14245605,0.023025513,0.41000366
1625,A,707359422149626,-6.1842194,-4.91951,1.339508,-0.49832153,-0.6378479,0.097076416
1625,A,707359442291228,-4.758957,-4.6439056,1.2848511,0.25167847,-0.12013245,-0.3286438
1625,A,707359462432829,-3.4229126,-3.3253784,2.0178986,0.66433716,1.0140533,-0.3067932
1625,A,707359482574431,-3.347931,-1.9072571,2.1958466,0.5074463,0.86195374,-0.26254272
1625,A,707359502716033,-4.7422485,-0.76200867,2.04628,0.34817505,1.3536682,-0.20739746
1625,A,707359522857634,-6.306885,-0.09716797,2.0716705,0.52041626,1.519577,0.61857605
1625,A,707359542999236,-7.9183807,-0.5555725,1.6747437,0.8154907,1.2394257,0.46139526
1625,A,707359563140837,-10.080566,-2.7048798,1.0131836,0.59750366,1.0581665,-0.041229248
1625,A,707359583282439,-12.522659,-5.63237,1.1973267,0.26765442,0.5413513,-0.61305237
1625,A,707359603424040,-15.085342,-8.197281,3.8880768,0.42344666,0.42199707,-0.62301636
1625,A,707359623565642,-14.895355,-7.679611,5.3979797,0.30177307,0.5814972,-0.08592224
1625,A,707359643707243,-10.442276,-3.5401154,4.905792,-0.5839081,0.4302826,0.35595703
1625,A,707359663848845,-8.712891,-0.32106018,6.3645935,-1.4786072,-0.8691559,0.363266
1625,A,707359683990447,-9.653107,-0.94226074,5.060074,-0.206604,-1.8422546,0.31248474
1625,A,707359704132048,-10.737289,-3.9882813,0.52645874,0.30125427,-1.315506,0.061340332
1625,A,707359724273650,-11.942581,-7.8851166,-0.9985199,-0.9844971,-2.1683197,0.016464233
1625,A,707359744415251,-12.580566,-9.256393,0.044708252,-1.0770721,-2.0501251,-0.17614746
1625,A,707359764556853,-8.477097,-5.544449,-0.36058044,-0.5847626,-0.63165283,-0.07987976
1625,A,707359784698454,-5.062027,-2.2160034,-1.1895142,-0.61346436,0.16755676,0.106033325
1625,A,707359804840056,-7.4401245,-1.6587677,-2.112442,-0.2869568,0.25982666,0.41004944
1625,A,707359824981658,-9.435181,-2.117752,-3.0211945,-0.58584595,-0.62138367,0.29605103
1625,A,707359845123259,-8.848297,-3.4929657,-2.854599,-0.040115356,-0.44740295,-0.35572815
1625,A,707359865264861,-7.93219,-5.045471,-0.6943207,0.8535919,0.90071106,-0.4085846
1625,A,707359885406462,-7.038574,-5.0383606,0.43113708,0.71203613,1.1210022,0.0050964355
1625,A,707359905548064,-7.1504364,-4.9441833,-0.45491028,0.5346985,1.4467163,-0.27900696
1625,A,707359925689665,-7.714554,-5.154846,-0.92352295,0.6085968,1.6435547,0.582901
1625,A,707359945831267,-8.146576,-4.309082,0.26348877,1.046814,1.384613,0.592865
1625,A,707359965972868,-8.500122,-2.4433136,-0.65397644,1.0142517,1.2447052,0.010025024
1625,A,707359986114470,-8.908234,-1.4823761,-2.3873749,0.84124756,0.7351837,-0.6196747
1625,A,707360006256072,-8.793488,-0.6971588,-3.160797,0.802124,0.4785614,-0.64749146
1625,A,707360026397673,-5.3742523,-0.7023773,-3.5659637,0.2527008,0.5510864,-0.058059692
1625,A,707360046539275,-7.697586,-2.3788757,-0.35604858,-0.50839233,0.5233154,0.37147522
1625,A,707360066680876,-9.34816,-2.4184875,1.3924866,-1.2051086,-0.7631073,0.11828613
1625,A,707360086822478,-9.167831,-2.4796448,0.23547363,-0.051818848,-1.8677216,0.007675171
1625,A,707360106964079,-10.675858,-2.5271606,-1.0586853,0.33847046,-1.408371,-0.018814087
1625,A,707360127105681,-11.960358,-2.3350067,-0.6821594,-0.72317505,-2.1970978,0.03437805
1625,A,707360147247283,-11.384857,-2.2277832,-0.32392883,-0.7185211,-1.9484253,-0.09817505
1625,A,707360167388884,-10.658508,-1.2060394,-0.5766144,-0.35061646,-0.77963257,0.118774414
1625,A,707360187530486,-11.444183,0.101867676,-1.6627808,-0.40438843,0.29925537,0.20056152
1625,A,707360207672087,-13.316666,-0.3011322,-1.6300659,-0.23548889,0.18319702,0.33181763
1625,A,707360227813689,-12.797989,-2.1704254,-1.3815613,-0.61691284,-0.73439026,-0.01461792
1625,A,707360247955290,-11.941528,-3.1970367,-1.8100739,0.15135193,-0.19889832,-0.32266235
1625,A,707360268096892,-12.244324,-3.69635,-5.3914948,0.9448242,1.0053253,-0.3287201
1625,A,707360288238493,-9.63031,-4.2937775,-6.932419,0.91825867,1.0584717,-0.05659485
1625,A,707360308380095,-8.471115,-6.6689453,-4.029953,0.719223,1.5353546,-0.050338745
1625,A,707360328521697,-9.226257,-9.939148,1.5055695,0.6253052,1.4764862,0.7325592
1625,A,707360348663298,-12.393524,-11.917526,2.5700226,0.7835846,1.2153931,0.3424225
1625,A,707360368804900,-11.813156,-9.345795,-0.8999634,0.55311584,1.0856018,-0.32341003
1625,A,707360388946501,-9.805817,-4.010086,-1.6345825,0.29377747,0.5849457,-0.8393097
1625,A,707360409088103,-8.816345,-1.923584,-2.7633972,0.31980896,0.4487152,-0.56036377
1625,A,707360429229704,-9.267517,-0.86512756,-2.437149,-0.0051116943,0.6268616,0.08496094
1625,A,707360449371306,-9.195587,-2.6564941,-0.7996979,-0.79125977,0.37045288,0.17707825
1625,A,707360469512908,-7.4254303,-3.5749054,0.011428833,-1.5775604,-0.89183044,0.2019043
1625,A,707360489654509,-5.5772095,-3.535324,1.2268982,-0.3451538,-1.9114685,0.10145569
1625,A,707360509796111,-5.8223114,-3.5155945,1.025589,0.27189636,-1.4378662,0.04019165
1625,A,707360529937712,-5.5024414,-2.9527893,1.0983887,-0.67111206,-2.2994537,-0.04649353
1625,A,707360550079314,-4.644516,-3.2630005,1.3733978,-0.6536255,-2.1263428,-0.1174469
1625,A,707360570220915,-4.762619,-3.3169098,1.1851044,-0.17715454,-0.368042,-0.07737732
1625,A,707360590362517,-4.432541,-1.9941406,0.73991394,-0.50227356,0.38275146,-0.050704956
1625,A,707360610504118,-5.427643,-0.5753937,1.0864716,-0.19036865,-0.15005493,0.34169006
1625,A,707360630645720,-7.1690826,3.0517578E-4,1.9692078,-0.92056274,-0.7636719,-0.035598755
1625,A,707360650787322,-9.7686,-0.85983276,3.0496979,0.16165161,0.110824585,-0.5037079
1625,A,707360670928923,-11.897949,-2.3531952,3.4678345,0.5488739,1.0757904,-0.3265686
1625,A,707360691070525,-13.666946,-4.3746796,2.0942078,0.06283569,0.9530792,-0.030227661
1625,A,707360711212126,-15.756073,-5.225769,3.5418396,-0.3541565,1.2379303,0.08729553
1625,A,707360731353728,-13.843628,-5.4247894,3.1359558,0.0023651123,1.3160095,0.61509705
1625,A,707360751495329,-9.819397,-4.5651855,4.224655,0.506546,1.2712555,0.34135437
1625,A,707360771636931,-8.529373,-2.4306335,4.659851,0.38278198,1.1226349,-0.23400879
1625,A,707360791778533,-9.342728,-6.2038574,1.4824829,0.63412476,0.7342529,-0.71232605
1625,A,707360811920134,-12.380615,-10.6884,-2.0941772,0.9669037,0.54774475,-0.39128113
1625,A,707360832061736,-11.75325,-4.851242,-0.9981079,0.007217407,0.56759644,0.19786072
1625,A,707360852203337,-6.398819,-1.977478,-1.020462,-1.065033,-0.08503723,0.38565063
1625,A,707360872344939,-5.412155,-1.8117676,-2.02211,-1.4697266,-1.7627563,0.04637146
1625,A,707360892486540,-7.96904,-0.92414856,-1.5762634,0.052368164,-1.6889648,-0.13616943
1625,A,707360912628142,-9.483215,-1.8370819,-1.4240875,-0.57536316,-2.0124512,0.0069122314
1625,A,707360932769743,-9.388153,-2.9565582,-1.6201019,-1.2022247,-2.3649445,0.39619446
1625,A,707360952911345,-9.090317,-3.6627502,-2.2231293,-0.93974304,-1.2022247,-0.0922699
1625,A,707360973052947,-8.954269,-3.6743622,-1.3179932,-0.6826782,-0.10972595,0.0765686
1625,A,707360993194548,-8.763977,-3.3011932,-0.34024048,-0.40107727,0.36247253,0.38746643
1625,A,707361013336150,-7.4962006,-3.2379303,-0.66667175,-0.24038696,-0.36543274,0.37530518
1625,A,707361033477751,-7.036621,-3.133728,-0.4586029,-0.15098572,-0.637619,-0.16645813
1625,A,707361053619353,-7.772171,-2.343216,-0.9177704,0.980484,0.50901794,-0.3059845
1625,A,707361073760954,-8.111557,-1.8072815,-1.03685,1.0396881,1.1103973,0.01322937
1625,A,707361093902556,-7.540802,-1.4941254,-1.5971832,0.6401367,1.3205872,-0.33242798
1625,A,707361114044158,-7.414322,-1.4107666,-1.2546234,0.41041565,1.6259308,0.28630066
1625,A,707361134185759,-8.298645,-1.5854187,-1.0585022,0.55618286,1.4185028,0.8903198
1625,A,707361154327361,-9.68277,-2.0329742,-0.65341187,0.6756897,1.128418,0.4393158
1625,A,707361174468962,-11.027176,-2.9224548,-0.0105896,0.86105347,0.82218933,-0.2675476
1625,A,707361194610564,-11.804184,-3.5493011,-0.13578796,1.0837097,0.58499146,-0.6845398
1625,A,707361214752165,-11.885208,-2.025177,-1.0460358,0.97242737,0.5934906,-0.36740112
1625,A,707361234893767,-11.781815,0.6963959,-2.305664,0.36860657,0.859375,0.22088623
1625,A,707361255035368,-13.070984,1.2709808,-2.9773865,-0.18135071,0.04093933,0.2836609
1625,A,707361275176970,-13.978775,-0.57725525,-2.8538208,-1.3465881,-1.6616974,0.20069885
1625,A,707361295318572,-12.732254,-3.4215698,-3.654419,0.43222046,-1.457016,0.2532959
1625,A,707361315460173,-10.551514,-4.613983,-7.0034637,0.1635437,-1.723999,-0.07879639
1625,A,707361335601775,-8.719208,-4.896576,-7.369171,-1.1127625,-2.4287262,-0.11785889
1625,A,707361355743376,-8.323532,-6.99028,-2.098343,-0.6122589,-1.2333832,-0.27488708
1625,A,707361375884978,-10.943375,-11.376373,3.4885101,-0.45689392,-0.12826538,-0.1446991
1625,A,707361396026579,-14.583481,-14.854889,2.9038239,-0.73573303,0.42918396,0.057174683
1625,A,707361416168181,-12.829697,-11.090103,-2.2136536,-0.4650421,-0.36769104,0.4034729
1625,A,707361436309783,-9.309708,-3.9411774,-3.116211,-0.30046082,-0.6884613,-0.081329346
1625,A,707361456451384,-8.794144,-0.26187134,-2.8442078,0.63523865,0.4288025,-0.6170807
1625,A,707361476592986,-9.565079,0.7223511,-3.2071228,1.1441193,1.2478027,-0.15402222
1625,A,707361496734587,-10.60968,0.087646484,-2.091858,0.7094269,1.2822266,-0.19651794
1625,A,707361516876189,-6.720001,-0.6160736,0.33657837,0.5914612,1.5613861,0.21318054
1625,A,707361537017790,-2.448166,-1.8022461,2.30542,0.81282043,1.4960632,0.56300354
1625,A,707361557159392,-3.5735626,-2.3096771,1.9067688,0.9099426,1.2214203,0.24098206
1625,A,707361577300993,-5.4029236,-2.2158966,1.0484467,0.3703308,0.6993103,-0.33190918
1625,A,707361597442595,-5.399475,-3.1512604,1.1306915,0.54745483,0.43884277,-0.7559662
1625,A,707361617584197,-4.543045,-3.3239136,2.2275696,0.7855072,0.5582123,-0.2756958
1625,A,707361637725798,-4.5062256,-2.685135,2.7722473,0.029586792,0.72966003,0.2850952
1625,A,707361657867400,-5.932846,-2.1443634,2.4146729,-1.1601715,-0.30674744,0.35603333
1625,A,707361678009001,-7.746521,-1.9491577,3.1684265,-1.0372314,-1.8609161,0.060317993
1625,A,707361698150603,-9.901093,-2.1111603,3.2937775,0.36102295,-1.4974976,0.12121582
1625,A,707361718292204,-12.930191,-3.268692,2.1144867,-0.52111816,-1.9237671,-0.26408386
1625,A,707361738433806,-16.061508,-5.7314606,3.2400818,-1.1854706,-2.1768188,0.0499115
1625,A,707361758575408,-15.713669,-7.334564,4.935135,-0.877594,-0.90519714,-0.19032288
1625,A,707361778717009,-9.767944,-4.9013824,4.6316376,-1.1064148,0.092559814,0.003189087
1625,A,707361798858611,-7.41597,-1.4927063,5.973221,-0.606308,0.14154053,0.2966919
1625,A,707361819000212,-7.071472,-1.6295624,3.3489532,-0.3173523,-0.6576233,0.22615051
1625,A,707361839141814,-7.634552,-6.738739,-1.1188354,-0.36424255,-0.64312744,-0.15908813
1625,A,707361859283415,-15.114227,-12.4609375,-4.597748,0.6635437,0.87724304,-0.2715912
1625,A,707361879425017,-16.093674,-7.182495,-0.75946045,0.7412262,0.8168793,-0.033432007
1625,A,707361899566618,-6.3666534,-2.8759003,-0.26278687,0.46018982,1.1691742,-0.2718811
1625,A,707361919708220,-2.9704437,-2.4108276,-0.9559021,0.050704956,1.3591614,0.5978546
1625,A,707361939849822,-6.0058594,-1.8761597,-0.5279999,0.50141907,1.2563629,0.5342102
1625,A,707361959991423,-10.059677,-3.2104645,-2.9624634,0.5363159,1.2163696,-0.038589478
1625,A,707361980133025,-11.316574,-3.2376251,-2.2102509,0.5364227,0.7716522,-0.6044464
1625,A,707362000274626,-9.564148,-2.343567,-1.5207367,0.7235718,0.45761108,-0.5296936
1625,A,707362020416228,-7.4490814,-2.432129,-0.9931793,0.09590149,0.48814392,-0.05055237
1625,A,707362040557829,-7.12059,-2.7242126,-1.2182007,-0.6348572,0.26713562,0.32899475
1625,A,707362060699431,-7.447357,-2.2115326,-1.2677612,-1.3077545,-0.98321533,0.32928467
1625,A,707362080841033,-7.313141,-1.7513123,-1.643753,0.30174255,-1.6031647,0.41532898
1625,A,707362100982634,-7.358078,-1.9229889,-1.8173676,0.1512146,-1.5454102,-0.0642395
1625,A,707362121124236,-8.001343,-1.8802185,-1.7485809,-1.3799744,-2.0960083,0.2013092
1625,A,707362141265837,-7.873001,-1.5615997,-1.613327,-1.4026337,-1.8274231,-0.3921051
1625,A,707362161407439,-7.209259,-1.8874817,-0.27903748,-0.9766998,-0.71824646,-0.2138977
1625,A,707362181549040,-9.002411,-2.3019867,-0.05430603,-0.90119934,0.26106262,0.18139648
1625,A,707362201690642,-10.761765,-2.222992,-0.3199463,-0.024368286,0.108291626,0.51057434
1625,A,707362221832243,-11.929062,-2.9460602,-0.62094116,-0.1521759,-0.5118866,0.2522583
1625,A,707362241973845,-11.843765,-2.6722565,-0.9443207,0.14419556,-0.43336487,-0.3966217
1625,A,707362262115447,-11.191437,-0.005493164,-2.3968964,0.79997253,1.0847931,-0.26087952
1625,A,707362282257048,-12.726746,1.9465637,-3.6747894,0.73013306,1.1435089,0.008117676
1625,A,707362302398650,-14.327927,0.06954956,-3.9598389,0.60380554,1.6020203,-0.20620728
1625,A,707362322540251,-14.425873,-3.7778473,-4.877411,0.6103058,1.5941925,0.5828247
1625,A,707362342681853,-13.211929,-5.5161285,-6.5742493,1.0132294,1.2830505,0.68995667
1625,A,707362362823454,-9.696396,-6.3697815,-4.497467,0.85754395,1.1609802,-0.06565857
1625,A,707362382965056,-9.053757,-7.1144714,-1.1286469,0.5252533,0.59202576,-0.6748352
1625,A,707362403106658,-12.874481,-11.203018,4.492935,0.48306274,0.46855164,-0.5751648
1625,A,707362423248259,-9.717209,-10.4570465,1.2948151,0.18896484,0.6406555,-0.0069732666
1625,A,707362443389861,-8.56958,-8.371719,-5.40361,-0.45401,0.4862213,0.35992432
1625,A,707362463531462,-9.915512,-4.329254,-3.3174133,-1.3590698,-0.80462646,0.37994385
1625,A,707362483673064,-11.632111,-1.6257629,-1.0542908,-0.38796997,-1.9268036,0.24389648
1625,A,707362503814665,-11.48291,-0.73683167,-1.688858,0.6964569,-1.6492157,0.04876709
1625,A,707362523956267,-8.726913,-1.0471497,-0.9690399,-0.7736206,-2.323166,-0.21871948
1625,A,707362544097868,-6.4599,-1.6532745,0.69944763,-0.7595825,-1.9288177,-0.2813568
1625,A,707362564239470,-2.3061523,-2.5253143,1.9185791,-0.5681305,-0.3663025,-0.18013
1625,A,707362584381072,-2.2714996,-3.035675,1.3627472,-0.7087555,0.41548157,-0.009414673
1625,A,707362604522673,-4.51062,-3.0550995,1.4776917,-0.23373413,-0.3712616,0.49446106
1625,A,707362624664275,-5.1119537,-2.8677063,1.0002899,-0.4634552,-0.68559265,0.093673706
1625,A,707362644805876,-5.272522,-3.0188599,1.3159637,0.5124817,0.19416809,-0.50601196
1625,A,707362664947478,-5.3629913,-2.953247,1.834671,0.9464264,1.2032928,-0.10021973
1625,A,707362685089079,-5.8658295,-2.3273315,2.8329926,0.7436676,1.2223358,-0.06350708
1625,A,707362705230681,-7.8532104,-2.203247,4.5017242,0.61209106,1.618454,0.45751953
1625,A,707362725372283,-10.922836,-2.9482727,4.441452,0.5497894,1.4415131,0.79603577
1625,A,707362745513884,-13.417984,-4.5101166,1.2017822,0.74768066,1.1818542,0.040390015
1625,A,707362765655486,-14.79924,-6.205002,3.1392822,0.818161,1.1866455,-0.7112274
1625,A,707362785797087,-15.044662,-7.5188446,5.92836,1.0955353,0.6978607,-0.8577728
1625,A,707362805938689,-9.916,-5.1129456,5.1425934,0.6179962,0.66192627,-0.17926025
1625,A,707362826080290,-6.7538605,-2.0866241,6.038559,-0.4163208,0.6488495,0.3617859
1625,A,707362846221892,-6.399124,-0.6003113,2.7505188,-1.1514587,-0.23765564,0.40905762
1625,A,707362866363493,-8.402908,-5.322418,-0.3085785,-0.7605438,-1.9391632,-0.02658081
1625,A,707362886505095,-14.957001,-10.707031,-3.525406,0.34965515,-1.7162781,-0.14376831
1625,A,707362906646697,-16.857758,-6.2770844,-0.40203857,-0.5615387,-2.0941315,0.0655365
1625,A,707362926788298,-7.272064,-1.5039978,-0.9240875,-1.0148773,-2.2523804,-0.14208984
1625,A,707362946929900,-4.027054,-2.0777588,-2.8689575,-0.71040344,-1.0148468,-0.12324524
1625,A,707362967071501,-6.6400757,-1.8708038,-1.3177032,-0.9460602,0.08081055,0.105911255
1625,A,707362987213103,-9.162781,-2.9060059,-1.7797241,-0.51464844,-0.20344543,0.4879303
1625,A,707363007354704,-10.290543,-3.207779,-1.9687958,-0.614624,-0.8040619,0.17411804
1625,A,707363027496306,-9.88118,-2.5435333,-1.2663116,-0.06413269,-0.27087402,-0.5365448
1625,A,707363047637908,-8.787933,-2.9644318,-0.52142334,1.0047302,1.0707092,-0.48669434
1625,A,707363067779509,-7.4035645,-3.139923,-1.2821045,0.890625,1.0806122,0.15631104
1625,A,707363087921111,-6.9782715,-2.5833893,-1.2287292,0.37716675,1.4191437,0.106933594
1625,A,707363108062712,-6.9413147,-2.1387787,-1.164978,0.7518158,1.5297089,0.6224518
1625,A,707363128204314,-7.3313293,-1.9854584,-1.2345886,1.1837006,1.3824005,0.5079498
1625,A,707363148345915,-7.454956,-1.5776825,-1.0127869,0.7961731,1.1668549,-0.36514282
1625,A,707363168487517,-7.2720337,-1.098938,-0.4826355,0.87345886,0.59794617,-0.7118988
1625,A,707363188629118,-8.058594,-1.096878,-0.018417358,0.7542572,0.5643616,-0.39411926
1625,A,707363208770720,-9.944168,-1.4050446,-0.2975769,-0.12298584,0.57940674,-0.016998291
1625,A,707363228912322,-11.093552,-1.8137207,-0.6939697,-0.9229889,0.2601776,0.3374176
1625,A,707363249053923,-11.482071,-2.5865784,-0.26322937,-1.8255768,-1.1843567,0.19238281
1625,A,707363269195525,-11.265289,-2.1312866,-0.37054443,0.22492981,-1.7446442,0.24975586
1625,A,707363289337126,-11.391998,-0.12915039,-1.9496918,-0.2911377,-1.8852844,-0.24662781
1625,A,707363309478728,-12.600052,0.8772125,-2.6089172,-1.4811096,-2.4337463,0.08911133
1625,A,707363329620329,-13.859024,-0.63974,-2.6922913,-1.3667145,-1.7364197,-0.34768677
1625,A,707363349761931,-13.544144,-3.5995483,-2.9986115,-0.940094,-0.4986267,0.029693604
1625,A,707363369903533,-12.670532,-5.2042084,-4.062973,-1.006424,0.5019226,0.13757324
1625,A,707363390045134,-10.990265,-5.4468384,-5.9730377,-0.28111267,-0.3290863,0.45664978
1625,A,707363410186736,-8.279526,-6.352722,-4.9703827,-0.19122314,-0.65541077,0.16908264
1625,A,707363430328337,-10.204376,-9.0864105,0.82063293,0.60020447,0.11904907,-0.60092163
1625,A,707363450469939,-11.969315,-11.817078,3.7797241,1.2966919,1.3707733,0.064193726
1625,A,707363470611540,-10.607513,-11.414139,-0.61950684,1.0167999,1.2229614,-0.080718994
1625,A,707363490753142,-10.61882,-7.064926,-3.202942,0.98631287,1.6555023,0.087890625
1625,A,707363510894743,-11.399567,-2.1771088,-2.2852783,1.0795898,1.6719818,0.7716675
1625,A,707363531036345,-11.820602,-0.25349426,-2.235321,1.2037354,1.3600311,0.11506653
1625,A,707363551177947,-10.320114,-0.42481995,-2.173111,0.6669922,1.0904388,-0.5487213
1625,A,707363571319548,-7.78006,-0.9673157,-0.48568726,0.7138519,0.5610657,-0.83374023
1625,A,707363591461150,-4.061615,-1.4695129,1.1407318,0.34121704,0.47402954,-0.38752747
1625,A,707363611602751,-2.4385986,-2.3885803,1.2767487,-0.23268127,0.4920044,0.04940796
1625,A,707363631744353,-3.7791595,-2.7416534,1.3731842,-1.1005707,-0.16210938,0.5521393
1625,A,707363651885954,-4.989517,-2.6448822,1.6998138,-1.2217255,-1.7594147,0.21072388
1625,A,707363672027556,-4.9270935,-2.6638794,1.8935852,-0.021621704,-1.7078705,-0.016143799
1625,A,707363692169158,-4.845337,-2.524582,1.9885254,-1.2458191,-2.0164795,0.050354004
1625,A,707363712310759,-5.2756195,-1.8779602,2.0742493,-1.6873169,-2.4421997,0.08526611
1625,A,707363732452361,-6.3969727,-1.3775024,3.1406097,-1.1146088,-0.9278259,-0.31259155
1625,A,707363752593962,-8.7686615,-1.6129456,4.7920074,-1.1090698,0.012420654,0.119766235
1625,A,707363772735564,-12.256805,-2.4589996,3.289505,-0.38905334,0.13645935,0.42347717
1625,A,707363792877165,-15.656052,-3.8859253,1.5652771,-0.33389282,-0.81463623,0.19657898
1625,A,707363813018767,-16.911728,-6.1078033,4.0843964,-0.04197693,-0.77178955,-0.28614807
1625,A,707363833160368,-13.448669,-5.6954346,5.070694,0.8455963,0.765152,-0.38053894
1625,A,707363853301970,-6.9950867,-4.7010345,5.9935913,1.180481,0.96203613,0.13078308
1625,A,707363873443572,-5.810425,-5.0077057,4.039261,0.84661865,1.5553894,-0.40612793
1625,A,707363893585173,-6.634018,-5.8572693,2.48526,0.7483368,1.6304169,0.41592407
1625,A,707363913726775,-10.223007,-7.140152,-0.040634155,1.0061188,1.4226227,0.46791077
1625,A,707363933868376,-15.072998,-9.3255005,-0.71061707,0.8996124,1.3508606,-0.025054932
1625,A,707363954009978,-12.311188,-6.2315216,-0.5395813,0.7655182,0.8948517,-0.6713867
1625,A,707363974151579,-6.75441,-2.6577911,-3.3275604,1.0281982,0.58226013,-0.5801697
1625,A,707363994293181,-5.2749023,-1.6349792,-2.9725342,0.050308228,0.5367584,-0.025543213
1625,A,707364014434783,-7.4112854,-2.1959686,0.100753784,-0.8871765,0.3659973,0.4898529
1625,A,707364034576384,-9.623566,-3.4584198,-1.2422638,-1.6588745,-1.2082672,0.1851654
1625,A,707364054717986,-11.020508,-3.527069,-3.1032562,0.4953308,-1.5467224,0.4603119
1625,A,707364074859587,-10.364456,-2.5409088,-2.179947,-0.070510864,-1.7454071,-0.05899048
1625,A,707364095001189,-7.384613,-2.7187042,-1.3412018,-1.4862823,-2.4374084,0.08503723
1625,A,707364115142790,-5.285431,-3.0159454,-0.9330139,-0.9997864,-1.7344055,-0.3337555
1625,A,707364135284392,-6.355484,-2.5852509,-0.5115204,-0.7404785,-0.3428955,-0.18206787
1625,A,707364155425993,-9.007599,-1.99263,-1.0292511,-0.6817322,0.64923096,0.07611084
1625,A,707364175567595,-9.113846,-0.94163513,-1.7628174,-0.21600342,-0.14897156,0.7156067
1625,A,707364195709197,-8.1214905,-0.0872345,-1.8248749,-0.29037476,-0.50730896,0.049057007
1625,A,707364215850798,-7.4091797,0.5115814,-1.2292938,0.8973999,0.34274292,-0.6525879
1625,A,707364235992400,-8.135239,0.578537,-0.5791626,1.3221283,1.107193,-0.19393921
1625,A,707364256134001,-8.258575,-0.093185425,-0.5394592,1.0340118,1.409729,-0.16827393
1625,A,707364276275603,-8.968796,-1.0814056,-0.8985138,0.81817627,1.5621796,0.12890625
1625,A,707364296417204,-10.292191,-2.2627869,-0.31536865,0.67544556,1.3795776,0.8817444
1625,A,707364316558806,-11.610291,-3.6180115,0.08377075,0.9692383,1.1110382,0.32588196
1625,A,707364336700408,-11.725983,-3.6306305,0.43251038,0.6224518,0.80288696,-0.5326233
1625,A,707364356842009,-12.057953,-0.47509766,-0.9677429,0.79074097,0.4812317,-0.8245239
1625,A,707364376983611,-14.092285,0.96121216,-3.0408783,0.50650024,0.61808777,-0.1824646
1625,A,707364397125212,-15.004318,0.2912445,-3.9103699,-0.5978699,0.68655396,0.4035492
1625,A,707364417266814,-14.567108,-1.1379395,-3.7516785,-1.1717377,-0.20913696,0.5523834
1625,A,707364437408415,-13.798569,-1.8460541,-5.411667,-0.6064911,-1.6873169,0.25715637
1625,A,707364457550017,-10.789032,-3.949234,-5.8839417,1.1590271,-1.4194946,0.10623169
1625,A,707364477691618,-9.031921,-4.944168,-5.003525,-0.06575012,-1.8877411,-0.27368164
1625,A,707364497833220,-8.005325,-7.6443634,-1.7911377,-0.85427856,-2.106369,-0.09458923
1625,A,707364517974822,-11.218994,-11.681534,3.0825806,-0.45010376,-0.7802582,-0.23028564
1625,A,707364538116423,-10.251526,-11.316818,0.49076843,-0.6018982,0.2911377,-0.08772278
1625,A,707364558258025,-10.013733,-8.3159485,-3.9421692,-0.4479065,0.06425476,0.34127808
1625,A,707364578399626,-10.556992,-3.746994,-0.07913208,-0.43473816,-0.40997314,0.25152588
1625,A,707364598541228,-11.35907,-2.2712402,-2.442871,0.09713745,-0.15939331,-0.37332153
1625,A,707364618682829,-11.297684,-2.0172424,-2.6586304,1.113739,0.99316406,-0.42012024
1625,A,707364638824431,-9.26976,-2.0236359,-0.9467621,0.9505768,1.2279968,0.0041046143
1625,A,707364658966033,-3.6908417,-2.1894226,0.99824524,0.8096771,1.6074066,-0.1843872
1625,A,707364679107634,-2.0685425,-2.5580292,1.6653595,0.7719269,1.5375366,0.47694397
1625,A,707364699249236,-3.8673859,-2.8048096,1.4183197,1.1951904,1.3666687,0.41781616
1625,A,707364719390837,-4.2474976,-2.599289,1.105545,0.774292,1.07164,-0.45484924
1625,A,707364739532439,-3.912674,-2.4828491,1.1848907,0.8665924,0.42410278,-0.8305664
1625,A,707364759674040,-3.8828583,-2.3781738,1.3362732,0.4603119,0.3460846,-0.33291626
1625,A,707364779815642,-4.992874,-1.8939667,1.970581,-0.26387024,0.631546,0.15066528
1625,A,707364799957243,-7.4617767,-1.5514221,4.364914,-0.7458496,0.19737244,0.41157532
1625,A,707364820098845,-10.692703,-2.0412445,5.8953705,-1.0804443,-1.4780731,0.063705444
1625,A,707364840240447,-13.256805,-3.2225342,3.5788116,0.58132935,-1.5906982,0.17132568
1625,A,707364860382048,-15.406525,-6.3115845,3.2744293,-0.032073975,-2.0473175,-0.20228577
1625,A,707364880523650,-15.244354,-8.320938,5.1706085,-1.0848541,-2.4284363,-0.04096985
1625,A,707364900665251,-9.805359,-6.302582,6.20578,-0.7783356,-1.2441711,-0.39941406
1625,A,707364920806853,-6.753647,-2.7460327,6.229492,-0.7782135,-0.09112549,-0.0054626465
1625,A,707364940948454,-6.954727,-1.4641266,2.734497,-0.6230011,0.2615509,0.33987427
1625,A,707364961090056,-9.931076,-7.2363586,-1.735733,-0.41418457,-0.6026459,0.4078827
1625,A,707364981231658,-16.751907,-10.882004,-4.1729126,-0.45188904,-0.54956055,-0.09005737
1625,A,707365001373259,-13.837067,-4.0756226,-0.80848694,0.7950592,0.7885437,-0.2759552
1625,A,707365021514861,-4.5610504,-1.4649048,-2.134842,0.6612091,0.8085785,-0.0071868896
1625,A,707365041656462,-4.498001,-1.8118134,-2.7127075,0.47486877,1.4899902,-0.28909302
1625,A,707365061798064,-7.726181,-2.4115448,-1.3945007,0.23751831,1.4812927,0.7284241
1625,A,707365081939665,-9.937637,-2.9415894,-2.0105438,0.59295654,1.2589722,0.42538452
1625,A,707365102081267,-9.672653,-2.544632,-2.3277283,0.51794434,1.1167297,-0.27227783
1625,A,707365122222868,-9.12529,-2.6363983,-1.6483612,0.6530762,0.56111145,-0.67396545
1625,A,707365142364470,-7.6671143,-2.9740448,-0.6305542,0.8078003,0.4859619,-0.33843994
1625,A,707365162506072,-6.1447754,-3.1861877,-0.8366852,0.22366333,0.70147705,0.23501587
1625,A,707365182647673,-6.461624,-3.1189575,-0.94540405,-1.3078308,0.23118591,0.5204468
1625,A,707365202789275,-7.6592865,-2.5047455,-0.825058,-1.4771271,-1.3335876,0.20324707
1625,A,707365222930876,-8.650574,-1.5617523,-1.0784302,0.78970337,-1.4541321,0.35346985
1625,A,707365243072478,-8.463577,-0.9156494,-1.4125061,0.2241211,-1.5347595,-0.27900696
1625,A,707365263214079,-7.751419,-0.9949646,-0.993103,-0.9075928,-2.0982056,0.039611816
1625,A,707365283355681,-8.245132,-1.2915955,-0.06390381,-0.6359253,-1.5200806,-0.15846252
1625,A,707365303497283,-9.725586,-1.5660095,0.14720154,-0.57069397,-0.07336426,-0.14274597
1625,A,707365323638884,-11.203033,-1.8838959,-0.6638336,-0.7427368,0.7559204,0.11148071
1625,A,707365343780486,-12.033478,-2.4077148,-0.9308014,-0.4031372,-0.50520325,0.30110168
1625,A,707365363922087,-11.661224,-1.5464478,-1.1039429,-0.40525818,-0.69548035,-0.10668945
1625,A,707365384063689,-12.411743,0.5262909,-2.1137543,0.87371826,0.38934326,-0.47920227
1625,A,707365404205290,-13.989929,0.4512787,-2.9220428,1.0197601,1.0805817,0.08631897
1625,A,707365424346892,-14.1627655,-1.785675,-3.4531403,0.7632904,1.513031,-0.24397278
1625,A,707365444488493,-13.36644,-3.7562714,-4.9352875,0.8717041,1.641571,0.14082336
1625,A,707365464630095,-11.110596,-4.18692,-7.155472,0.97239685,1.5531006,0.73739624
1625,A,707365484771697,-8.438782,-5.134491,-6.101593,0.8751526,1.266983,0.10450745
1625,A,707365504913298,-10.880905,-9.472061,-0.19033813,0.55822754,0.8005829,-0.5164032
1625,A,707365525054900,-12.922852,-13.266632,3.661438,0.6138916,0.5030365,-0.6546478
1625,A,707365545196501,-10.819687,-12.584442,-2.4953308,0.11175537,0.4787445,-0.1007843
1625,A,707365565338103,-8.582291,-7.625351,-4.0714417,-0.30207825,0.48910522,0.35650635
1625,A,707365585479704,-9.049164,-3.1214905,-1.769867,-1.172226,-0.6798248,0.40324402
1625,A,707365605621306,-10.477936,-1.2975006,-1.6142273,-0.339859,-1.7320862,0.19125366
1625,A,707365625762908,-11.199234,-1.0765076,-1.9348145,0.92611694,-1.5651398,-0.0023956299
1625,A,707365645904509,-7.480484,-1.4295197,-0.88339233,-0.65133667,-2.1399689,-0.079071045
1625,A,707365666046111,-1.523468,-1.2739258,1.658493,-0.63497925,-1.9421844,-0.3886261
1625,A,707365686187712,-1.7371826,-1.9025269,2.8667755,-0.39672852,-0.56495667,-0.26489258
1625,A,707365706329314,-3.9878693,-2.5866241,2.2372131,-0.5498657,0.33441162,0.04032898
1625,A,707365726470915,-4.8296356,-2.7198029,1.3485718,-0.2436676,-0.003250122,0.67276
1625,A,707365746612517,-4.522064,-2.6435547,1.1755066,-0.47406006,-0.51387024,0.117248535
1625,A,707365766754118,-4.50766,-2.1711273,1.2147217,0.21931458,0.083724976,-0.65112305
1625,A,707365786895720,-5.992508,-1.5018005,2.4011536,1.134903,1.2337646,-0.10429382
1625,A,707365807037322,-8.677017,-1.428009,4.699341,0.78956604,1.250061,0.030258179
1625,A,707365827178923,-11.618301,-2.1029358,3.2322693,0.674942,1.6613007,-0.01512146
1625,A,707365847320525,-14.12529,-4.364563,1.7476654,0.6408844,1.4656372,0.77415466
1625,A,707365867462126,-16.371872,-8.23848,3.9285278,1.1989594,1.2806854,0.6044464
1625,A,707365887603728,-14.316208,-8.001144,5.485977,0.8739624,1.1394348,-0.41156006
1625,A,707365907745329,-9.044861,-4.1751556,7.4427643,1.0279236,0.5996399,-0.8427429
1625,A,707365927886931,-6.647064,-1.8271332,5.710602,0.5157013,0.5853729,-0.25120544
1625,A,707365948028533,-6.2730865,-3.5719452,0.84062195,-0.32286072,0.69384766,0.23304749
1625,A,707365968170134,-8.97197,-7.487213,-3.0389404,-0.8270874,-0.064590454,0.36035156
1625,A,707365988311736,-16.2529,-9.275162,-2.9230194,-0.7476349,-1.810379,0.24986267
1625,A,707366008453337,-11.860443,-3.7598267,0.3567505,0.6062622,-1.6549835,0.03387451
1625,A,707366028594939,-6.7184753,-1.6202087,-2.4128418,-0.044418335,-2.066864,-0.094329834
1625,A,707366048736540,-5.710678,-1.3536072,-4.0344696,-0.8833008,-2.2182922,-0.026382446
1625,A,707366068878142,-7.239746,-2.9103699,-2.5775146,-0.46398926,-1.0338135,-0.31417847
1625,A,707366089019743,-8.950806,-3.9928741,-1.2596741,-0.27198792,-0.26797485,0.052581787
1625,A,707366109161345,-9.250656,-3.6517487,-1.6824493,-0.17407227,-0.010406494,0.5204468
1625,A,707366129302947,-10.526779,-3.5160675,-1.4433441,-0.42018127,-0.26435852,0.1851654
1625,A,707366149444548,-9.077103,-2.8917847,-0.9265442,0.61795044,0.1665802,-0.65600586
1625,A,707366169586150,-5.9799194,-2.7039337,-0.9877777,1.4425812,1.1204987,-0.37930298
1625,A,707366189727751,-5.976639,-2.4031525,-0.20605469,0.87538147,1.7288208,-0.050933838
1625,A,707366209869353,-7.210205,-1.8231812,-0.6135864,0.93185425,1.7809448,-0.21961975
1625,A,707366230010954,-8.117813,-0.90405273,-0.70573425,0.76864624,1.6800537,0.76257324
1625,A,707366250152556,-8.586533,-0.36489868,-1.1522064,1.3544617,1.4143524,0.4851532
1625,A,707366270294158,-7.8322754,-0.504776,-1.0976868,1.0280914,1.1076355,-0.3849945
1625,A,707366290435759,-7.918564,-0.98565674,-0.42570496,0.71728516,0.5337982,-0.83981323
1625,A,707366310577361,-9.257706,-1.2209015,-0.056900024,0.27815247,0.36340332,-0.19203186
1625,A,707366330718962,-10.867508,-2.511963,0.08001709,0.025680542,0.64634705,0.34646606
1625,A,707366350860564,-11.2803955,-3.413391,0.27781677,-0.15592957,0.14828491,0.3577118
1625,A,707366371002165,-12.124161,-2.1310272,-0.95591736,-1.522171,-1.579483,-0.10585022
1625,A,707366391143767,-12.847183,0.89427185,-2.4151459,-0.09870911,-1.5801392,0.0599823
1625,A,707366411285368,-14.757309,1.0630035,-2.8721771,-0.26211548,-2.0376434,-0.1526947
1625,A,707366431426970,-15.162582,-0.8333893,-2.7090454,-1.1721497,-2.626419,-0.11109924
1625,A,707366451568572,-13.36763,-3.153839,-4.2391357,-0.6271057,-1.2745056,-0.43226624
1625,A,707366471710173,-11.41983,-4.6207123,-6.370102,-0.47668457,-0.30088806,-0.05821228
1625,A,707366491851775,-8.950836,-4.310135,-7.3145905,-0.21057129,-0.0039978027,0.20835876
1625,A,707366511993376,-6.9487915,-5.885849,-4.2052917,0.005554199,-0.5202942,0.24745178
1625,A,707366532134978,-11.764435,-11.066101,4.49765,-0.054489136,-0.37420654,0.046279907
1625,A,707366552276579,-13.721146,-13.82431,4.3994446,0.91152954,1.2720032,-0.28198242
1625,A,707366572418181,-10.657608,-10.6098175,-4.4960785,0.67678833,0.83843994,-0.25764465
1625,A,707366592559783,-9.398666,-4.431061,-2.682541,0.6227417,1.8895264,-0.1325531
1625,A,707366612701384,-9.3918,-1.0623016,-2.512207,0.47917175,1.7059937,0.5057068
1625,A,707366632842986,-10.423126,-0.29301453,-2.353363,0.65057373,1.3937378,0.665802
1625,A,707366652984587,-9.929398,-0.99432373,-1.4410706,0.5214081,1.1623077,0.012466431
1625,A,707366673126189,-4.0561676,-1.7810822,0.8488312,0.40426636,0.60112,-0.5933533
1625,A,707366693267790,-1.3686371,-2.0631866,1.7525177,0.54618835,0.41700745,-0.48342896
1625,A,707366713409392,-3.9113617,-2.8494263,1.9507751,0.0038146973,0.71881104,0.0770874
1625,A,707366733550993,-4.841156,-2.9736328,1.4839935,-0.54174805,0.42730713,0.30093384
1625,A,707366753692595,-4.7427216,-2.994995,1.3884888,-1.4775848,-1.13768,0.13781738
1625,A,707366773834197,-4.46933,-2.6608582,1.551651,0.02986145,-1.6721191,0.21092224
1625,A,707366793975798,-4.8936462,-1.7262421,2.0848236,0.83369446,-1.9394379,-0.052825928
1625,A,707366814117400,-6.8098145,-1.0753021,3.489853,-0.57118225,-2.2731323,0.094696045
1625,A,707366834259001,-9.93988,-1.477768,3.997757,0.0063323975,-1.7829285,-0.47155762
1625,A,707366854400603,-13.153656,-2.8787537,2.014267,-0.06272888,-0.23678589,-0.15696716
1625,A,707366874542204,-16.06427,-5.829605,2.9248505,-0.4141388,0.17823792,0.1910553
1625,A,707366894683806,-16.329529,-8.191849,5.6501007,-0.457016,-0.35237122,0.30441284
1625,A,707366914825408,-10.995712,-6.4344177,5.798462,-0.16950989,-0.09802246,-0.09086609
1625,A,707366934967009,-7.0815887,-4.1405334,6.188736,1.1346893,0.92266846,-0.42358398
1625,A,707366955108611,-6.7266235,-5.250778,3.0806732,0.93092346,1.2954865,-0.13935852
1625,A,707366975250212,-9.635757,-8.514618,-1.6553802,0.70866394,1.8079834,-0.35049438
1625,A,707366995391814,-14.969009,-9.159882,-2.7891388,0.48095703,1.6773529,0.47755432
1625,A,707367015533415,-13.117172,-4.3736267,0.45613098,0.636322,1.4413452,0.7151489
1625,A,707367035675017,-6.298523,-1.1233978,-0.36480713,0.85961914,0.9539032,0.035705566
1625,A,707367055816618,-4.591919,-0.118621826,-3.2749329,0.69914246,0.49594116,-0.40415955
1625,A,707367075958220,-7.4101257,-1.5694427,-2.3896484,0.5471039,0.5558014,-0.552948
1625,A,707367096099822,-9.480789,-3.8145294,-1.7553711,0.4850769,0.9045105,-0.23106384
1625,A,707367116241423,-8.817215,-3.4153137,-1.5698547,-0.26989746,0.48606873,0.21813965
1625,A,707367136383025,-9.001175,-2.9819336,-1.969574,-1.259613,-0.8315277,0.059677124
1625,A,707367156524626,-9.010071,-3.3069763,-1.3556213,0.106552124,-1.6208649,0.06378174
1625,A,707367176666228,-6.9423676,-3.5157318,-0.9766998,0.64559937,-1.751358,-0.18493652
1625,A,707367196807829,-6.0603333,-3.2115936,-0.6711731,-0.4039154,-2.2190857,0.2015686
1625,A,707367216949431,-7.239624,-2.544342,-0.9256592,-0.19570923,-1.7072144,-0.21990967
1625,A,707367237091033,-8.316177,-1.8485413,-1.6151581,-0.18681335,-0.52630615,-0.22964478
1625,A,707367257228322,-7.8919525,-1.0184021,-1.6673431,-0.45321655,0.23042297,0.021911621
1625,A,707367277369924,-7.1462555,-0.7720032,-0.8292694,-0.2195282,-0.43415833,0.49409485
1625,A,707367297511525,-7.781311,-0.8508911,0.46923828,-0.19470215,-0.37069702,-0.032333374
1625,A,707367317653127,-9.446365,-0.921051,-0.1589508,1.1036377,0.85765076,-0.4873352
1625,A,707367337794728,-11.027451,-1.4696808,-1.220932,1.1857605,1.0938263,-0.031326294
1625,A,707367357936330,-11.967743,-2.1474152,-1.1109161,0.43452454,1.7463379,-0.2492218
1625,A,707367378077931,-12.039429,-0.8095856,-1.1108093,0.59425354,1.6643372,-0.047607422
1625,A,707367398219533,-12.84169,1.0955505,-1.8493958,0.6343994,1.443039,0.8865204
1625,A,707367418361135,-14.093887,0.79937744,-2.4371643,0.81869507,1.1957397,0.054275513
1625,A,707367438502736,-14.5425415,-1.0458374,-2.547226,0.8891144,0.46574402,-0.50650024
1625,A,707367458644338,-13.887314,-3.501236,-3.3810883,0.6053467,0.4187622,-0.22607422
1625,A,707367478785939,-11.589874,-4.226013,-6.091812,-0.0032806396,0.75683594,0.044036865
1625,A,707367498927541,-8.34996,-4.095566,-7.3771057,-0.46740723,0.31611633,-0.018676758
1625,A,707367519069142,-8.815018,-7.0720673,-2.3208923,-1.5453491,-1.2393799,-0.16821289
1625,A,707367539210744,-13.972549,-12.049881,3.7301788,-0.24093628,-1.8762665,-0.19320679
1625,A,707367559352346,-13.307159,-12.8680725,1.3739777,0.77001953,-2.231964,0.29736328
1625,A,707367579493947,-10.396881,-8.7960205,-3.4200287,-0.46566772,-2.4881134,0.58432007
1625,A,707367599635549,-10.269363,-4.2565002,-2.0970154,0.39179993,-1.9482727,-0.08015442
1625,A,707367619777150,-10.512558,-1.6885986,-1.4774628,-0.55075073,-0.27812195,-0.1665802
1625,A,707367639918752,-9.851837,-0.9029999,-2.425644,-0.5951233,-0.52368164,0.09680176
1625,A,707367660060353,-6.4785004,-1.2041016,-1.0466003,-0.80966187,-0.3447876,0.3544159
1625,A,707367680201955,-1.9393463,-1.2866211,0.91539,0.05076599,0.4807129,0.013183594
1625,A,707367700343556,-1.780899,-2.1679993,1.4602814,1.0836487,1.1474304,-0.27902222
1625,A,707367720485158,-4.0262146,-2.9055939,0.7887268,0.938797,1.6990509,-0.5068512
1625,A,707367740626760,-4.819214,-2.936905,1.3098602,0.39424133,1.8610382,-0.1073761
1625,A,707367760768361,-5.2350006,-2.8696594,1.6057281,0.5056915,1.897171,0.20884705
1625,A,707367780909963,-5.6480713,-2.9125824,1.4307404,0.28434753,1.2955475,0.969223
1625,A,707367801051564,-6.2442017,-2.0639954,2.4715729,0.5115204,1.1049347,0.09664917
1625,A,707367821193166,-7.638794,-1.2285919,4.504486,0.57318115,0.6799469,-0.7738037
1625,A,707367841334767,-9.657776,-1.1498871,3.964981,0.5885925,0.44006348,-0.58781433
1625,A,707367861476369,-12.301407,-2.974594,1.4139099,0.15788269,0.6895294,4.7302246E-4
1625,A,707367881617971,-15.212997,-5.317688,3.661972,-0.29663086,0.58114624,0.026275635
1625,A,707367901759572,-16.48294,-8.501144,5.5082245,-1.2283478,-0.500473,-0.16679382
1625,A,707367921901174,-10.782043,-6.3990326,6.424942,-0.71287537,-1.9476013,-0.05581665
1625,A,707367942042775,-5.866211,-3.4046783,6.2044983,0.21447754,-1.8194733,0.06817627
1625,A,707367962184377,-6.616806,-3.8434448,2.4993896,-0.78434753,-2.5198822,0.16603088
1625,A,707367982325978,-9.171753,-8.033966,-2.226944,-0.93685913,-1.9660034,-0.11947632
1625,A,707368002467580,-16.644592,-10.687195,-4.440735,-0.5868988,-1.0256042,-0.2440033
1625,A,707368022609181,-13.848801,-3.637329,0.40885925,-0.5211029,-0.20878601,8.392334E-4
1625,A,707368042750783,-5.4329224,-2.0255585,-1.6183624,-0.6071625,-0.004837036,0.5740204
1625,A,707368062892385,-4.439331,0.0892334,-2.1005402,-0.71520996,-0.6261444,0.22540283
1625,A,707368083033986,-7.839325,-1.8622131,-1.437439,-0.18769836,-0.21308899,-0.22802734
1625,A,707368103175588,-11.434387,-3.7037354,-2.3003387,1.1899872,0.9027405,-0.47587585
1625,A,707368123317189,-10.626129,-2.5658875,-1.8916626,0.8394928,0.82595825,0.19625854
1625,A,707368143458791,-8.232483,-2.1415558,-1.6880493,0.2695923,1.6103973,-0.061187744
1625,A,707368163600392,-7.1161346,-2.44133,-1.4103088,0.43113708,1.5947113,0.7604675
1625,A,707368183741994,-5.4713287,-2.4455872,-1.5464325,1.2592773,1.5979462,0.3963318
1625,A,707368203883596,-6.1181946,-2.412094,-0.38531494,1.3318329,1.2589569,-0.21881104
1625,A,707368224025197,-7.324112,-1.837738,-1.0886536,1.2579651,0.67430115,-0.72454834
1625,A,707368244166799,-8.107208,-1.0302734,-0.61273193,0.93862915,0.6235657,-0.27586365
1625,A,707368264308400,-7.9752655,0.00932312,-0.730896,0.16825867,0.75161743,0.099227905
1625,A,707368284450002,-7.560379,0.16569519,-0.59469604,-0.5624695,0.30274963,0.3023224
1625,A,707368304591603,-8.396744,-0.5545807,-0.31222534,-1.3604584,-1.041626,0.28320313
1625,A,707368324733205,-9.780045,-1.1092377,-0.49734497,0.05027771,-1.5652771,0.20422363
1625,A,707368344874806,-11.91095,-1.790451,-0.1786499,-0.123168945,-1.9549103,-0.29244995
1625,A,707368365016408,-12.658127,-2.3888702,-0.44569397,-1.379242,-2.5376282,0.010314941
1625,A,707368385158010,-13.163895,-1.2921143,-0.815506,-0.88983154,-1.5691681,-0.27700806
1625,A,707368405299611,-14.142838,1.1104279,-3.0290375,-0.6707611,-0.52871704,-0.048446655
1625,A,707368425441213,-15.080734,0.84298706,-3.5403595,-0.96987915,0.41537476,0.0892334
1625,A,707368445582814,-14.182465,-1.1838074,-3.2901611,-0.39988708,-0.48739624,0.52142334
1625,A,707368465724416,-13.038055,-2.5354462,-4.08197,-0.48666382,-0.5565491,-0.04147339
1625,A,707368485866017,-10.953705,-3.8987732,-5.376404,1.02034,0.50852966,-0.668396
1625,A,707368506007619,-8.836548,-4.2413177,-6.6013336,1.1752625,1.0806885,0.065322876
1625,A,707368526149221,-7.7991943,-7.238266,-2.4409332,0.52716064,1.6487427,-0.12638855
1625,A,707368546290822,-10.7907715,-11.342773,3.8999023,0.66619873,1.7487335,0.2049408
1625,A,707368566432424,-15.239868,-14.182175,2.072998,0.8738251,1.4515991,0.55989075
1625,A,707368586574025,-11.182404,-10.078735,-5.783615,0.9769592,1.232544,0.013076782
1625,A,707368606715627,-9.210785,-4.10672,-0.8450012,0.68418884,0.64126587,-0.57829285
1625,A,707368626857228,-9.170654,-1.4573822,-1.8105927,0.72239685,0.40827942,-0.720871
1625,A,707368646998830,-9.544678,-0.57466125,-2.5039368,0.70957947,0.5123596,-0.07902527
1625,A,707368667140431,-8.380508,-1.280365,-1.949234,-0.17474365,0.55529785,0.4676056
1625,A,707368687282033,-3.9440155,-1.7541656,0.23501587,-1.3855896,-0.5643921,0.49798584
1625,A,707368707423635,-0.7395325,-1.7668304,2.4934235,0.2398529,-1.5205688,0.3936615
1625,A,707368727565236,-3.2169037,-2.6765137,2.4754791,0.45100403,-1.6541901,-0.0597229
1625,A,707368747706838,-4.4029694,-2.8823547,1.7203827,-1.3544159,-2.1650696,-0.12171936
1625,A,707368767848439,-4.4651947,-2.563614,1.1548767,-1.5697021,-2.3927002,-0.114730835
1625,A,707368787990041,-4.733444,-1.973587,1.6393127,-0.9187317,-0.70495605,-0.03640747
1625,A,707368808131642,-6.526001,-1.0563202,3.6285706,-1.2133026,0.45063782,0.17062378
1625,A,707368828273244,-9.575378,-0.5094147,5.823654,-0.9364166,-0.34716797,0.53552246
1625,A,707368848414846,-12.60112,-1.4880219,4.381912,-0.7854614,-0.7662964,0.13581848
1625,A,707368868556447,-14.878586,-4.4874725,1.9356537,0.5810089,0.1309967,-0.60661316
1625,A,707368888698049,-15.707687,-7.318924,4.5516357,1.16716,1.1079407,0.068344116
1625,A,707368908839650,-13.171722,-7.503235,6.7718964,0.51916504,1.2453766,0.009674072
1625,A,707368928981252,-8.1866455,-3.708191,7.044113,0.7251587,1.7354736,-0.04246521
1625,A,707368949122853,-5.915512,-2.6687317,4.1676636,1.0601807,1.5904388,0.83843994
1625,A,707368969264455,-7.131775,-7.1219025,-0.76020813,1.3271179,1.3674164,0.2692871
1625,A,707368989406056,-13.017975,-10.742996,-4.3183746,1.265213,0.9552307,-0.6091614
1625,A,707369009547658,-17.435852,-6.583542,-2.198822,1.4140167,0.54756165,-0.79364014
1625,A,707369029689260,-9.943115,-0.9850311,0.8444061,0.6038208,0.569046,-0.20889282
1625,A,707369049830861,-4.8286285,-0.21166992,-3.0793915,-0.29844666,0.642807,0.25621033
1625,A,707369069972463,-6.2206116,0.35914612,-3.5816803,-1.1470184,-0.14945984,0.49475098
1625,A,707369090114064,-8.137039,-2.2651215,-2.6623993,-0.94799805,-1.5151825,0.6535187
1625,A,707369110255666,-9.815887,-3.7006683,-1.950592,0.5529175,-1.7266846,0.069488525
1625,A,707369130397267,-9.005737,-3.5644379,-0.8614197,-0.90174866,-2.0552063,-0.37878418
1625,A,707369150538869,-7.113571,-3.725998,-0.311203,-1.8602142,-2.6227417,0.020019531
1625,A,707369170680471,-6.334671,-3.8496704,-0.19528198,-1.011383,-1.0007019,-0.10206604
1625,A,707369190822072,-6.3434296,-3.32695,-0.83880615,-0.72554016,0.2084961,0.15600586
1625,A,707369210963674,-6.765091,-2.359726,-1.1337738,-0.6754608,0.2505188,0.3958435
1625,A,707369231105275,-7.725708,-1.5448456,-1.3689117,-0.7312927,-0.6485443,0.31987
1625,A,707369251246877,-8.148041,-1.3678894,-1.78862,0.11112976,-0.16667175,-0.34017944
1625,A,707369271388478,-7.4818573,-1.4354553,-1.0852814,1.363617,0.9376221,-0.55189514
1625,A,707369291530080,-7.6739197,-1.6962891,-0.24647522,0.96520996,1.4502411,0.108688354
1625,A,707369311671681,-9.1575775,-2.1065216,-0.37158203,0.9635925,1.8524628,-0.2601776
1625,A,707369331813283,-11.211914,-2.8514252,-0.39665222,1.0467377,1.6690674,0.5943756
1625,A,707369351954885,-12.547623,-3.102539,-0.21707153,1.3883514,1.3951263,0.38702393
1625,A,707369372096486,-12.722427,-1.3287506,-1.6056061,1.1545258,0.7054291,-0.34672546
1625,A,707369392238088,-13.345367,1.3179779,-3.3463135,1.024353,0.37956238,-0.75323486
1625,A,707369412379689,-14.764938,1.1608582,-3.7450714,0.6592407,0.5329437,-0.34965515
1625,A,707369432521291,-14.91507,-1.7790833,-3.4736938,-0.07394409,0.6507263,0.15086365
1625,A,707369452662892,-13.719864,-3.5610657,-5.955887,-0.78359985,0.082473755,0.5004883
1625,A,707369472804494,-10.618332,-3.2067413,-7.7556,-1.3122406,-1.4532166,0.2612152
1625,A,707369492946096,-8.792603,-3.6772614,-5.5087585,0.07026672,-1.6760101,0.07814026
1625,A,707369513087697,-11.199051,-7.979492,-0.5891571,-0.7367859,-2.0444183,-0.26350403
1625,A,707369533229299,-11.692017,-11.377838,2.3625946,-1.7542877,-2.6269379,0.0063934326
1625,A,707369553370900,-9.93158,-11.52861,-1.5516663,-1.3258209,-1.2958374,-0.19750977
1625,A,707369573512502,-8.434357,-8.486603,-3.9752655,-0.95658875,-0.055770874,0.07852173
1625,A,707369593654103,-9.47374,-4.185364,-1.5122833,-0.5027008,0.4232483,0.46244812
1625,A,707369613795705,-11.452789,-1.4980621,-0.85891724,-0.51823425,-0.6179352,0.526062
1625,A,707369633937306,-11.248505,-1.1905518,-1.4016876,-0.1532898,-0.32736206,-0.34355164
1625,A,707369654078908,-6.3544617,-1.6135254,-0.72683716,1.1902161,0.68263245,-0.7499237
1625,A,707369674220510,-1.4718628,-1.4673157,0.9175415,0.82814026,1.2141418,0.33654785
1625,A,707369694362111,-2.4668732,-1.8149719,1.7033539,0.5049591,1.5730591,-0.38282776
1625,A,707369714503713,-4.5351105,-2.4795685,0.75175476,0.8957977,1.7127686,0.4680786
1625,A,707369734645314,-4.914276,-3.0101776,0.46340942,1.4049683,1.6092224,0.7700958
1625,A,707369754786916,-4.508728,-3.3172302,0.89675903,1.2427368,1.0271301,-0.11495972
1625,A,707369774928517,-4.102112,-2.7859955,1.434494,1.1161041,0.4973297,-0.65270996
1625,A,707369795070119,-5.674713,-1.8615112,2.6923676,0.786499,0.46009827,-0.510849
1625,A,707369815211721,-8.746017,-1.627655,3.984726,0.18302917,0.66529846,-0.006378174
1625,A,707369835353322,-11.354401,-3.1499634,3.0868378,-0.63442993,0.35308838,0.4103546
1625,A,707369855494924,-12.626938,-4.905121,2.2422485,-1.715622,-0.8030548,0.48625183
1625,A,707369875636525,-16.412186,-6.656784,3.9381714,-0.30091858,-1.6320801,0.29586792
1625,A,707369895778127,-14.703064,-6.3186493,4.769211,-0.024002075,-1.8231659,-0.2468872
1625,A,707369915919728,-9.81221,-4.276993,6.696701,-1.3299408,-2.406784,0.05482483
1625,A,707369936061330,-7.1940613,-2.115921,5.276108,-1.2983246,-1.9915771,-0.16764832
1625,A,707369956202931,-6.7717743,-5.2974243,0.99142456,-0.6611023,-0.65509033,-0.0745697
1625,A,707369976344533,-9.703201,-10.018433,-3.7839203,-0.76963806,0.56799316,-0.020004272
1625,A,707369996486135,-16.710556,-11.855606,-4.621765,-0.49761963,-0.13391113,0.4567566
1625,A,707370016627736,-12.639038,-3.6131134,2.741333,-0.5583801,-0.6735382,-0.115737915
1625,A,707370036769338,-2.4132843,-1.9528198,-2.7106934,0.72702026,0.1815033,-0.7698822
1625,A,707370056910939,-5.4099884,-0.007583618,-2.8361359,1.3770142,1.2234192,0.18511963
1625,A,707370077052541,-9.509796,-1.5645294,-1.3259125,0.6854706,1.5780182,-0.17230225
1625,A,707370097194142,-11.107468,-2.0965424,-2.5742188,0.7501221,1.7485657,0.14353943
1625,A,707370117335744,-9.45961,-1.2417297,-1.9555511,0.92607117,1.6501007,0.5216217
1625,A,707370137477346,-9.671967,-1.7044525,-1.0228729,1.0483246,0.9692993,0.067611694
1625,A,707370157618947,-9.61644,-1.7923737,-0.70588684,0.48916626,0.564682,-0.37927246
1625,A,707370177760549,-7.2875366,-2.4076233,-0.8143463,0.25144958,0.5949707,-0.8185425
1625,A,707370197902150,-6.1463776,-2.511612,-1.6376648,0.85058594,0.5783081,-0.37219238
1625,A,707370218043752,-5.936249,-2.9410858,-2.279541,0.06750488,0.51846313,0.3274994
1625,A,707370238185353,-7.2850647,-2.4880981,-0.79589844,-1.2882843,-0.22906494,0.78067017
1625,A,707370258326955,-7.882843,-1.8179169,-0.38658142,-1.5220947,-1.7623444,0.34483337
1625,A,707370278468556,-7.145172,-1.9949341,0.13363647,0.01234436,-1.9423065,-0.13064575
1625,A,707370298610158,-8.606979,-1.3677979,-0.96151733,-0.9046936,-2.126236,-0.063934326
1625,A,707370318751760,-10.237473,-1.0878296,-2.1251678,-1.6418915,-2.318344,-0.08718872
1625,A,707370338893361,-10.775024,-1.9998016,-0.95188904,-0.9859619,-0.81503296,-0.4140625
1625,A,707370359034963,-11.070572,-2.4924164,-0.895401,-0.897995,0.15711975,-0.009048462
1625,A,707370379176564,-12.486343,0.36528015,-1.4065094,-0.26667786,0.36598206,0.47407532
1625,A,707370399318166,-14.091049,1.7062988,-1.3046417,-0.34346008,-0.53764343,0.4296875
1625,A,707370419459767,-15.004639,0.1711731,-2.079605,-0.2310791,-0.5619354,-0.23254395
1625,A,707370439601369,-14.238663,-1.5411835,-2.4165192,0.90289307,0.94369507,-0.42785645
1625,A,707370459742971,-12.589203,-2.7165375,-3.120819,0.99661255,0.91218567,0.22790527
1625,A,707370479884572,-10.650314,-2.981247,-6.203293,0.7793884,1.4830017,-0.31958008
1625,A,707370500026174,-8.48381,-3.1487732,-8.443466,0.7367096,1.5702057,0.70092773
1625,A,707370520167775,-7.9119873,-5.552597,-4.6138916,1.374466,1.4744568,0.5773163
1625,A,707370540309377,-11.5555725,-11.473297,2.8384247,0.9750519,1.2458038,-0.1963501
1625,A,707370560450978,-17.737518,-15.217545,3.4987183,1.1274109,0.66793823,-0.64167786
1625,A,707370580592580,-12.944946,-9.466187,-1.5851898,1.2189789,0.47227478,-0.61753845
1625,A,707370600734181,-10.332031,-3.0468292,-1.750473,0.30044556,0.52207947,-0.13798523
1625,A,707370620875783,-8.803238,-1.1163483,-3.3819427,-0.39834595,0.4571228,0.37669373
1625,A,707370641017385,-8.0221405,-0.7849579,-3.1286469,-1.2050934,-0.46102905,0.42918396
1625,A,707370661158986,-6.8014374,-1.5322266,-0.7172699,-0.9972534,-1.5598907,0.3834076
1625,A,707370681300588,-3.3092957,-1.2991028,1.8513031,-0.33747864,-2.0296783,0.009140015
1625,A,707370701442189,-1.7732086,-1.3527527,2.6215515,-1.7053528,-2.5424957,-0.07685852
1625,A,707370721583791,-4.185837,-2.273529,1.8013611,-1.7039948,-2.430313,-0.33633423
1625,A,707370741725392,-5.679245,-2.7526398,0.8604126,-1.0231171,-0.86668396,-0.032791138
1625,A,707370761866994,-5.444565,-2.3288116,0.8223419,-0.8437042,0.32008362,0.15371704
1625,A,707370782008596,-4.7777557,-1.6030579,1.4718018,-0.22372437,0.572937,0.37243652
1625,A,707370802150197,-5.3827515,-1.2985992,2.2292023,-0.26834106,-0.6927948,0.43188477
1625,A,707370822291799,-8.16127,-1.2943573,3.100235,0.1835022,-0.21888733,-0.561203
1625,A,707370842433400,-11.198425,-1.6173248,3.5969543,1.2733307,0.8607788,-0.37602234
1625,A,707370862575002,-13.985245,-2.9662323,2.982895,1.011795,1.2706146,0.28694153
1625,A,707370882716603,-16.883026,-6.935837,4.376999,0.90141296,1.2182007,-0.42243958
1625,A,707370902858205,-15.645447,-9.588959,6.0472565,0.9670563,1.5282593,0.8413696
1625,A,707370922999806,-9.2747345,-7.3900146,6.7928925,1.380188,1.2152863,0.64460754
1625,A,707370943141408,-5.482544,-5.1331177,5.400223,1.0813293,1.0348663,-0.21226501
1625,A,707370963283010,-5.9057007,-4.086731,1.4202881,0.7698517,0.6423187,-0.73049927
1625,A,707370983424611,-10.256134,-6.301529,-1.1607208,0.8068695,0.5519867,-0.67007446
1625,A,707371003566213,-15.386032,-8.405029,-2.2762756,0.43041992,0.61842346,-0.13938904
1625,A,707371023707814,-13.46196,-5.9347534,-0.69703674,-0.6098938,0.50286865,0.31488037
1625,A,707371043849416,-7.810364,-2.1300507,-0.58010864,-1.3505554,-0.49467468,0.3521881
1625,A,707371063991017,-6.0333557,-0.074661255,-2.1921387,-0.11366272,-1.7982178,0.25735474
1625,A,707371084132619,-7.03862,-1.3830109,-2.108673,0.09510803,-1.7302704,-0.27270508
1625,A,707371104274221,-8.624191,-3.524887,-2.6488953,-0.99160767,-2.1456604,-0.11503601
1625,A,707371124415822,-9.087051,-3.2815552,-2.7854462,-1.322815,-2.0462189,-0.25221252
1625,A,707371144557424,-7.719681,-2.7787476,-1.3859406,-0.61299133,-0.7076416,-0.23158264
1625,A,707371164699025,-6.137329,-2.7839203,-0.50605774,-0.51976013,0.44400024,-0.045028687
1625,A,707371184840627,-6.439331,-2.9038239,-0.713501,-0.20812988,0.51815796,0.4125824
1625,A,707371204982228,-7.5688934,-2.234314,-1.1932678,-0.50904846,-0.51145935,0.37065125
1625,A,707371225123830,-8.238602,-1.0947113,-2.0689392,-0.25447083,-0.3880005,-0.37461853
1625,A,707371245265431,-8.574432,-0.18684387,-2.2989655,0.67048645,0.71188354,-0.262146
1625,A,707371265407033,-8.283676,-0.019882202,-1.6082611,0.38064575,1.0526733,0.13703918
1625,A,707371285548635,-7.326477,-0.6249695,-0.39756775,0.37149048,1.2596436,-0.2606964
1625,A,707371305690236,-7.8569794,-1.042923,0.5265045,0.5757904,1.4283447,0.49505615
1625,A,707371325831838,-9.914108,-1.4844971,0.19404602,0.9873657,1.2564392,0.57328796
1625,A,707371345973439,-11.285049,-2.3455658,-0.10432434,0.6462555,1.0913696,-0.12608337
1625,A,707371366115041,-11.42897,-2.726471,0.4088745,0.45333862,0.6716919,-0.61286926
1625,A,707371386256642,-12.449768,-0.8371277,-1.1733551,0.82751465,0.43139648,-0.63220215
1625,A,707371406398244,-14.08786,1.3723907,-2.959671,0.31732178,0.47140503,0.06819153
1625,A,707371426539846,-15.8116,1.2875671,-3.8577728,-0.4977417,0.32815552,0.49604797
1625,A,707371446681447,-15.939682,-1.4406891,-4.9821167,-1.4012604,-0.9038086,0.43193054
1625,A,707371466823049,-13.623901,-3.6758118,-6.617691,0.22262573,-1.6541443,0.46958923
1625,A,707371486964650,-10.344772,-4.231262,-6.5464478,0.175354,-1.7449799,-0.087875366
1625,A,707371507106252,-9.133575,-6.0055695,-3.5350952,-1.5532837,-2.2230682,-0.09396362
1625,A,707371527247853,-11.145798,-9.4314575,1.744278,-1.4440918,-1.9287872,-0.29907227
1625,A,707371547389455,-12.568634,-11.428436,3.2317352,-0.6161499,-0.3675232,-0.10469055
1625,A,707371567531056,-10.883179,-9.739914,-2.1181183,-0.50357056,0.7082825,0.16697693
1625,A,707371587672658,-8.695923,-5.7104797,-2.3671112,-0.30226135,0.2701416,0.47535706
1625,A,707371607814260,-8.147568,-2.4172974,-1.9012909,-0.5808716,-0.7444763,0.20010376
1625,A,707371627955861,-9.283478,-0.9174957,-2.3027954,-0.14601135,-0.30848694,-0.56658936
1625,A,707371648097463,-10.371017,-1.1511383,-1.9122162,0.80329895,0.8973694,-0.2294159
1625,A,707371668239064,-5.778839,-0.9884796,-0.14387512,0.4541626,1.0718079,-0.034561157
1625,A,707371688380666,-1.9459991,-1.3759003,1.595581,0.5364075,1.4585266,-0.40753174
1625,A,707371708522267,-2.5757446,-2.0902252,2.0293732,0.82551575,1.550003,0.6205139
1625,A,707371728663869,-3.5873413,-2.3974304,1.5989838,1.2445526,1.282135,0.59931946
1625,A,707371748805471,-4.0603333,-2.3624115,0.9410858,0.8627167,1.1047058,-0.24230957
1625,A,707371768947072,-4.2690887,-1.9185486,0.37530518,0.8896942,0.6067047,-0.7046814
1625,A,707371789088674,-5.290634,-1.441803,1.0976105,0.8589325,0.48805237,-0.37097168
1625,A,707371809230275,-7.6690063,-1.2103729,4.459656,-0.08401489,0.58839417,0.18179321
1625,A,707371829371877,-10.741791,-2.3728943,6.248749,-1.1699829,0.12852478,0.526886
1625,A,707371849513478,-13.839737,-6.3421783,2.695694,-1.2252197,-1.4046631,0.14112854
1625,A,707371869655080,-16.031235,-9.041977,2.9057922,0.114974976,-1.7150879,-0.06098938
1625,A,707371889796681,-16.026917,-9.341187,4.08844,-0.5526428,-1.8687439,-0.26953125
1625,A,707371909938283,-7.8842773,-3.6419983,3.8621979,-1.3330688,-2.4257202,0.056671143
1625,A,707371930079885,-6.1336823,0.6418915,6.920105,-0.8577728,-1.3743134,-0.25535583
1625,A,707371950221486,-6.835037,-0.9536438,2.9293976,-0.51097107,-0.10107422,0.008544922
1625,A,707371970363088,-8.352966,-6.788086,-1.9997711,-0.5272064,0.62957764,0.2697754
1625,A,707371990504689,-18.503448,-14.509796,-6.3851624,-0.30836487,-0.19400024,0.4976349
1625,A,707372010646291,-17.64038,-6.903137,1.9827881,-0.6116791,-0.567276,-0.038589478
1625,A,707372030787892,-2.8301697,-2.0463562,-0.2541809,0.82347107,0.493927,-0.2848816
1625,A,707372050929494,-3.4730072,-1.2432861,-2.1783295,0.8175354,1.1008453,0.158432
1625,A,707372071071096,-7.916626,-0.86779785,-1.229248,0.7060852,1.166748,-0.3018036
1625,A,707372091212697,-11.578659,-2.4208527,-3.726181,0.9858856,1.7625885,0.36439514
1625,A,707372111354299,-10.559128,-2.249527,-2.8023987,1.3006897,1.5198517,0.7428436
1625,A,707372131495900,-9.680191,-2.164795,-1.4443054,1.0676117,1.2057343,-0.08746338
1625,A,707372151637502,-8.044769,-2.4307709,-0.29022217,0.9289093,0.7514496,-0.6927948
1625,A,707372171779103,-6.656433,-2.4812775,-0.77323914,0.7747345,0.3252411,-0.68388367
1625,A,707372191920705,-6.1785583,-2.4751892,-1.7664185,0.03593445,0.43115234,-0.110687256
1625,A,707372212062306,-5.9923096,-1.8582001,-1.2584991,-0.37612915,0.5047455,0.32321167
1625,A,707372232203908,-6.84404,-1.5251923,-1.8336945,-0.9475403,-0.2833557,0.54211426
1625,A,707372252345510,-7.9855347,-0.99612427,-1.609436,-0.36941528,-1.633194,0.45977783
1625,A,707372272487111,-7.781845,-1.1276703,-1.0754242,0.20788574,-1.8748627,-0.21566772
1625,A,707372292628713,-8.097717,-1.5680237,0.2967987,-1.1872559,-2.3057556,0.032913208
1625,A,707372312770314,-10.5073395,-1.6000061,0.58584595,-1.320282,-1.9794617,-0.33403015
1625,A,707372332911916,-11.956238,-0.95269775,-0.36419678,-1.055603,-1.0913849,-0.18011475
1625,A,707372353053517,-12.9384,-0.28440857,-1.4803314,-1.0956268,0.2696991,0.014785767
1625,A,707372373195119,-12.060684,0.5865326,-2.201828,-0.7490692,-0.02748108,0.43754578
1625,A,707372393336721,-13.831863,2.0133362,-2.6936646,-0.70285034,-0.7361145,0.3330536
1625,A,707372413478322,-14.201767,-0.3877411,-3.1962128,-0.19932556,-0.3874817,-0.31933594
1625,A,707372433619924,-13.100113,-3.6282043,-3.4429626,0.86125183,0.7213745,-0.46009827
1625,A,707372453761525,-11.772644,-4.754944,-5.6937256,0.9722595,1.126358,0.29354858
1625,A,707372473903127,-9.105484,-4.7255096,-6.761612,0.37287903,1.4230804,-0.18617249
1625,A,707372494044728,-8.309982,-6.1669617,-3.0476074,0.67515564,1.5128784,0.35350037
1625,A,707372514186330,-11.976883,-10.089523,3.2958832,1.1139374,1.4856415,0.61805725
1625,A,707372534327931,-16.368393,-14.067566,3.0204468,0.8109741,1.1100311,-0.07258606
1625,A,707372554469533,-9.969757,-10.738815,-4.4817505,0.40785217,0.5243988,-0.5215759
1625,A,707372574611135,-8.705551,-6.0659027,-2.6824646,0.417511,0.43951416,-0.5795746
1625,A,707372594752736,-11.065155,-1.9710999,-0.55848694,0.5261688,0.59243774,-0.22796631
1625,A,707372614894338,-12.67511,-0.36891174,-3.0892944,-0.15774536,0.54815674,0.16757202
1625,A,707372635035939,-11.088455,-0.77082825,-2.424118,-0.9168091,-0.18206787,0.48355103
1625,A,707372655177541,-3.612381,-1.28125,0.1807251,-0.63031006,-1.6369934,0.43458557
1625,A,707372675319142,0.17224121,-0.97795105,2.3631592,0.6797333,-1.5157166,-0.07066345
1625,A,707372695460744,-2.0325012,-1.9391022,2.2141113,-0.49809265,-2.0086212,-0.18807983
1625,A,707372715602346,-3.9809265,-2.1560822,0.6398163,-1.3053284,-2.0672607,-0.07609558
1625,A,707372735743947,-4.1926117,-2.3288116,0.17733765,-0.73197937,-0.9693146,-0.145401
1625,A,707372755885549,-3.7044678,-2.4004364,0.5500488,-0.6399536,0.060256958,0.059524536
1625,A,707372776027150,-4.0743256,-2.0334473,1.6706543,-0.51812744,0.46821594,0.31784058
1625,A,707372796168752,-6.4440002,-1.7817993,3.410797,-0.6244507,-0.5121765,0.48706055
1625,A,707372816310353,-9.746368,-2.5350037,4.5550385,-0.60601807,-0.63949585,-0.13246155
1625,A,707372836451955,-12.589722,-4.3437653,3.8033295,0.5682068,0.53778076,-0.45755005
1625,A,707372856593556,-15.296478,-6.5886383,2.945221,0.5427246,0.89826965,0.34703064
1625,A,707372876735158,-16.81668,-7.5565643,4.912903,0.35850525,1.2415924,-0.21751404
1625,A,707372896876760,-12.991577,-6.537567,5.6964417,0.8175049,1.472702,0.61953735
1625,A,707372917018361,-7.4350433,-3.6343079,5.909958,1.4062347,1.3163147,0.9060211
1625,A,707372937159963,-7.2499695,-2.6481628,4.678665,1.2240143,1.1413116,-0.052703857
1625,A,707372957301564,-8.6683655,-4.4635315,0.2428894,0.7514038,0.8167114,-0.68037415
1625,A,707372977443166,-12.115738,-8.157181,-2.9397583,0.7267914,0.56781006,-0.78570557
1625,A,707372997584767,-14.861893,-8.071854,-1.5526733,0.5667267,0.5857849,-0.23612976
1625,A,707373017726369,-9.649246,-4.216278,-0.08135986,-0.16600037,0.57899475,0.38998413
1625,A,707373037867971,-5.4276733,-1.7360992,-2.231369,-0.91519165,-0.14064026,0.6451416
1625,A,707373058009572,-6.6119385,-1.2143555,-2.4728851,-0.5196228,-1.5608978,0.2824707
1625,A,707373078151174,-8.464645,-2.2258453,-2.3414154,0.63974,-1.6231384,-0.20153809
1625,A,707373098292775,-8.74913,-2.8705902,-2.2891083,-0.7022095,-1.922409,-0.14350891
1625,A,707373118434377,-9.303406,-2.6128082,-2.1710205,-1.5328369,-2.0198517,-0.20137024
1625,A,707373138575978,-10.405197,-2.278061,-1.8869629,-1.0319214,-1.2905884,-0.056488037
1625,A,707373158717580,-8.837952,-2.5488892,-1.1179657,-0.67433167,0.13502502,0.13670349
1625,A,707373178859181,-6.475479,-2.8535767,-0.60899353,-0.38983154,0.5081024,0.25099182
1625,A,707373199000783,-5.804764,-2.3741302,-0.37768555,-0.47802734,-0.37071228,0.31478882
1625,A,707373219142385,-6.319702,-1.4261322,-1.1546478,-0.11680603,-0.50930786,-0.38064575
1625,A,707373239283986,-7.649292,-0.38409424,-1.894516,1.0554352,0.5593567,-0.74786377
1625,A,707373259425588,-7.7426453,0.033554077,-1.7659607,0.7451477,1.3729401,0.27955627
1625,A,707373279567189,-7.3580017,-0.4425354,-0.43397522,0.6456146,1.5640411,-0.23368835
1625,A,707373299708791,-8.644897,-0.61531067,0.37757874,1.1930237,1.6497955,0.109680176
1625,A,707373319850392,-10.583435,-1.1418457,-0.43481445,1.6074371,1.5249023,0.60939026
1625,A,707373339991994,-11.889679,-1.8506775,-0.38749695,0.88012695,1.1291504,-0.12145996
1625,A,707373360133596,-12.391037,-2.060135,0.07723999,0.46713257,0.43714905,-0.7029419
1625,A,707373380275197,-12.807083,0.18070984,-0.80844116,0.39741516,0.23425293,-0.71051025
1625,A,707373400416799,-13.876038,1.5540466,-2.1893616,0.125,0.4046936,-0.014968872
1625,A,707373420558400,-14.555389,0.088256836,-2.7321014,-0.9566803,0.3754425,0.58380127
1625,A,707373440700002,-13.660004,-2.1184387,-2.9464111,-1.5212708,-0.97694397,0.20549011
1625,A,707373460841603,-12.250366,-3.8286133,-5.1618805,0.06665039,-1.7548828,0.08432007
1625,A,707373480983205,-9.792755,-3.9569855,-7.65152,-0.40039063,-1.9529572,-0.22927856
1625,A,707373501124806,-7.815277,-4.4584045,-6.369995,-1.4292145,-2.3538055,0.14451599
1625,A,707373521266408,-10.499268,-8.639221,0.021957397,-1.4340363,-1.7705231,-0.07531738
1625,A,707373541408010,-17.498886,-14.858429,3.8680267,-0.9662018,-0.5102539,0.09793091
1625,A,707373561549611,-14.646072,-13.712906,-1.6146545,-0.8157654,0.5904083,0.26585388
1625,A,707373581691213,-9.801437,-6.5756683,-3.276245,-0.21739197,-0.2081604,0.53826904
1625,A,707373601832814,-8.808304,-2.1088257,-2.1894684,-0.32572937,-0.44169617,0.12940979
1625,A,707373621974416,-8.430069,-0.63845825,-2.8424377,0.682312,-0.01687622,-0.38720703
1625,A,707373642116017,-7.632065,-0.8460388,-2.6470184,0.72798157,0.8990021,-0.20578003
1625,A,707373662257619,-5.5152283,-1.097992,-0.43928528,0.5251465,1.0155182,-0.0967865
1625,A,707373682399221,-1.8515778,-0.96380615,1.9120026,0.7146301,1.5076294,0.26835632
1625,A,707373702540822,-1.6431427,-0.9008179,2.1274261,1.0197144,1.3844299,0.863739
1625,A,707373722682424,-3.1562042,-1.2802429,0.9342804,1.054657,1.130127,0.086868286
1625,A,707373742824025,-3.5427551,-1.2792816,0.6528015,0.55656433,0.82977295,-0.56544495
1625,A,707373762965627,-3.1836243,-1.278244,0.8326721,0.8954315,0.58265686,-0.70899963
1625,A,707373783107228,-4.063492,-1.6851807,2.0402222,0.8942871,0.48742676,-0.28294373
1625,A,707373803248830,-7.8325043,-2.0172882,5.4533844,-0.0488739,0.48406982,0.15132141
1625,A,707373823390431,-12.842514,-3.0931396,6.1714478,-1.0964203,7.6293945E-5,0.4543457
1625,A,707373843532033,-17.120636,-5.6275635,2.6341858,-1.1302948,-1.5163879,0.23466492
1625,A,707373863673635,-18.479523,-8.523712,5.382492,0.49983215,-1.4903107,0.06694031
1625,A,707373883815236,-13.118652,-8.70401,6.1251373,-0.9198456,-2.021164,-0.023849487
1625,A,707373903956838,-7.6613617,-4.610962,6.893631,-1.5973816,-2.232956,0.17079163
1625,A,707373924098439,-5.3622894,-1.532959,4.288101,-0.94241333,-0.8881836,-0.14900208
1625,A,707373944240041,-5.559067,-3.8847656,0.60240173,-0.8454437,-0.124938965,0.11647034
1625,A,707373964381642,-9.235779,-9.655121,-3.9856262,-0.7809906,0.26550293,0.19075012
1625,A,707373984523244,-19.283722,-11.057327,-3.8195038,-0.5736084,-0.6277466,0.3577423
1625,A,707374004664846,-12.696701,-2.0433807,2.7261505,0.031143188,-0.5107422,-0.03678894
1625,A,707374024806447,-3.3390656,-1.8003387,-2.155426,0.9627228,0.56251526,-0.49957275
1625,A,707374044948049,-6.1201935,0.91696167,-3.271698,0.53868103,1.0267792,0.17398071
1625,A,707374065089650,-8.116547,-2.033722,-1.7053528,0.74819946,1.5283966,-0.22773743
1625,A,707374085231252,-10.256989,-2.6077576,-1.4683075,0.76956177,1.5887604,0.88700867
1625,A,707374105372853,-11.580566,-1.2108917,-2.9269257,0.8344879,1.21875,0.49143982
1625,A,707374125514455,-8.239105,-0.74479675,-2.0248108,0.6232147,1.0487213,-0.5054321
1625,A,707374145656056,-5.916031,-1.7009735,-2.1658936,0.84750366,0.58432007,-0.86831665
1625,A,707374165797658,-4.60376,-2.9299164,-1.7490692,0.8856659,0.49391174,-0.45742798
1625,A,707374185939260,-5.1151276,-2.8540955,-0.7624817,0.2881012,0.70106506,0.0073547363
1625,A,707374206080861,-6.3260345,-2.3953247,-2.011551,-0.81144714,0.42904663,0.42388916
1625,A,707374226222463,-7.8032684,-1.8630829,-1.3691254,-1.4924011,-1.131485,0.144104
1625,A,707374246364064,-7.450897,-1.4572144,-0.6361542,0.76782227,-1.6513367,0.21652222
1625,A,707374266505666,-6.783249,-1.8020325,0.59184265,-0.47842407,-1.8961945,-0.34249878
1625,A,707374286647267,-9.509155,-1.6272583,-0.030853271,-1.7714996,-2.5711823,4.272461E-4
1625,A,707374306788869,-11.909164,-1.2650452,-0.58135986,-1.13031,-1.3676453,-0.28686523
1625,A,707374326930471,-13.168503,-1.368866,0.04093933,-0.6428528,0.02986145,0.12901306
1625,A,707374347072072,-12.976379,0.544281,-1.0884857,-0.6483307,0.6244507,0.21755981
1625,A,707374367213674,-14.500656,3.487152,-2.9387512,-0.5903473,-0.43737793,0.54722595
1625,A,707374387355275,-15.455688,1.4815674,-3.4245148,-0.54467773,-0.49220276,-0.06846619
1625,A,707374407496877,-15.103729,-1.8830414,-3.7340546,0.84295654,0.35533142,-0.8568878
1625,A,707374427638478,-13.497498,-3.9766388,-5.09848,1.0010223,1.023468,0.5097046
1625,A,707374447780080,-10.351486,-4.4245453,-6.9704895,0.46585083,1.3076172,-0.13246155
1625,A,707374467921681,-8.188461,-4.6085663,-4.8651276,0.8796234,1.4525452,0.4984131
1625,A,707374488063283,-11.717972,-8.167557,-0.53060913,1.4766998,1.2647858,0.7292023
1625,A,707374508204885,-16.545776,-12.851807,2.7600555,1.1947632,1.1116333,-0.09152222
1625,A,707374528346486,-11.860764,-10.969742,-2.6469116,0.7232361,0.67884827,-0.7552185
1625,A,707374548488088,-11.669098,-6.9413757,-3.9989014,0.7873688,0.48786926,-0.5884094
1625,A,707374568629689,-12.32608,-2.4142761,-0.40986633,0.42546082,0.5057831,-0.0053863525
1625,A,707374588771291,-11.736664,-1.1024475,-0.2955475,-0.6121826,0.3864746,0.38301086
1625,A,707374608912892,-8.427826,-1.6920929,-2.1935272,-1.7552948,-0.7905426,0.24264526
1625,A,707374629054494,-3.1203308,-1.7851715,-0.8170624,0.2683258,-1.6660461,0.23118591
1625,A,707374649196096,0.7314148,-0.7969208,0.6196594,-0.016113281,-1.7421112,-0.20585632
1625,A,707374669337697,-1.2402954,-1.46138,1.3622742,-1.5186615,-1.936264,-0.043151855
1625,A,707374689479299,-3.091034,-1.8873749,0.6355438,-1.7306671,-1.7464142,-0.2129364
1625,A,707374709620900,-3.670807,-2.3114471,0.38409424,-1.0179901,-0.34461975,-0.22766113
1625,A,707374729762502,-3.5133514,-2.0690613,0.4946289,-0.9154053,0.5194702,0.052719116
1625,A,707374749904103,-4.4762573,-1.2866669,1.3709259,-0.26419067,0.027740479,0.57011414
1625,A,707374770045705,-7.946533,-0.68266296,3.8811493,-0.49295044,-0.66329956,0.17823792
1625,A,707374790187306,-12.183258,-1.3160248,5.3755035,0.2759552,-0.2868805,-0.32595825
1625,A,707374810328908,-15.295013,-3.5996094,3.8834229,1.0251617,0.72402954,-0.20553589
1625,A,707374830470510,-16.264328,-6.846527,4.3202972,0.5713196,1.112793,-0.1250763
1625,A,707374850612111,-14.352798,-8.542145,5.5160522,0.6797333,1.6381683,-0.0690155
1625,A,707374870753713,-8.331863,-5.3483124,6.2877655,1.0020447,1.5774384,0.78845215
1625,A,707374890895314,-5.759552,-2.818573,5.347,1.1651154,1.1936188,0.25375366
1625,A,707374911036916,-6.957321,-4.885681,1.2216644,1.0272675,0.87179565,-0.3444519
1625,A,707374931178517,-13.194321,-10.9133,-2.8499146,0.8674011,0.47691345,-0.5796509
1625,A,707374951320119,-19.130692,-10.577103,-3.3822021,0.45074463,0.46704102,-0.43336487
1625,A,707374971461721,-12.788223,-3.4624634,0.51724243,-0.31851196,0.63194275,-0.0953064
1625,A,707374991603322,-5.423584,-0.53559875,-1.4723816,-1.6199036,0.14405823,0.26872253
1625,A,707375011744924,-5.5852966,0.1348114,-4.520111,-1.1308746,-1.4403381,0.37528992
1625,A,707375031886525,-8.596832,-1.8499146,-3.941101,0.3209381,-1.6457977,0.044937134
1625,A,707375052028127,-9.648514,-3.2630463,-2.7486725,-0.553772,-2.0644836,-0.36408997
1625,A,707375072169728,-8.432556,-3.1105042,-1.165329,-1.373352,-2.3424225,0.07972717
1625,A,707375092311330,-8.432129,-2.7398224,-0.009536743,-0.9101105,-1.6096039,-0.11817932
1625,A,707375112452931,-8.502136,-2.2893677,-0.4569397,-0.27340698,0.076049805,-0.031829834
1625,A,707375132594533,-7.600067,-2.197174,-1.3172913,-0.47407532,0.6266937,0.26148987
1625,A,707375152736135,-6.5207977,-1.6519623,-1.2549438,-0.2980652,-0.33184814,0.4340515
1625,A,707375172877736,-5.560379,-1.0098267,-2.1251984,-0.26280212,-0.4220276,-0.1681366
1625,A,707375193019338,-6.554901,-0.85849,-1.6400604,1.0879364,0.6131897,-0.78897095
1625,A,707375213160939,-8.27359,-0.65249634,-0.42440796,0.93470764,1.1039429,0.099990845
1625,A,707375233302541,-8.053467,-1.2966309,0.20648193,0.48416138,1.4656525,-0.27685547
1625,A,707375253444142,-8.737518,-1.8213959,0.9299164,0.76623535,1.7330475,0.49482727
1625,A,707375273585744,-10.65152,-1.196579,0.79460144,1.0180664,1.5153961,0.5852661
1625,A,707375293727346,-11.910141,-0.46688843,-0.524765,1.1506195,0.7731476,-0.042251587
1625,A,707375313868947,-12.333588,0.57429504,-1.520874,0.40493774,0.44024658,-0.4100647
1625,A,707375334010549,-13.3524475,1.9351349,-1.9000549,0.14346313,0.43266296,-0.72621155
1625,A,707375354152150,-14.750946,1.8538208,-1.8477783,0.3181305,0.47651672,-0.209198
1625,A,707375374293752,-15.026978,-0.34823608,-2.5705566,-0.49876404,0.4925995,0.4640808
1625,A,707375394435353,-14.121155,-2.3161926,-3.0031128,-1.8102264,-0.5278473,0.6860504
1625,A,707375414576955,-11.915176,-3.119522,-5.7562714,-0.35881042,-1.6242065,0.32383728
1625,A,707375434718556,-8.835541,-3.160202,-7.529358,0.005935669,-1.8737793,-0.20036316
1625,A,707375454860158,-6.9761505,-4.372162,-4.8151245,-0.99464417,-2.217575,0.28167725
1625,A,707375475001760,-13.9357605,-9.678513,2.9141693,-1.1313477,-1.9373627,-0.037322998
1625,A,707375495143361,-17.318527,-14.525345,3.6409912,-0.82089233,-0.48516846,-0.21780396
1625,A,707375515284963,-12.921478,-13.231445,-5.6163025,-0.87338257,0.2769165,-0.16879272
1625,A,707375535426564,-9.494949,-5.94722,-3.5155792,-0.2586975,-0.1614685,0.48265076
1625,A,707375555568166,-9.69989,-0.967865,-0.6924286,-0.5329132,-0.4071045,0.24507141
1625,A,707375575709767,-10.227646,0.6463928,-1.6367798,0.51742554,0.3850708,-0.6413727
1625,A,707375595851369,-9.449768,-0.71325684,-2.9083557,1.1380768,0.8112488,-0.044784546
1625,A,707375615992971,-3.2149506,-1.6000977,-0.74905396,0.4500885,1.2207489,0.0021514893
1625,A,707375636134572,0.4846344,-1.3776245,1.461029,0.9295502,1.6018982,-0.110321045
1625,A,707375656276174,-1.3438721,-1.969574,2.1690063,1.3050995,1.5216675,0.8122864
1625,A,707375676417775,-3.6646118,-2.9269257,1.2869568,1.5896149,1.1757813,0.12864685
1625,A,707375696559377,-4.605316,-3.123764,0.62828064,1.1641388,0.7785797,-0.4528656
1625,A,707375716700978,-3.908554,-3.1034393,0.54541016,0.7053833,0.44888306,-0.66145325
1625,A,707375736842580,-4.2256927,-2.1132965,1.5829926,0.59236145,0.36457825,-0.24674988
1625,A,707375756984181,-6.6809998,-1.2344818,4.1405487,-0.02558899,0.59750366,0.30558777
1625,A,707375777125783,-10.342392,-1.0615234,5.847641,-0.9216156,0.061691284,0.5402832
1625,A,707375797267385,-15.748398,-3.3277588,1.523941,-1.521286,-1.4113464,0.050750732
1625,A,707375817408986,-18.132233,-6.8108215,3.4887695,0.0053863525,-1.5398865,0.07321167
1625,A,707375837550588,-17.983948,-10.991226,5.8319855,-0.905777,-1.893753,-0.22918701
1625,A,707375857692189,-10.862793,-7.8559723,6.0599823,-1.9238434,-2.42128,-0.11880493
1625,A,707375877833791,-5.269287,-4.513611,6.4766693,-1.047226,-1.3723755,-0.44381714
1625,A,707375897975392,-5.6786804,-4.5793457,3.2914734,-0.6498871,-0.054382324,0.07887268
1625,A,707375918116994,-7.488922,-5.103775,-0.60557556,-0.50302124,0.9034271,0.20703125
1625,A,707375938258596,-13.703995,-7.484436,-2.2330017,-0.36044312,-0.5874176,0.4890747
1625,A,707375958400197,-17.961166,-6.8142395,-1.9394989,-0.46261597,-0.74295044,-0.0037384033
1625,A,707375978541799,-7.7121124,-1.9282532,-0.15988159,0.880188,0.11465454,-0.60954285
1625,A,707375998683400,-5.779587,-0.51478577,-2.641571,0.95225525,0.938797,0.45715332
1625,A,707376018825002,-6.0247345,-0.73703,-2.1019287,0.6257782,1.2425537,-0.40919495
1625,A,707376038966603,-7.644226,-2.885254,-0.91223145,1.0305481,1.6072388,0.48190308
1625,A,707376059108205,-8.531769,-3.299057,-3.3239288,1.4379425,1.2843933,0.9451294
1625,A,707376079249806,-10.891998,-1.8545074,-2.4098206,1.0047455,1.0162354,-0.06665039
1625,A,707376099391408,-8.789017,-0.8610077,0.4205475,0.6560669,0.7779083,-0.68110657
1625,A,707376119533010,-6.360611,-2.3284607,-0.09034729,0.9887543,0.44833374,-0.72306824
1625,A,707376139674611,-5.732727,-2.4553528,-1.5595703,0.57566833,0.5456238,-0.097229004
1625,A,707376159816213,-5.865814,-1.6201019,-1.9182587,-0.728302,0.5756073,0.44450378
1625,A,707376179957814,-7.7407837,-0.8505554,-2.1146088,-1.8947601,-0.6008911,0.29948425
1625,A,707376200099416,-9.220291,-0.1645813,-1.8292236,-0.07752991,-1.7351227,0.09597778
1625,A,707376220241017,-7.3411713,-0.30932617,0.059402466,-0.26509094,-1.735611,-0.13096619
1625,A,707376240382619,-7.8515472,-1.1583862,1.5221558,-1.552597,-2.1059418,0.058029175
1625,A,707376260524221,-10.039017,-0.5225525,-0.21382141,-1.6483154,-1.6980896,-0.34643555
1625,A,707376280665822,-12.315674,-0.76286316,-0.20509338,-0.9617615,-0.59365845,-0.18070984
1625,A,707376300807424,-12.997879,-0.3085022,0.059524536,-0.82206726,0.5387268,0.08798218
1625,A,707376320949025,-12.601456,1.1065521,-2.0241547,-0.2751007,0.3851776,0.4614563
1625,A,707376341090627,-13.656494,1.4965057,-2.7129517,-0.38546753,-0.7269745,0.19166565
1625,A,707376361232228,-14.591156,-1.3568878,-1.9920654,0.10368347,-0.3546753,-0.26358032
1625,A,707376381373830,-14.4032135,-3.6036072,-3.4441833,0.88505554,0.6941986,-0.30412292
1625,A,707376401515431,-12.70639,-3.6408844,-7.3167114,0.7311859,0.9782715,0.06813049
1625,A,707376421657033,-9.131119,-3.565689,-8.222992,1.0314484,1.5751038,-0.35295105
1625,A,707376441798635,-7.8210144,-3.5006256,-4.031555,1.3377686,1.5851135,0.7480774
1625,A,707376461940236,-11.713196,-8.624039,1.7480927,1.684082,1.2636261,0.5561981
1625,A,707376482081838,-16.875229,-13.335083,2.6623993,0.8978424,0.9700928,-0.2902832
1625,A,707376502223439,-12.519028,-10.619324,-4.490814,0.6729431,0.4788971,-0.77456665
1625,A,707376522365041,-10.885559,-5.41243,-4.2067566,0.71536255,0.36376953,-0.5759735
1625,A,707376542506642,-11.837921,-1.3356171,0.9239807,0.10357666,0.52134705,0.005279541
1625,A,707376562648244,-12.033981,-0.048721313,-1.6769104,-1.1092529,0.35949707,0.5574188
1625,A,707376582789846,-9.486374,-1.5745087,-2.1790314,-1.6779633,-1.0193787,0.36346436
1625,A,707376602931447,-3.122406,-2.4540558,0.7463989,0.6291046,-1.6997528,0.4918518
1625,A,707376623073049,0.3495636,-2.6050873,3.1948242,-0.38050842,-1.9729614,-0.19706726
1625,A,707376643214650,-1.1438599,-2.7358856,2.8502502,-1.9324341,-2.4241943,-0.025787354
1625,A,707376663356252,-3.524704,-2.587204,0.911911,-1.2491455,-1.6558075,-0.33052063
1625,A,707376683497853,-4.2966614,-1.6328125,-0.28079224,-0.6845093,-0.46817017,0.052368164
1625,A,707376703639455,-3.622345,-0.18624878,-0.008224487,-0.64253235,0.7847748,0.06454468
1625,A,707376723781056,-3.5757751,1.0046234,0.50328064,-0.39788818,0.18270874,0.4618988
1625,A,707376743922658,-6.0960083,0.7070465,2.5949097,-0.56192017,-0.61328125,0.024612427
1625,A,707376764064260,-10.354309,-2.1614227,4.024231,0.6131134,0.24760437,-0.6895752
1625,A,707376784205861,-14.591873,-6.6329346,1.7080688,1.3018188,1.0365143,0.042175293
1625,A,707376804347463,-17.205215,-9.249786,2.5927734,0.7003937,1.0342407,-0.0076141357
1625,A,707376824489064,-15.645935,-9.043976,6.0606537,1.0313721,1.5286865,0.20619202
1625,A,707376844630666,-10.189117,-5.2371674,6.4207916,1.0326691,1.4474487,0.9747467
1625,A,707376864772267,-8.264389,-1.272522,5.6460724,1.02565,1.0374908,0.036819458
1625,A,707376884913869,-9.138458,-2.436615,2.2233582,0.71806335,0.7977905,-0.54841614
1625,A,707376905055471,-10.659714,-8.656815,-2.7936401,0.70191956,0.50746155,-0.75871277
1625,A,707376925197072,-15.691895,-10.898941,-3.419632,0.81858826,0.46484375,-0.3846588
1625,A,707376945338674,-13.036041,-5.5536346,0.3965454,0.2730713,0.7437744,0.2850952
1625,A,707376965480275,-3.0519104,-1.8903809,0.02545166,-0.9895325,-0.026931763,0.5224762
1625,A,707376985621877,-2.6847534,-0.9506073,-1.832489,-1.5715637,-1.5033112,0.08015442
1625,A,707377005763478,-9.508499,-0.9542084,-2.384262,0.27934265,-1.5181732,0.21922302
1625,A,707377025905080,-12.812302,-1.8752136,-3.4457245,-1.0417786,-1.8108063,-0.15679932
1625,A,707377046046681,-9.875763,-1.9664459,-2.2635345,-1.6919861,-2.1677246,-0.17382813
1625,A,707377066188283,-7.9808807,-2.1754608,-0.7488861,-0.81759644,-1.056427,-0.45655823
1625,A,707377086329885,-8.637558,-2.093338,-0.97769165,-0.81114197,-0.028015137,-0.023483276
1625,A,707377106471486,-8.515793,-1.8963623,-1.4545746,-0.88160706,0.43811035,0.12095642
1625,A,707377126613088,-7.3050995,-1.629837,-0.9398651,-0.6481323,-0.7870178,0.44796753
1625,A,707377146754689,-6.254074,-1.325882,-0.5869446,0.038131714,-0.31936646,-0.26159668
1625,A,707377166896291,-6.2736053,-1.4602661,-1.4393768,1.0825043,0.67518616,-0.45887756
1625,A,707377187037892,-6.5894165,-1.7294617,-1.6951752,0.7086334,1.2442932,0.13909912
1625,A,707377207179494,-6.9645386,-2.0752869,-0.05105591,1.0270538,1.7223053,-0.41116333
1625,A,707377227321096,-8.304016,-1.9931946,1.427124,1.0553284,1.6506653,0.8275604
1625,A,707377247462697,-10.353439,-1.6256714,1.0311584,1.2543182,1.416748,0.52948
1625,A,707377267617784,-12.0811615,-1.0094147,-0.7008362,0.92375183,0.9244232,-0.36561584
1625,A,707377287759385,-12.064163,1.083374,-1.9849854,0.90441895,0.44081116,-0.70103455
1625,A,707377307900987,-12.415955,3.2518768,-2.4006042,0.8135071,0.37858582,-0.3138733
1625,A,707377328042588,-14.530151,2.281952,-2.2290802,-0.10209656,0.53593445,0.2531128
1625,A,707377348184190,-15.602737,-0.9091644,-2.7383728,-1.4859467,0.005493164,0.61125183
1625,A,707377368325791,-14.409348,-3.3247528,-5.467102,-1.5582428,-1.5447083,0.1821289
1625,A,707377388467393,-11.330063,-4.518051,-8.149078,0.91127014,-1.561142,0.46875
1625,A,707377408608995,-7.45105,-4.9634857,-7.174652,-0.5344238,-1.9439545,-0.16293335
1625,A,707377428750596,-7.906555,-7.2117615,-0.9225311,-1.7987366,-2.2599182,0.047592163
1625,A,707377448892198,-16.632843,-13.698486,6.214493,-1.21492,-1.0686493,-0.29562378
1625,A,707377469033799,-14.229614,-13.758682,0.9347229,-1.0555725,0.005264282,-0.08200073
1625,A,707377489175401,-10.3376465,-8.9930725,-6.2116394,-0.97665405,0.26087952,0.21958923
1625,A,707377509317002,-10.812332,-3.6210327,-1.7772064,-0.5396881,-0.68263245,0.3601532
1625,A,707377529458604,-11.367645,-0.3796234,-1.9084167,-0.27812195,-0.28346252,-0.41575623
1625,A,707377549600206,-11.113541,-0.32202148,-2.174347,1.1884613,0.9052582,-0.5879059
1625,A,707377569741807,-7.323654,-1.0741272,-0.73231506,1.157608,1.2432709,0.31147766
1625,A,707377589883409,-1.1961365,-1.122345,2.6476746,0.6716461,1.5962524,-0.14103699
1625,A,707377610025010,-0.27616882,-1.6640472,2.8340302,0.67193604,1.4852142,0.6736908
1625,A,707377630166612,-2.2875519,-2.2627563,1.2049408,0.99516296,1.3694,0.27519226
1625,A,707377650308213,-3.3200684,-2.1820526,0.2885437,0.96995544,0.87924194,-0.33821106
1625,A,707377670449815,-3.2864227,-1.8302307,0.110458374,0.73327637,0.4941101,-0.69963074
1625,A,707377690591416,-3.31398,-1.6925507,1.152298,0.5914154,0.4207611,-0.41209412
1625,A,707377710733018,-4.476776,-1.5987244,2.9873657,0.11186218,0.59568787,0.09567261
1625,A,707377730874620,-7.9112244,-1.9752197,4.8598022,-0.7229767,0.16912842,0.5006561
1625,A,707377751016221,-12.6050415,-2.9030914,4.5970764,-1.8389282,-1.3058777,0.3398285
1625,A,707377771157823,-16.660278,-5.1223145,1.3723297,0.17965698,-1.6002655,0.29397583
1625,A,707377791299424,-19.198593,-7.5084686,5.1115265,-0.48695374,-1.9662018,-0.20236206
1625,A,707377811441026,-14.775681,-8.050812,5.048126,-1.894104,-2.3134918,0.05897522
1625,A,707377831582627,-8.65744,-4.2386627,6.253479,-1.4061127,-1.2791595,-0.41316223
1625,A,707377851724229,-5.972412,-3.5085754,4.829895,-0.9208832,-0.23138428,0.011001587
1625,A,707377871865831,-5.9203186,-5.73822,0.11198425,-0.4379425,0.60321045,0.2942047
1625,A,707377892007432,-9.818253,-9.915985,-3.7281952,-0.2607422,-0.4125061,0.6552429
1625,A,707377912149034,-19.324219,-10.3645935,-4.519409,-0.37260437,-0.6486511,-0.11123657
1625,A,707377932290635,-12.879059,-1.7706451,2.3498535,0.8211975,0.45446777,-0.53263855
1625,A,707377952432237,-2.2823792,-0.91685486,-3.3342438,0.82318115,1.0777435,0.21304321
1625,A,707377972573838,-3.4310608,1.3168945,-2.4830627,0.7093811,1.4622192,-0.2164917
1625,A,707377992715440,-7.9528503,-1.8284149,-1.1900787,1.3252563,1.8803864,0.6325989
1625,A,707378012857041,-11.298111,-2.8236542,-3.0711517,1.6921387,1.5737305,0.81211853
1625,A,707378032998643,-12.093994,-1.7576904,-3.3852692,1.5472107,0.95884705,-0.29206848
1625,A,707378053140245,-8.531158,-0.7289734,-1.5998077,1.2822571,0.43180847,-0.72102356
1625,A,707378073281846,-6.9999847,-1.616806,0.07070923,0.55630493,0.34957886,-0.6659546
1625,A,707378093423448,-6.132721,-2.6262665,0.056549072,0.2000885,0.5304718,-0.16070557
1625,A,707378113565049,-6.090271,-2.3023071,-0.514328,-0.26307678,0.508667,0.25309753
1625,A,707378133706651,-6.835968,-1.7294006,-2.0888824,-1.228836,-0.39845276,0.4786377
1625,A,707378153848252,-7.7816315,-0.7066498,-1.6159973,-0.45231628,-1.4826355,0.31066895
1625,A,707378173989854,-7.419876,-0.39471436,-0.34346008,-0.08938599,-2.0267334,-0.23854065
1625,A,707378194131456,-7.0587006,-1.5216217,0.3846588,-1.443222,-2.1480408,-0.03390503
1625,A,707378214273057,-9.10965,-1.3277283,-0.12731934,-1.8778992,-2.003708,-0.3703308
1625,A,707378234414659,-12.115219,-1.1890411,-0.77615356,-1.3427887,-0.8583069,-0.116607666
1625,A,707378254556260,-12.819656,-1.1159363,0.27885437,-1.0387726,0.3161316,0.2000122
1625,A,707378274697862,-11.920059,0.42445374,-0.7813263,-0.2696991,0.09777832,0.50891113
1625,A,707378294839463,-13.647156,3.6441956,-2.8715973,-0.38038635,-0.613739,0.3218689
1625,A,707378314981065,-14.959473,2.0510864,-4.270035,0.11920166,-0.014404297,-0.3025055
1625,A,707378335122666,-14.474655,-1.4732666,-4.540512,1.0100708,1.065567,-0.32814026
1625,A,707378355264268,-13.096893,-4.186203,-4.7382813,0.81455994,1.0514832,0.04824829
1625,A,707378375405870,-10.937912,-4.699936,-6.4198456,1.0411072,1.6450348,-0.16447449
1625,A,707378395547471,-8.922287,-5.5131073,-6.3092194,1.1859131,1.5753937,0.9766693
1625,A,707378415689073,-10.258972,-9.208374,-0.43229675,1.2793274,1.135315,0.22080994
1625,A,707378435830674,-16.215408,-14.1961975,4.5154724,0.9959564,0.87397766,-0.41171265
1625,A,707378455972276,-12.806656,-12.8641205,-0.84321594,0.8670502,0.4907074,-0.80830383
1625,A,707378476113877,-9.16745,-7.600998,-4.896881,0.47953796,0.3474579,-0.45343018
1625,A,707378496255479,-9.157623,-2.8340912,-1.4035034,-0.027770996,0.57392883,0.12887573
1625,A,707378516397081,-9.389496,-0.57121277,-1.7149353,-1.1973419,-0.024902344,0.49142456
1625,A,707378536538682,-9.513519,0.50009155,-2.4513702,-0.8195343,-1.5491791,0.34094238
1625,A,707378556680284,-6.8848877,0.23797607,-1.4258881,0.4931488,-1.612793,0.047546387
1625,A,707378576821885,-2.0941467,0.09819031,0.66348267,-1.0928192,-2.0789642,-0.22488403
1625,A,707378596963487,-1.2892303,-0.47232056,1.700943,-1.6957855,-2.2572632,-0.09513855
1625,A,707378617105088,-3.440979,-1.3936157,1.7000427,-1.046814,-1.1595764,-0.3376007
1625,A,707378637246690,-4.4882813,-1.9872284,1.6674042,-0.68663025,0.2626648,-0.0069274902
1625,A,707378657388291,-4.3287506,-2.2435455,1.8656158,-0.29110718,0.24559021,0.7030487
1625,A,707378677529893,-5.181961,-2.092453,2.5593872,-0.5316162,-0.43266296,0.40759277
1625,A,707378697671495,-7.9722595,-1.784729,4.0227356,-0.13510132,-0.20568848,-0.42671204
1625,A,707378717813096,-11.195068,-1.583435,5.1160126,0.9724579,0.8668518,-0.20040894
1625,A,707378737954698,-13.775436,-2.4241638,4.0007324,0.59233093,1.0711212,0.042633057
1625,A,707378758096299,-15.563324,-5.41214,3.8595123,0.7784424,1.6925659,-0.2341156
1625,A,707378778237901,-15.485992,-7.463211,5.4254303,1.070343,1.5636902,0.6733551
1625,A,707378798379502,-11.496124,-5.7276917,5.306183,1.2940674,1.3281097,0.22798157
1625,A,707378818521104,-7.1089783,-3.6224213,4.4682007,0.79196167,0.73480225,-0.44921875
1625,A,707378838662706,-6.7141113,-4.920822,1.1511078,0.5847473,0.4054718,-0.77812195
1625,A,707378858804307,-11.421875,-9.594177,-3.2239685,0.50076294,0.36112976,-0.3438568
1625,A,707378878945909,-16.622086,-9.478607,-4.110626,0.07902527,0.5105133,0.2730713
1625,A,707378899087510,-10.992981,-2.741211,0.4575348,-0.68618774,-0.16485596,0.5901184
1625,A,707378919229112,-4.9296265,-0.7494812,-0.6634369,-1.0599365,-1.6404877,0.61660767
1625,A,707378939370713,-5.459442,0.38331604,-1.7988739,0.54422,-1.7904663,0.32151794
1625,A,707378959512315,-8.161026,-1.6941681,-2.22023,-1.0252075,-2.09906,-0.16993713
1625,A,707378979653916,-9.296936,-3.0885925,-2.4465485,-2.0883942,-1.9924316,-0.14569092
1625,A,707378999795518,-8.870514,-2.7207031,-2.0926514,-1.1512756,-0.66030884,-0.3126068
1625,A,707379019937120,-9.606583,-2.5816956,-2.0344086,-1.0421753,0.09945679,-0.0015716553
1625,A,707379040078721,-9.131546,-2.558426,-0.9508667,-0.6708679,0.22912598,0.40426636
1625,A,707379060220323,-7.172165,-2.6089935,-0.2513275,-0.43894958,-0.7355652,0.5715332
1625,A,707379080361924,-5.693863,-2.310913,-0.9281616,-0.32450867,-0.3617096,-0.2982025
1625,A,707379100503526,-5.5357513,-1.5499725,-2.0017395,0.87260437,0.66090393,-0.24693298
1625,A,707379120645127,-7.160324,-0.54774475,-2.0909882,0.8191681,0.9078369,0.31552124
1625,A,707379140786729,-8.441757,-0.13520813,-1.3380127,0.83343506,1.3993835,-0.23098755
1625,A,707379160928331,-8.814148,-0.5861511,0.78608704,1.0745087,1.4793243,0.8151703
1625,A,707379181069932,-10.064575,-0.6197357,0.64105225,1.3286743,1.2949524,0.6522217
1625,A,707379201211534,-11.992233,-0.65448,-1.4208832,0.8926697,1.0647888,-0.41566467
1625,A,707379221353135,-12.25061,-0.9048767,-0.8377228,0.7809906,0.5971985,-0.8968506
1625,A,707379241494737,-11.600967,-0.1477356,-0.35159302,0.80178833,0.3829193,-0.5226898
1625,A,707379261636338,-12.634949,1.7605896,-1.3600769,0.29852295,0.53804016,0.05569458
1625,A,707379281777940,-13.777039,1.1664581,-2.1759796,-0.6107483,0.33181763,0.41981506
1625,A,707379301919541,-14.002518,-1.3306122,-2.68042,-1.5716705,-0.7931824,0.19187927
1625,A,707379322061143,-13.271072,-3.7454224,-4.0479736,0.63591003,-1.4804993,0.36462402
1625,A,707379342202745,-11.068268,-4.096451,-7.1223297,-0.35609436,-1.8403778,-0.4024048
1625,A,707379362344346,-8.2921295,-4.23732,-6.7467194,-1.9134216,-2.3784637,-0.043441772
1625,A,707379382485948,-9.528641,-6.920532,-1.4259033,-1.6352386,-1.7228088,-0.3170929
1625,A,707379402627549,-17.283493,-13.383133,3.8624725,-0.91741943,-0.25761414,-0.060409546
1625,A,707379422769151,-12.950165,-13.236023,-1.980423,-0.6803894,0.59321594,0.12844849
1625,A,707379442910752,-9.337463,-8.981277,-4.8647003,-0.44940186,-0.16567993,0.6229553
1625,A,707379463052354,-11.233871,-3.5014038,-0.9434204,-0.5133209,-0.64024353,0.18284607
1625,A,707379483193956,-13.050186,-0.28684998,-1.2038116,0.66444397,0.32211304,-0.7281647
1625,A,707379503335557,-11.862869,-0.32463074,-2.9595337,1.0279999,1.0233307,0.15431213
1625,A,707379523477159,-6.3650208,-0.968338,-1.5654755,0.47618103,1.3756256,-0.1834259
1625,A,707379543618760,-0.40795898,-0.38882446,1.5222168,0.951355,1.6482697,0.061965942
1625,A,707379563760362,0.06716919,-0.9940491,2.6108398,1.405716,1.5269318,0.6676941
1625,A,707379583901963,-1.965744,-1.6798096,1.3325195,1.5023499,1.0260162,-0.034103394
1625,A,707379604043565,-3.1129608,-1.9407959,0.88557434,1.0511017,0.5892792,-0.47061157
1625,A,707379624185166,-3.74234,-1.8638763,1.0504456,0.7097168,0.46525574,-0.769577
1625,A,707379644326768,-4.3747406,-1.7394867,1.8196411,0.49195862,0.4710846,-0.19804382
1625,A,707379664468370,-6.9638214,-1.2713318,3.4724731,-0.41827393,0.5299072,0.43191528
1625,A,707379684609971,-11.060669,-1.4743652,5.3049774,-1.2139282,-0.21006775,0.43182373
1625,A,707379704751573,-14.032562,-3.8558655,2.6916351,-1.6224976,-1.5542297,0.10159302
1625,A,707379724893174,-15.321365,-5.912079,3.770462,0.0070648193,-1.8018494,-0.056274414
1625,A,707379745034776,-16.81401,-8.364639,6.1076355,-1.1235962,-2.0406647,-0.074035645
1625,A,707379765176377,-10.284744,-5.5133514,5.3061676,-2.0248718,-2.114746,0.09500122
1625,A,707379785317979,-6.7849274,-2.3398895,6.368561,-1.5216675,-1.0666351,-0.10173035
1625,A,707379805459581,-7.436386,-2.1322021,2.2644043,-1.1562042,-0.16278076,0.17355347
1625,A,707379825601182,-9.912003,-6.673752,-1.1432495,-0.652298,0.44856262,0.31196594
1625,A,707379845742784,-19.02742,-13.401398,-6.6934967,-0.3170166,-0.40377808,0.33668518
1625,A,707379865884385,-15.265961,-3.0881348,1.445343,-0.0922699,-0.32530212,0.06939697
1625,A,707379886025987,-2.581253,-1.8018799,-1.1933136,0.82270813,0.79148865,-0.41142273
1625,A,707379906167588,-4.1401978,-0.14083862,-2.6162567,0.6722717,0.9010773,-0.08380127
1625,A,707379926309190,-8.577637,-1.6435852,0.011108398,0.6638489,1.3682404,-0.48976135
1625,A,707379946450791,-11.894043,-2.870102,-4.364441,0.820755,1.5385132,0.7694092
1625,A,707379966592393,-10.488983,-1.6856995,-2.1753693,1.3895569,1.199234,0.61880493
1625,A,707379986733995,-9.735382,-1.5871277,-1.1209564,0.95506287,0.9584656,-0.23446655
1625,A,707380006875596,-6.7430725,-1.9973145,-0.6645813,0.5984497,0.48353577,-0.61317444
1625,A,707380027017198,-5.03302,-2.8465729,-0.9455719,0.41773987,0.31947327,-0.4909973
1625,A,707380047158799,-5.4582214,-2.7896729,-0.7216339,-0.06524658,0.40829468,0.105667114
1625,A,707380067300401,-6.29393,-2.3783875,-1.4363098,-1.1240234,-0.048217773,0.5098114
1625,A,707380087442002,-7.7530212,-1.2636108,-1.1643677,-1.4182281,-1.4335022,0.2154541
1625,A,707380107583604,-8.7285,-0.4486084,-1.2366638,1.0424652,-1.7334747,0.32537842
1625,A,707380127725206,-8.30751,-1.2394867,-0.113983154,-0.52693176,-1.8500366,-0.038864136
1625,A,707380147866807,-10.066879,-1.4492798,0.008453369,-1.96138,-1.6555176,0.054275513
1625,A,707380168008409,-11.894562,-1.0868683,-0.95254517,-1.6374207,-0.96699524,-0.38249207
1625,A,707380188150010,-11.795853,-0.44866943,-0.25126648,-1.2008667,-0.33668518,-0.07551575
1625,A,707380208291612,-11.612976,-0.05596924,-0.5083618,-0.7437134,0.48970032,0.32034302
1625,A,707380228433213,-12.4388275,1.467102,-2.3909302,-0.085617065,-0.33293152,0.592041
1625,A,707380248574815,-13.979813,2.8849945,-4.2010193,-0.16093445,-0.3976593,0.19015503
1625,A,707380268716416,-15.166153,0.3230896,-5.5646057,0.9547882,0.23881531,-0.71035767
1625,A,707380288858018,-14.078659,-3.524643,-7.3974915,0.9162445,0.89305115,0.35923767
1625,A,707380308999620,-11.63176,-5.7631836,-6.6056213,0.36686707,1.2382813,-0.43492126
1625,A,707380329141221,-9.89798,-6.330307,-3.6411133,1.071518,1.7458344,0.06147766
1625,A,707380349282823,-10.828033,-9.805618,0.5828552,1.4653015,1.5177765,0.95532227
1625,A,707380369424424,-13.826355,-12.938721,5.2230988,1.4914551,1.0896454,0.14759827
1625,A,707380389566026,-11.192581,-11.580338,1.4805603,1.1286926,0.7673187,-0.35630798
1625,A,707380409707627,-7.7093506,-7.314209,-4.5197754,0.9790802,0.48887634,-0.5791321
1625,A,707380429849229,-7.847824,-3.8943481,-2.1870575,0.41993713,0.3827362,-0.2929535
1625,A,707380449990831,-9.605087,-0.6053314,-1.7321167,-0.40434265,0.6139679,0.17723083
1625,A,707380470132432,-10.922668,0.4580536,-2.1006012,-1.2203674,-0.057998657,0.4460907
1625,A,707380490274034,-9.446411,0.42556763,-0.42581177,-0.53952026,-1.5611877,0.0647583
1625,A,707380510415635,-3.8131561,-0.21740723,1.4281769,0.4624939,-1.800003,-0.08758545
1625,A,707380530557237,-2.1810455,-1.6065216,2.0934448,-0.78622437,-2.104248,-0.042648315
1625,A,707380550698838,-2.8007202,-2.4417572,2.065033,-1.1045074,-2.1246185,-0.29066467
1625,A,707380570840440,-3.381012,-2.7685547,1.9033966,-0.72972107,-1.0001526,-0.29380798
1625,A,707380590982041,-3.5056763,-2.3870392,2.1759033,-0.63998413,0.17404175,-0.017852783
1625,A,707380611123643,-4.7303314,-1.2769165,2.9870453,-0.6480713,0.49241638,0.56336975
1625,A,707380631265245,-7.7267456,-0.33024597,4.1499634,-0.7000885,-0.46598816,0.44836426
1625,A,707380651406846,-10.655609,-0.75712585,4.759384,-0.5742035,-0.21214294,-0.38938904
1625,A,707380671548448,-12.847305,-2.9794006,3.65802,1.0085297,0.8363342,-0.68348694
1625,A,707380691690049,-15.295456,-6.9385986,3.0407104,1.3921967,1.2661133,0.1962738
1625,A,707380711831651,-15.748627,-9.537415,4.78714,0.6656494,1.115799,-0.4154663
1625,A,707380731973252,-12.04715,-7.508774,6.2786865,0.78868103,1.6406097,0.5367584
1625,A,707380752114854,-9.341888,-4.770294,5.388443,1.1970367,1.5670776,0.5108032
1625,A,707380772256456,-9.120148,-5.7799835,1.6152649,1.3943024,0.8070984,-0.0090789795
1625,A,707380792398057,-10.215286,-8.094284,-3.3378754,0.85931396,0.45021057,-0.43547058
1625,A,707380812539659,-12.391022,-7.2469025,-3.7356567,0.5219269,0.504364,-0.54060364
1625,A,707380832681260,-10.203995,-3.8296967,0.5806122,0.43374634,0.5284424,-0.2084198
1625,A,707380852822862,-5.9582977,-1.4985809,-0.10517883,-0.42286682,0.45661926,0.31288147
1625,A,707380872964463,-6.6484985,-0.4686432,-2.2499847,-1.5293427,-0.34643555,0.5189514
1625,A,707380893106065,-8.5412445,-1.9276733,-2.5592957,-0.7387085,-1.5714111,0.40600586
1625,A,707380913247666,-8.77211,-2.8746948,-1.5214844,0.29252625,-1.9617615,0.08326721
1625,A,707380933389268,-7.9829407,-2.591446,-1.0224762,-1.2085571,-2.027008,0.10702515
1625,A,707380953530870,-9.5854645,-2.3216248,-1.5870056,-1.311615,-2.024475,-0.24934387
1625,A,707380973672471,-10.153564,-1.733551,-1.0517273,-0.705246,-0.97158813,-0.28974915
1625,A,707380993814073,-7.7368774,-1.4851379,-0.4336853,-0.72120667,0.2349701,-0.11756897
1625,A,707381013955674,-6.123108,-1.3518829,-0.6234894,-0.48954773,0.16622925,0.39408875
1625,A,707381034097276,-5.9483185,-0.8800659,-1.5727234,-0.6152191,-0.76478577,0.3332367
1625,A,707381054238877,-6.890381,-0.58547974,-2.1705322,0.4155426,0.15826416,-0.94262695
1625,A,707381074380479,-8.114838,-0.38642883,-1.6368866,1.3263245,0.70184326,-0.16564941
1625,A,707381094522081,-8.289047,-0.695282,0.15797424,0.4590149,1.6960907,0.026138306
1625,A,707381114663682,-8.901138,-0.90141296,1.0829315,0.84239197,1.615387,-0.13546753
1625,A,707381134805284,-10.687393,-0.6855469,-0.40982056,1.3538971,1.5785828,0.76501465
1625,A,707381154946885,-12.25267,-0.41020203,-1.1382294,1.4364777,1.3103485,0.5029144
1625,A,707381175088487,-12.225525,-0.58706665,-0.773468,0.9612732,0.80960083,-0.31739807
1625,A,707381195230088,-12.105545,0.43511963,-0.8130646,0.8882446,0.4436493,-0.7237549
1625,A,707381215371690,-13.462799,0.9339142,-1.1775208,0.7407074,0.5076904,-0.47669983
1625,A,707381235513291,-14.4192505,-0.88856506,-2.313919,-0.24499512,0.56140137,0.096725464
1625,A,707381255654893,-13.470947,-3.087204,-3.6180878,-1.3831482,-0.14830017,0.54486084
1625,A,707381275796495,-11.985062,-3.905304,-6.6568146,-1.1674194,-1.5790558,0.31811523
1625,A,707381295938096,-9.154205,-3.2505798,-9.166061,0.28575134,-1.7381134,0.019714355
1625,A,707381316079698,-8.00177,-5.223053,-5.249939,-1.0215454,-2.1308594,0.17506409
1625,A,707381336221299,-14.315735,-11.519363,2.525711,-1.6365967,-2.085968,-0.07841492
1625,A,707381356362901,-16.157898,-15.110825,2.4620972,-1.3405914,-1.0091553,-0.26654053
1625,A,707381376504502,-13.000992,-11.795975,-2.4463654,-1.0295563,0.28237915,0.068374634
1625,A,707381396646104,-11.269882,-4.7125854,-1.035492,-0.59599304,0.13990784,0.46446228
1625,A,707381416787706,-11.164764,-0.18107605,-2.8791962,-0.44473267,-0.7041321,0.3415985
1625,A,707381436929307,-10.503967,0.16508484,-3.6748047,0.31471252,-0.28877258,-0.35279846
1625,A,707381457070909,-7.443451,-0.35031128,-2.125824,1.0730591,0.81455994,-0.29396057
1625,A,707381477212510,-1.8656158,-0.005493164,2.1192627,0.6692047,0.9932251,0.041275024
1625,A,707381497354112,0.17944336,-0.22633362,2.6091003,0.62153625,1.397171,-0.15081787
1625,A,707381517495713,-1.9551849,-1.384964,1.3497162,1.0151825,1.4637756,0.91378784
1625,A,707381537637315,-3.1827087,-2.0622864,0.13951111,1.5445404,1.2260742,0.7152252
1625,A,707381557778916,-4.13179,-2.5704346,-0.08918762,1.1269836,1.1091003,-0.48780823
1625,A,707381577920518,-4.6380615,-2.1595001,1.8662262,1.2462311,0.77975464,-1.0093689
1625,A,707381598062120,-6.203949,-2.2841644,3.6700745,0.9724884,0.56274414,-0.5526428
1625,A,707381618203721,-9.732697,-1.8628082,4.8424835,-0.117004395,0.6072998,0.028961182
1625,A,707381638345323,-13.616455,-1.7046051,3.2275238,-0.96588135,0.10548401,0.3607025
1625,A,707381658486924,-16.580658,-3.8977814,4.4618073,-1.9382172,-1.3075867,0.13363647
1625,A,707381678628526,-18.14302,-7.520691,5.83815,0.52124023,-1.5635071,0.50382996
1625,A,707381698770127,-10.924377,-5.853424,3.9399567,-0.6460724,-2.08255,-0.0814209
1625,A,707381718911729,-6.1705627,-4.460388,5.6318207,-1.7640533,-2.2223663,-0.0056152344
1625,A,707381739053331,-6.622162,-4.4002686,3.0756989,-1.2538452,-1.4279175,-0.33851624
1625,A,707381759194932,-7.405731,-6.3083496,0.1342926,-0.90989685,-0.25628662,-0.008361816
1625,A,707381779336534,-14.579651,-10.601212,-3.481781,-0.90423584,0.399292,0.19216919
1625,A,707381799478135,-16.013733,-8.407486,-2.0748138,-0.606781,-0.42808533,0.47947693
1625,A,707381819619737,-7.2348175,-3.3337402,1.887619,-0.37475586,-0.36860657,-0.2759552
1625,A,707381839761338,-5.2192993,0.0071105957,-2.281662,1.0356445,0.5137329,-0.7522125
1625,A,707381859902940,-7.2662506,1.7793121,-2.6651,1.3092346,1.0968323,0.40324402
1625,A,707381880044541,-9.359207,-2.3820343,-2.4988556,0.547348,1.3960724,-0.16741943
1625,A,707381900186143,-7.9035645,-3.0945282,-2.1280365,1.09375,1.6306305,0.08114624
1625,A,707381920327745,-8.021133,-2.6772919,-2.286621,1.6110535,1.5153656,0.8756256
1625,A,707381940469346,-10.901016,-2.5403748,-1.2585907,1.3798981,1.2567139,-0.078125
1625,A,707381960610948,-8.1905365,-2.5830383,-0.41342163,0.89746094,0.68925476,-0.62461853
1625,A,707381980752549,-6.382477,-2.8693695,0.0051116943,0.8088074,0.43804932,-0.5237732
1625,A,707382000894151,-6.048996,-1.4413147,-0.2667389,0.2590332,0.43052673,-0.01725769
1625,A,707382021035752,-5.4577026,-0.89634705,-2.229065,-0.7811279,0.22320557,0.49845886
1625,A,707382041177354,-6.871811,-0.30828857,-2.0695496,-1.7606506,-1.124939,0.39567566
1625,A,707382061318956,-7.952301,0.053512573,-1.7749329,0.3179474,-1.5960846,0.22309875
1625,A,707382081460557,-7.908493,-1.090271,-0.112091064,-0.18183899,-1.9962616,-0.049804688
1625,A,707382101602159,-10.287628,-0.5037689,-0.03338623,-1.4592133,-2.146637,0.1328125
1625,A,707382121743760,-12.8624115,-0.5981903,-1.9601593,-1.1893463,-1.6573334,-0.3827362
1625,A,707382141885362,-13.7690735,-0.67141724,-0.3691864,-0.6733093,-0.37979126,-0.051940918
1625,A,707382162026963,-12.704727,0.5169678,-0.7895355,-0.64630127,0.746048,0.18980408
1625,A,707382182168565,-13.726395,2.3233185,-1.9477692,-0.22373962,-0.3527527,0.54644775
1625,A,707382202310166,-14.63887,0.9717865,-2.8043518,-0.597229,-0.3785553,-0.057495117
1625,A,707382222451768,-14.714188,-1.9470673,-3.9559631,0.60491943,0.5359955,-0.7297363
1625,A,707382242593370,-13.0750885,-4.6562653,-5.0470276,0.8742676,0.86146545,0.19277954
1625,A,707382262734971,-10.301559,-4.357895,-7.327759,0.10316467,0.9053192,-0.11064148
1625,A,707382282876573,-8.632721,-4.943619,-5.3249664,0.55158997,1.2472687,0.47200012
1625,A,707382303018174,-12.681671,-8.909073,0.015548706,1.1176758,1.3875275,0.7883148
1625,A,707382323159776,-14.116455,-12.505783,1.5797424,1.1649628,1.1321106,0.023284912
1625,A,707382343301377,-10.306793,-11.234192,-3.7822418,0.9313507,0.96669006,-0.6894531
1625,A,707382363442979,-11.069641,-7.6115265,-2.3737793,1.0971527,0.63871765,-0.780426
1625,A,707382383584581,-12.478363,-2.68367,0.2339325,0.8999939,0.6043091,-0.12905884
1625,A,707382403726182,-12.027878,-0.80296326,-2.9697418,-0.04862976,0.4757843,0.3443451
1625,A,707382423867784,-9.3125,-0.6885681,-2.7040558,-0.90167236,-0.14848328,0.36192322
1625,A,707382444009385,-3.855667,-0.6598358,0.34326172,-1.3387604,-1.5373383,0.006378174
1625,A,707382464150987,-0.14575195,-0.29240417,3.041153,0.333786,-1.71138,0.25675964
1625,A,707382484292588,-0.6667175,-1.065628,1.7954865,-1.2259369,-2.0279236,0.060012817
1625,A,707382504434190,-2.6900177,-1.6972198,0.31565857,-1.6273346,-2.1293335,-0.2447815
1625,A,707382524575791,-3.5529633,-1.6300507,0.5372925,-0.99028015,-0.9545746,-0.33242798
1625,A,707382544717393,-4.2589417,-1.1387024,2.099762,-0.85505676,0.013137817,-0.11540222
1625,A,707382564858995,-6.327408,-0.9581146,4.180496,-0.7520294,0.048187256,0.42225647
1625,A,707382585000596,-9.739197,-1.6581879,4.4625397,-0.67985535,-0.47288513,0.23231506
1625,A,707382605142198,-13.122314,-2.7136993,4.2709045,-0.11671448,-0.17178345,-0.31785583
1625,A,707382625283799,-14.905075,-4.187027,4.4274445,1.0892487,0.7490387,-0.3156128
1625,A,707382645425401,-15.144302,-5.931427,5.669739,0.6384735,1.0311584,0.21647644
1625,A,707382665567002,-12.360352,-6.9080353,6.870224,0.20657349,1.280014,-0.15570068
1625,A,707382685708604,-8.58342,-6.244629,5.8312225,0.65623474,1.4064636,0.60487366
1625,A,707382705850206,-6.872589,-6.672928,2.098297,1.2972107,1.3547821,0.6950836
1625,A,707382725991807,-10.351883,-8.795441,-1.2985382,1.0186615,1.1142578,-0.21539307
1625,A,707382746133409,-14.149078,-8.907043,-2.3520966,0.91464233,0.59198,-0.7210541
1625,A,707382766275010,-11.986069,-5.090454,-0.50268555,0.85443115,0.5110779,-0.38389587
1625,A,707382786416612,-6.8491516,-1.6238403,-0.7628174,0.020080566,0.7273407,0.024765015
1625,A,707382806558213,-7.021469,0.4587555,-3.5686493,-0.60494995,0.34129333,0.19378662
1625,A,707382826699815,-8.230408,-1.1660004,-2.7019653,-1.3366699,-0.7905426,0.31195068
1625,A,707382846841416,-7.752548,-2.848816,-1.1040039,0.25637817,-1.3868713,0.46875
1625,A,707382866983018,-7.4609833,-2.596878,-2.4912262,-0.22831726,-1.8810272,-0.1053009
1625,A,707382887124620,-10.192993,-2.1819153,-3.7164764,-1.5130615,-2.1788788,0.037612915
1625,A,707382907266221,-10.917633,-1.8491821,-1.7549133,-1.6952362,-2.076065,-0.37316895
1625,A,707382927407823,-6.976593,-2.285202,0.55197144,-0.60665894,-0.70025635,-0.044143677
1625,A,707382947549424,-4.791397,-3.1718445,-0.15518188,-0.5544281,0.58218384,0.059265137
1625,A,707382967691026,-5.375763,-2.4921722,-1.6815033,-0.42959595,0.0047302246,0.5237427
1625,A,707382987832627,-7.869156,-0.6858063,-1.7021179,-0.9079132,-0.68032837,0.058746338
1625,A,707383007974229,-8.752808,0.5850067,-1.4371185,0.5287018,0.08451843,-0.86299133
1625,A,707383028115831,-7.947693,0.44825745,-1.024231,1.0074463,0.71258545,0.121032715
1625,A,707383048257432,-8.607681,0.030136108,-0.8775635,0.34347534,1.3987885,0.0031738281
1625,A,707383068399034,-10.695023,-0.17002869,-1.6192932,0.7070465,1.3667603,-0.11326599
1625,A,707383088540635,-13.323074,-0.5648041,-1.4311676,1.309494,1.5369415,0.698761
1625,A,707383108682237,-14.390823,-0.77612305,-0.7148285,1.0743408,1.3539429,0.28842163
1625,A,707383128823838,-14.31163,-0.3140869,-0.3758545,0.5695801,0.9786682,-0.49517822
1625,A,707383148965440,-14.484314,-0.4100952,-0.33129883,0.6565094,0.5573883,-0.8360748
1625,A,707383169107041,-14.09668,-1.1303558,-0.96684265,0.5467224,0.4169159,-0.4387207
1625,A,707383189248643,-12.860107,-1.3518066,-1.8254547,-0.07281494,0.540802,0.16487122
