Subject-Id,Activity Label,Time stamp,Accel_x,Accel_y,Accel_z,Gyro_x,Gyro_y,Gyro_z
1648,A,459619941412000,-0.5364844,3.3290772,-8.971744,-0.013848438,-0.15339808,-0.10439592
1648,A,459619961476000,-0.7089258,3.3769777,-9.050779,-0.035153728,-0.17896444,-0.080960095
1648,A,459619981604000,-0.9508228,3.4679885,-9.204061,0.05539375,-0.12357068,0.07563378
1648,A,459620001854000,-0.25147706,3.283572,-9.0891,0.17789917,-0.10972224,0.12250541
1648,A,459620021950000,-0.30895755,3.4296682,-8.969349,0.046871636,-0.18002969,0.098004326
1648,A,459620042144000,-1.0538087,3.9350173,-9.048384,0.0053263223,-0.06178534,0.04580637
1648,A,459620062273000,-1.4705421,4.148174,-9.275911,0.082025364,0.08948222,0.0
1648,A,459620082369000,-1.3675562,4.181704,-8.899893,-0.31318775,-0.24927188,0.07563378
1648,A,459620102590000,-0.859812,4.064348,-8.54543,-0.51984906,-0.42077947,0.02876214
1648,A,459620122686000,-0.60594,3.9278321,-8.883128,-0.27803403,-0.31318775,-0.09054748
1648,A,459620142864000,-0.5963599,3.8344264,-9.412427,-0.73290193,-0.8223842,-0.05539375
1648,A,459620162960000,-0.6849756,3.8008962,-9.565708,-0.49002165,-0.314253,-0.10972224
1648,A,459620183146000,-0.7568262,3.788921,-9.501043,0.25353295,0.20453078,-0.21837921
1648,A,459620203242000,-0.6322852,3.652405,-9.424402,0.033023197,0.014913702,-0.096939065
1648,A,459620223435000,-0.7759864,3.6931202,-9.239985,0.23009712,0.21837921,0.043675844
1648,A,459620243531000,-0.9627979,3.781736,-9.026829,0.19600865,0.024501082,0.0031957934
1648,A,459620263722000,-1.2382251,3.891907,-9.807606,-0.1257012,-0.094808534,-0.04261058
1648,A,459620283818000,-1.1831397,3.7649708,-10.243499,0.060720075,0.084155895,-0.020240024
1648,A,459620304060000,-0.6442603,3.5566041,-9.673484,0.040480047,-0.03834952,-0.041545313
1648,A,459620324156000,-0.27542725,3.3817677,-9.081915,0.053263225,-0.007456851,-0.05006743
1648,A,459620344371000,-0.488584,3.5039136,-8.595725,0.05006743,-0.0777643,-0.033023197
1648,A,459620364467000,-0.68018556,3.7458107,-8.135881,0.010652645,-0.08948222,-0.0053263223
1648,A,459620384701000,-1.1328443,4.0595584,-9.386082,0.09054748,-0.07669904,-0.002130529
1648,A,459620404797000,-1.9854712,4.3086405,-10.35367,0.113983296,-0.113983296,-0.041545313
1648,A,459620425531000,-1.5136524,4.2751102,-9.860296,0.1107875,-0.11824436,-0.06498113
1648,A,459620445627000,-1.0226734,4.2104445,-8.150251,0.15020229,-0.18642128,-0.09374327
1648,A,459620465851000,-1.0442286,4.397256,-6.983877,0.1917476,-0.20985709,-0.080960095
1648,A,459620485947000,-1.8226099,4.754114,-7.565867,0.3323625,-0.16192019,-0.03195793
1648,A,459620506161000,-2.0070264,4.7636943,-9.230406,0.23116238,-0.24820662,-0.04474111
1648,A,459620526257000,-2.1171973,4.6894484,-9.7740755,0.28868666,-0.26418558,-0.10865697
1648,A,459620546427000,-2.3327491,4.773274,-8.657996,0.36432046,-0.24074976,-0.10759171
1648,A,459620566523000,-2.0357666,4.7325587,-7.668853,0.19068234,-0.3153183,0.027696876
1648,A,459620586738000,-1.6190332,4.519402,-8.176597,0.36218992,-0.23755397,0.18109496
1648,A,459620606834000,-1.4178516,4.361331,-9.321417,0.57311225,-0.2130529,0.24074976
1648,A,459620627066000,-1.3507911,4.29427,-9.70941,0.3930826,-0.36964676,0.14168017
1648,A,459620647162000,-1.3986914,4.2751102,-9.192085,-0.03089267,-0.62744075,0.16618125
1648,A,459620667367000,-1.587898,4.402046,-8.399334,-0.6040049,-0.9108011,0.15446335
1648,A,459620687463000,-1.6046631,4.4643164,-8.023315,-1.5595472,-1.4508902,-0.3121225
1648,A,459620707667000,-1.5807129,4.4643164,-8.4376545,-2.343582,-1.9792614,-0.62104917
1648,A,459620727763000,-1.343606,4.3278003,-8.916658,-3.0381343,-1.8013622,0.07137272
1648,A,459620747999000,-1.343606,4.29427,-8.727451,-2.8879318,-1.0940266,0.64341974
1648,A,459620768095000,-1.8369801,4.4475513,-8.454419,-2.912433,-1.3262542,-0.14807177
1648,A,459620788299000,-1.8465601,4.471502,-8.590936,-4.133226,-2.6908581,-1.010936
1648,A,459620808395000,-1.4825171,4.311035,-8.739427,-3.134008,-2.9294772,-0.737163
1648,A,459620828603000,-1.5232325,4.3014555,-8.780142,-0.850081,-0.97258645,-1.0013486
1648,A,459620848699000,-1.8226099,4.394861,-8.811277,0.2066613,-0.19707392,-1.015197
1648,A,459620868951000,-1.590293,4.2990603,-8.519085,-0.101200126,-0.47830373,-1.1068097
1648,A,459620889047000,-1.1975098,4.2224197,-8.380174,-0.5965481,-0.91612744,-1.6671388
1648,A,459620909248000,-1.1160791,4.26553,-8.485555,-1.2665994,-1.4263891,-2.159291
1648,A,459620929344000,-1.2597803,4.361331,-8.854387,-0.5837649,-0.46232477,-3.1425302
1648,A,459620949552000,-1.099314,4.385281,-8.8879175,0.6327671,0.28336033,-4.581702
1648,A,459620969648000,-0.8310718,4.4403663,-8.53106,0.5752428,1.1696603,-5.0493536
1648,A,459620989851000,-0.75203615,4.5864625,-8.258028,-0.4133226,1.401888,-5.6373796
1648,A,459621009947000,-0.7879615,4.751719,-8.552615,0.77125144,1.5414376,-5.6043563
1648,A,459621030116000,-0.68976563,4.7876444,-8.708291,1.7747306,1.7960359,-5.086638
1648,A,459621050212000,-0.72569096,4.9217653,-8.5430355,1.0088054,1.0215886,-4.5966163
1648,A,459621070389000,-0.728086,4.9385304,-8.341853,0.7701862,-0.36112466,-3.4205642
1648,A,459621090485000,-0.48618898,4.87147,-8.380174,0.8926916,-0.99495703,-1.7246631
1648,A,459621110660000,-0.23231691,4.8259645,-8.919053,0.73609775,-1.0982877,-0.25246766
1648,A,459621130756000,0.13891114,4.768484,-9.19448,0.11824436,-1.212271,0.15978967
1648,A,459621151005000,0.38080812,4.799619,-8.475974,-0.61678815,-1.3049489,-0.17789917
1648,A,459621171101000,0.39278322,4.869075,-7.941885,-0.6860303,-0.8032094,-0.5219796
1648,A,459621191261000,0.3161426,4.9864306,-8.334668,-0.20985709,0.42077947,-0.07669904
1648,A,459621211421000,0.18681154,5.1876125,-8.715476,-0.25353295,0.9139969,1.0897655
1648,A,459621231549000,-0.19160157,5.503755,-9.1202345,-0.6689861,0.34834146,2.2146847
1648,A,459621252011000,-0.17723145,5.5372853,-9.072334,-0.34408042,0.5592638,2.835734
1648,A,459621272065000,-0.009580079,5.494175,-8.3250885,0.1587244,1.3677995,3.0328078
1648,A,459621292161000,-0.19639161,5.4989653,-7.582632,0.28016454,1.6106799,3.5345476
1648,A,459621312345000,-0.15328126,5.4534597,-7.7550735,0.37071204,1.4253238,3.879693
1648,A,459621332441000,0.20118165,5.3097587,-8.519085,0.567786,1.2420983,3.2362735
1648,A,459621352537000,0.37362307,5.1564775,-9.057964,0.69774824,1.0162623,2.4053671
1648,A,459621372633000,0.19878663,5.017566,-9.460327,0.66365975,0.8841695,2.2370553
1648,A,459621392843000,-0.26105714,5.103787,-9.898616,0.57098174,0.8000136,2.4266725
1648,A,459621412939000,-0.9627979,5.352869,-10.071057,0.28442562,0.62104917,2.3979104
1648,A,459621433149000,-1.3196558,5.237908,-10.025552,0.099069595,0.29614353,1.743838
1648,A,459621453245000,-1.341211,4.641548,-10.408755,-0.09374327,0.5209143,0.57311225
1648,A,459621473554000,-1.1543995,4.033213,-10.921289,-0.660464,0.037284255,-0.4527374
1648,A,459621493650000,-1.5663428,4.0930886,-11.04104,0.14487597,-0.83942837,-0.7052051
1648,A,459621513863000,-2.7303224,4.4691067,-10.267449,-0.04474111,-1.7789917,-1.4647386
1648,A,459621533959000,-5.0774417,5.621111,-10.317744,-1.0428939,-2.6333337,-2.7334685
1648,A,459621554080000,-8.449629,6.8689165,-11.232642,-0.5858955,-2.0559604,-3.7848847
1648,A,459621574176000,-9.901011,6.964717,-10.890154,0.36645097,-1.2953615,-3.7390783
1648,A,459621594367000,-9.254355,6.248606,-7.151529,-0.72970617,-2.0080235,-2.871953
1648,A,459621614463000,-9.139395,5.8438478,-5.3959794,-3.8115163,-4.2312303,-2.6194854
1648,A,459621634674000,-4.742139,5.113367,-5.5157304,-6.2179484,-6.2935824,-3.0668964
1648,A,459621654770000,-1.8058448,5.357659,-7.311995,-1.8993665,-5.0408316,-1.6927053
1648,A,459621674944000,-0.35685793,5.0582814,-9.575289,2.5640914,-2.2370553,-0.72011876
1648,A,459621695040000,-3.6045046,3.8368216,-6.327642,1.8780613,-0.68816084,-1.4263891
1648,A,459621715279000,-5.5253105,5.1397123,-1.3986914,1.514806,-0.11611383,-1.4913702
1648,A,459621735375000,-4.703819,4.9337406,2.9865894,0.61572284,0.572047,-0.68176925
1648,A,459621755558000,-2.1148024,3.396138,1.4753321,2.6578348,1.3496901,-0.35792887
1648,A,459621775654000,-2.0932472,2.806963,0.96040285,2.855974,1.2442288,-0.9683254
1648,A,459621795844000,-3.06323,3.4440382,1.0083033,1.4636734,1.5723304,-0.52837116
1648,A,459621815940000,-3.5063088,3.3554225,-0.21315674,0.7190535,1.8535602,-0.098004326
1648,A,459621836149000,-2.816543,2.7662477,-1.6908839,-0.11611383,1.530785,-0.01917476
1648,A,459621856245000,-2.2393434,2.0549269,-1.7675245,0.3334278,2.4884577,0.34301516
1648,A,459621876458000,-2.6201515,0.8909473,-1.7651294,1.5595472,3.5739622,0.52411014
1648,A,459621896554000,-3.1207106,1.2789404,-0.76401126,0.94595486,2.4064324,0.1768339
1648,A,459621916870000,-2.5914114,2.2728736,-0.4143384,0.0127831735,1.1984226,-0.5965481
1648,A,459621936966000,-3.908672,0.244292,-0.7424561,0.10546118,1.2420983,-0.12676647
1648,A,459621957173000,-5.4103494,-1.5567628,0.72569096,0.0777643,1.5403724,0.8948221
1648,A,459621977269000,-5.1804276,-2.550696,1.9998415,-0.29827404,1.0407634,1.0386329
1648,A,459621997510000,-6.229446,-3.0752053,3.0536501,-0.6306366,0.14594123,0.5422196
1648,A,459622017606000,-9.625584,-4.0595584,3.2572267,-0.3270362,-0.2695119,0.6125271
1648,A,459622037817000,-12.490027,-6.375542,1.2334352,-1.0791129,-0.54648066,-0.113983296
1648,A,459622057913000,-11.941567,-8.691526,-3.5063088,-2.9188247,-1.3166668,-0.958738
1648,A,459622078107000,-13.541441,-9.596844,-3.9685476,-3.4386737,-1.5233282,-0.5784386
1648,A,459622098203000,-14.743741,-11.53681,-1.7794995,-2.1997712,-1.2101405,-0.20133498
1648,A,459622118409000,-17.886007,-12.703184,1.4082716,-1.8887138,-0.7350325,0.9086706
1648,A,459622138505000,-20.530107,-12.437337,2.454895,-1.5638082,-0.26312032,1.5957662
1648,A,459622158672000,-19.809208,-11.373948,0.6610254,-0.51984906,-0.90973586,1.587244
1648,A,459622178768000,-17.804577,-10.197993,-2.1674929,-1.067395,-1.3741912,1.2868395
1648,A,459622198972000,-16.59509,-8.974138,-3.9422023,-1.6884441,-0.77231675,-0.15339808
1648,A,459622219068000,-16.266973,-7.6113725,-3.2284865,-0.94488955,-0.05752428,-0.68176925
1648,A,459622239289000,-15.960411,-6.0617948,-1.3052857,0.32810146,-0.49002165,0.5006743
1648,A,459622259385000,-15.395186,-3.781736,-0.09580079,0.10546118,-0.14168017,0.47617322
1648,A,459622279555000,-14.267132,-2.2321582,-0.10777588,0.7499462,-0.07350325,-0.28975195
1648,A,459622299651000,-13.558207,-0.99393314,-0.44547364,1.3752564,-0.18002969,-0.6540724
1648,A,459622319846000,-12.533137,-0.05269043,-0.82388675,1.2634037,2.0516994,0.8202536
1648,A,459622339942000,-10.5764065,-0.33290774,-1.6525636,1.2261194,2.702576,1.1888351
1648,A,459622360061000,-8.792117,-1.1807446,-2.4812403,1.3337111,2.988067,1.3507553
1648,A,459622380157000,-7.4916215,-1.5807129,-2.929109,1.3635385,1.4455639,1.5755261
1648,A,459622400356000,-6.7850904,-2.186653,-3.0536501,2.8772793,1.1217234,-0.36964676
1648,A,459622420452000,-6.3947024,-3.1183155,-2.9937747,2.9177594,2.9358687,-2.005893
1648,A,459622440672000,-6.7755103,-3.532654,-1.8681153,1.7491642,1.5041534,-1.4956313
1648,A,459622460768000,-7.7574687,-4.248765,-1.8058448,0.60507023,0.8873653,-1.9771309
1648,A,459622480946000,-10.020762,-5.005591,-1.5974782,0.4878911,1.8322549,-2.924151
1648,A,459622501042000,-12.755875,-5.5780005,-1.0370435,1.2634037,2.3499734,-3.270362
1648,A,459622521244000,-14.64315,-5.5444703,-1.089734,-0.33449304,1.1110709,-3.8818238
1648,A,459622541340000,-15.663428,-5.611531,-1.5112574,0.3834952,0.8745821,-3.560114
1648,A,459622561517000,-15.986756,-6.9240017,-1.1232642,3.601659,-1.7353158,-2.783536
1648,A,459622581613000,-15.560443,-8.703502,-0.6227051,4.1758366,-4.483698,-3.1095068
1648,A,459622601802000,-15.25867,-10.5692215,-0.7065308,1.675661,-4.0629187,-1.7353158
1648,A,459622621898000,-14.489869,-12.022999,-1.0154883,-0.9331717,0.24394555,-0.5773733
1648,A,459622642089000,-13.328284,-12.305611,-0.84065187,-0.58056915,0.9917612,-0.88843054
1648,A,459622662185000,-11.903248,-10.739268,-0.48379397,-1.5744609,-1.4658039,-1.8769959
1648,A,459622682355000,-11.443404,-9.304651,-0.20118165,-2.118811,-2.9625003,0.5635249
1648,A,459622702451000,-11.572735,-8.954978,0.12454102,-2.2040322,-4.248275,2.9997847
1648,A,459622722643000,-10.760823,-9.16095,0.39517823,-2.2945797,-3.106311,2.880475
1648,A,459622742739000,-9.093889,-9.683064,0.43349856,-1.8418423,-0.52624065,0.8266452
1648,A,459622762917000,-7.2616997,-9.517808,0.52690434,-0.39414784,0.24607609,-0.75101143
1648,A,459622783013000,-5.728887,-8.667576,0.48618898,1.0865698,0.69029135,-0.19920446
1648,A,459622803175000,-4.9457154,-7.486831,0.51971924,0.52624065,1.010936,0.628506
1648,A,459622823271000,-5.2738333,-5.879773,0.5891748,-0.2514024,2.0772657,0.28442562
1648,A,459622843447000,-5.6426663,-4.799619,0.38080812,0.8447547,1.2687299,0.033023197
1648,A,459622863543000,-5.7887626,-4.054768,0.2921924,1.442368,0.024501082,0.38562572
1648,A,459622883855000,-5.604346,-3.7458107,0.41194338,-0.07669904,0.27696875,1.4977618
1648,A,459622903951000,-5.9372535,-3.6332448,0.3784131,0.5816344,-0.78296936,1.3134711
1648,A,459622924151000,-6.207891,-3.9493873,0.026345216,0.50173956,0.6114618,0.63915867
1648,A,459622944247000,-5.5516553,-5.022356,-0.14130616,-0.0031957934,1.5073493,1.1174624
1648,A,459622964461000,-4.8044095,-5.865403,0.035925295,0.7052051,3.1073763,1.3891048
1648,A,459622984557000,-5.046306,-5.637876,0.7879615,-0.9917612,0.23329292,-0.17257284
1648,A,459623004672000,-4.6822634,-5.5301003,0.6777906,0.55074173,0.7755125,-0.19707392
1648,A,459623024768000,-3.1015503,-6.2342362,-1.1232642,1.1259845,0.7307714,-0.49534798
1648,A,459623044957000,-3.8655617,-6.588699,-2.411785,0.7126619,-0.6380934,-1.4817829
1648,A,459623065053000,-6.5479836,-6.967112,0.7544312,0.39947417,-1.5254587,-1.1313108
1648,A,459623085355000,-7.407796,-6.085745,4.5864625,0.11504856,-1.5808525,-0.46019423
1648,A,459623105451000,-7.4006104,-5.3217335,3.9206471,0.3121225,-1.5371766,-0.77125144
1648,A,459623125624000,-6.8665214,-7.046148,1.7962648,0.7914915,-1.0663297,-1.8333201
1648,A,459623145720000,-6.231841,-8.0017605,-0.4023633,0.75420725,-1.2868395,-2.2423816
1648,A,459623165890000,-5.9061184,-7.7383084,-0.19878663,-0.28442562,-1.0482203,-1.1622036
1648,A,459623185986000,-5.9540186,-7.5179667,0.6490503,-0.21731395,-1.9941751,-0.24607609
1648,A,459623206161000,-6.6653395,-7.585027,1.5950831,0.5571333,-3.0019152,0.11824436
1648,A,459623226257000,-8.708291,-7.549102,2.308799,-0.043675844,-1.1014835,0.753142
1648,A,459623246460000,-12.569063,-7.32876,1.9711012,-1.7385116,1.0301107,2.066613
1648,A,459623266556000,-15.610738,-6.5360084,0.728086,-3.2682314,3.7678404,3.037069
1648,A,459623286749000,-17.246536,-4.8906302,-1.0777588,-1.2559468,2.6727486,3.4695663
1648,A,459623306845000,-17.69201,-3.1350808,-2.9219239,0.47510794,-1.2367721,2.860235
1648,A,459623327053000,-16.954344,-2.2872438,-3.163821,0.294013,-0.70627034,1.4572818
1648,A,459623347149000,-15.217955,-2.1195924,-3.0823903,0.6775082,0.3888215,0.38456047
1648,A,459623367351000,-11.635005,-3.168611,-2.6608667,1.1653993,-0.829841,0.22583607
1648,A,459623387447000,-11.967913,-3.1925611,0.8981324,1.0705907,-0.8692558,-0.046871636
1648,A,459623407664000,-13.824054,-3.4464333,8.401729,0.35899413,0.67218184,-0.93636745
1648,A,459623427760000,-11.778707,-1.9184108,17.368683,0.15233281,0.51452273,-1.5275892
1648,A,459623447983000,-9.932146,-2.1219873,14.104271,0.479369,-3.4993937,-0.9715212
1648,A,459623468079000,-7.8341093,-3.6284547,4.991221,0.74248934,0.8383631,-0.531567
1648,A,459623488267000,-6.452183,-3.5757644,2.179468,0.43249738,1.0322412,0.95447695
1648,A,459623508363000,-6.13604,-3.278782,2.5387208,0.4111921,0.39840892,2.3584955
1648,A,459623528565000,-6.440208,-3.923042,3.6164796,-0.022370555,-1.3773869,1.087635
1648,A,459623548661000,-8.274793,-4.7301636,2.5243506,-1.3741912,1.6468989,-0.45380265
1648,A,459623568860000,-7.903565,-4.9385304,-7.5179667,-1.0961571,2.936934,-0.2876214
1648,A,459623588956000,-9.436378,-2.42376,-0.3161426,-0.4261058,0.9960223,-1.2655342
1648,A,459623609298000,-11.024276,-5.230723,8.023315,0.1949434,1.019458,-2.2136195
1648,A,459623629394000,-7.398216,-9.302257,11.869718,0.5486112,0.9076053,-1.8801918
1648,A,459623649606000,-4.7157936,-9.469908,8.54543,0.7861652,-0.40053943,-1.3369069
1648,A,459623669702000,-6.0282645,-7.8436894,5.6666164,0.9938917,-1.1888351,-1.5936357
1648,A,459623689886000,-8.0305,-6.976692,4.9289503,1.7789917,-2.3265376,-1.9142802
1648,A,459623709982000,-9.036409,-6.4354177,4.773274,1.7427727,-0.27377295,-1.7204021
1648,A,459623730220000,-9.041199,-6.236631,4.497847,1.0524813,1.2942963,-0.5837649
1648,A,459623750316000,-7.788604,-6.5000834,8.727451,0.567786,-0.24501082,0.8447547
1648,A,459623770545000,-6.224656,-6.2845316,5.0534916,0.17044231,-0.5432849,1.2474247
1648,A,459623790641000,-6.6844997,-6.615044,3.8679566,-0.6018744,-0.40053943,1.139833
1648,A,459623810850000,-6.5455885,-6.3899126,5.4031644,-0.5997439,-0.7680557,2.5960495
1648,A,459623830946000,-2.9171338,-8.155042,5.360054,-1.365669,-1.015197,3.2927325
1648,A,459623851140000,-0.95561284,-8.713081,5.8965383,-1.9249328,-0.26418558,1.5744609
1648,A,459623871236000,-4.5313773,-5.6666164,6.4162574,-0.5273059,-1.0088054,1.4253238
1648,A,459623891449000,-5.0989966,-3.9901028,6.1480155,0.3834952,-1.6405072,1.5073493
1648,A,459623911545000,-3.6811452,-3.8511915,5.654641,-0.24394555,0.7595336,1.2452941
1648,A,459623931725000,-1.6884888,-3.6955154,4.9002104,0.5006743,2.0751352,0.50813115
1648,A,459623951821000,-1.0681788,-3.8703518,4.006868,1.284709,1.1696603,-0.6562029
1648,A,459623971977000,-2.059717,-3.8559816,3.887117,0.9108011,0.19068234,-2.1326594
1648,A,459623992073000,-3.7290456,-3.0847852,2.0932472,-0.3270362,1.6777915,-2.0506341
1648,A,459624012285000,-7.199429,-0.23710695,-0.19160157,-0.35153726,-0.28016454,1.9387813
1648,A,459624032381000,-3.772156,-0.9388477,0.63707525,1.3709954,-4.35054,1.0002834
1648,A,459624052601000,-5.1780324,-1.8010547,1.9279908,-0.32170987,-2.4021714,-0.45593318
1648,A,459624072697000,-8.217313,-1.1232642,2.4884255,0.85753787,2.5108283,-0.36218992
1648,A,459624092897000,-3.3051271,-4.028423,2.0309765,-0.27696875,2.2977755,-0.42717105
1648,A,459624112993000,-5.120552,-2.9338992,0.60833496,-0.8319715,-0.41225734,-0.14061491
1648,A,459624133211000,-9.68067,-0.6179151,5.1157618,0.36112466,0.27164245,-0.07563378
1648,A,459624153307000,-6.303692,-4.488267,-0.17483643,0.24714136,-0.11611383,-0.87138635
1648,A,459624173488000,-5.5253105,-3.9493873,-0.5125342,-0.024501082,-1.2772521,-1.0365024
1648,A,459624193584000,-6.569539,-3.7482057,-0.050295413,-0.21731395,-1.7992316,-1.0652645
1648,A,459624213791000,-6.468948,-4.528982,-1.5447876,-0.0031957934,-0.86392945,-1.5094798
1648,A,459624233887000,-9.11784,-5.877378,-2.4453151,0.608266,0.6487461,-2.026133
1648,A,459624254082000,-12.525952,-6.4090724,1.336421,1.2229236,1.1622036,-2.1539648
1648,A,459624274178000,-15.021564,-7.664063,5.589976,1.9121497,-1.3539511,-2.014415
1648,A,459624294348000,-13.522281,-8.372989,5.7073317,0.7392935,-2.030394,-1.1227888
1648,A,459624314444000,-12.870835,-7.7694435,6.806646,-1.0695255,0.7978831,-0.16831179
1648,A,459624334659000,-16.597486,-6.3779373,3.3242872,-0.34940675,0.043675844,0.45806372
1648,A,459624354755000,-18.638042,-5.5061502,1.1999048,0.40373522,-0.23435818,1.0727214
1648,A,459624374964000,-15.8310795,-6.821016,1.5088624,-1.4008228,-0.96619487,2.5608957
1648,A,459624395060000,-12.971426,-8.207732,-0.7879615,-2.7931235,-1.1387677,3.4471958
1648,A,459624415220000,-10.277029,-9.594449,-0.5005591,-1.6682042,-1.0098706,2.7366643
1648,A,459624435380000,-6.821016,-10.356065,0.72569096,-0.38562572,-1.4679344,1.7789917
1648,A,459624455508000,-6.1575956,-8.8951025,-1.6549586,0.12037488,-0.8564726,1.3933659
1648,A,459624475713000,-5.005591,-7.3551054,-2.692002,0.053263225,1.0940266,1.1930962
1648,A,459624495760000,-2.929109,-5.7815776,0.50774413,0.4910869,1.8141453,0.6593987
1648,A,459624515856000,-0.8095166,-5.633086,-0.009580079,0.95128113,0.5816344,-0.35899413
1648,A,459624536033000,-1.4489869,-5.2019825,-0.35925296,0.44741106,-0.8149273,-1.2495552
1648,A,459624556129000,-4.4451566,-3.0776002,4.145779,-0.62531024,0.69029135,-1.123854
1648,A,459624576362000,-7.33355,-0.8765772,5.7696023,-0.7701862,1.2112057,0.8383631
1648,A,459624596458000,-7.082073,0.18920656,4.0427933,1.8258632,-1.5648735,0.034088463
1648,A,459624616699000,-4.054768,-0.7759864,0.4526587,-0.39840892,-1.1877699,0.74675035
1648,A,459624636795000,-3.1207106,-2.7015822,0.9651929,0.84155893,2.7419908,0.34940675
1648,A,459624656992000,-4.423601,-2.2106032,4.4762917,-0.41545314,1.2069446,-0.81066626
1648,A,459624677088000,-4.157754,-2.184258,4.2272096,-0.43782368,-0.21837921,-0.2876214
1648,A,459624697289000,-7.158714,-1.2645704,4.021238,-0.17470337,-0.9416938,-0.7105314
1648,A,459624717385000,-7.8748245,-2.692002,3.056045,0.69348717,-0.6348976,-0.9864349
1648,A,459624737591000,-11.258987,-1.9687061,0.2562671,0.24501082,-0.058589544,-1.2985574
1648,A,459624757687000,-14.458734,-2.2944288,1.0538087,-0.47297743,0.03089267,-1.4988271
1648,A,459624777857000,-13.656402,-2.8620484,1.21188,-0.17044231,0.96086854,-1.9313245
1648,A,459624797953000,-11.481724,-3.767366,-0.37601808,0.9331717,2.2668827,-2.3819313
1648,A,459624818182000,-11.024276,-4.905,0.6011499,2.4543693,0.57417756,-2.082592
1648,A,459624838278000,-13.905484,-5.3049684,-0.5843848,1.8791265,-2.6812706,-1.627724
1648,A,459624858481000,-11.302097,-5.6714063,5.149292,-0.65194184,-0.16405073,-0.5049353
1648,A,459624878577000,-7.077283,-6.9311867,4.263135,-0.76059884,0.25885928,0.098004326
1648,A,459624898788000,-7.165899,-5.9180937,1.7938697,0.17789917,0.36645097,0.24820662
1648,A,459624918884000,-0.12693603,-8.368198,9.0891,0.19813919,0.49215218,1.2942963
1648,A,459624939121000,-1.0514137,-8.404124,-3.9637575,-1.6927053,-0.8330368,2.871953
1648,A,459624959217000,-6.974297,-6.847361,-4.119434,-2.4788704,-0.8479505,3.4344127
1648,A,459624979418000,-7.0221977,-5.3001785,-3.415298,-1.24849,-1.0183928,2.7686224
1648,A,459624999514000,-7.335945,-2.6369166,-1.2909156,-0.2545982,-2.0026972,1.659682
1648,A,459625019719000,-4.160149,-4.9169755,-2.5075855,0.330232,-0.5049353,1.1291803
1648,A,459625039815000,-1.4513819,-6.830596,-6.672525,0.4857606,1.0972224,1.0439591
1648,A,459625060080000,-1.4825171,-6.1767554,-2.9003687,0.7637946,1.5595472,0.700944
1648,A,459625080176000,-2.792593,-7.321575,-0.27542725,1.1611383,1.2026836,-0.5070659
1648,A,459625100423000,-3.7458107,-5.3241286,0.64186525,0.5858955,-0.24714136,-1.4114754
1648,A,459625120519000,-3.65959,-3.3338673,-0.6514453,-0.38136467,0.21944448,-1.5211977
1648,A,459625140751000,-1.9711012,-5.122947,-5.1612673,-0.80747044,0.69029135,0.59867865
1648,A,459625160847000,-1.3076807,-6.832991,-8.274793,1.9089539,-1.5542208,0.29827404
1648,A,459625181048000,-3.4536183,-7.0341725,-4.7780643,-0.4644553,-1.7086842,0.3121225
1648,A,459625201144000,-6.2270513,-6.023474,1.3507911,0.14807177,0.40586576,-0.17789917
1648,A,459625221351000,-12.569063,-9.683064,14.247972,0.74248934,5.852563,-0.55287224
1648,A,459625241447000,-6.7755103,-12.691209,8.229287,-0.6743124,0.18216023,-0.41438788
1648,A,459625261648000,-2.9578493,-15.828685,3.4727786,-0.9044095,-2.593919,-0.30253512
1648,A,459625281744000,-7.6401124,-17.361498,3.9014869,-0.3206446,-3.1489217,-0.82344943
1648,A,459625301946000,-10.425521,-16.307688,-0.54366946,1.1132014,-1.2591426,-0.9257148
1648,A,459625322042000,-8.962164,-11.61345,-13.002562,0.22903186,0.41545314,-1.2985574
1648,A,459625342246000,-10.023157,-6.7395854,-23.047274,-0.3717773,1.4935007,-1.526524
1648,A,459625362342000,-5.9085135,-10.796748,-2.5770411,0.24927188,2.4021714,-1.8887138
1648,A,459625382581000,-1.4465919,-13.471986,2.8740237,2.1007016,2.4277377,-2.1614215
1648,A,459625402677000,-0.5939649,-13.713882,2.5027955,2.3116238,-0.39095205,-1.9877834
1648,A,459625422878000,-0.38559815,-14.034815,1.4944923,-0.07350325,-0.8607337,-0.79894835
1648,A,459625442974000,-3.3051271,-12.492422,-1.3939015,-0.86606,0.14274544,-0.101200126
1648,A,459625463180000,-7.556287,-10.262659,-1.4944923,-0.23009712,-0.4261058,-0.16085494
1648,A,459625483276000,-8.808882,-8.265213,-0.6706055,0.02130529,-0.24820662,0.773382
1648,A,459625503466000,-5.9372535,-8.586145,-1.4441968,-1.0982877,-1.0759171,2.4991105
1648,A,459625523562000,-1.2549903,-9.474698,-3.2428565,-2.2466428,-0.7073356,3.5707664
1648,A,459625543765000,1.4346168,-11.062595,-7.082073,-1.4572818,-0.94808537,3.137204
1648,A,459625563861000,2.7470875,-16.619041,-12.530743,-0.37923414,-1.9206718,1.7267936
1648,A,459625584063000,8.188572,-20.8223,-9.14658,0.05006743,-0.34408042,1.2921658
1648,A,459625604159000,9.072334,-15.723304,-0.5412744,0.11611383,1.026915,1.2644689
1648,A,459625624354000,6.236631,-9.484278,2.2656887,0.30999196,1.3965617,0.6870956
1648,A,459625644450000,1.3747413,-6.7683253,3.4943337,0.75633776,0.71479243,-0.3174488
1648,A,459625664658000,-2.787803,-6.219866,4.976851,0.26525086,-0.3323625,-0.95128113
1648,A,459625684754000,-3.3530276,-6.224656,3.276387,-0.010652645,0.09374327,-1.3315805
1648,A,459625704981000,-4.639153,-4.382886,-1.223855,-0.86499476,0.5699165,-0.113983296
1648,A,459625725077000,-2.9985645,-2.7207422,-6.07856,1.9057581,-1.9888487,0.12783173
1648,A,459625745290000,1.6381935,-3.3769777,-5.122947,0.0053263223,-2.247708,0.24074976
1648,A,459625765386000,1.7818946,-3.8775368,-0.9532178,0.2876214,0.9374327,0.011717909
1648,A,459625785584000,-0.48139894,-4.385281,3.2859669,0.3387541,3.4546525,-0.023435818
1648,A,459625805680000,-1.8250049,-4.8906302,4.5864625,-1.0013486,-0.8319715,-0.10546118
1648,A,459625825883000,-3.537444,-5.46304,3.6212697,-0.30253512,0.7126619,-0.060720075
1648,A,459625845979000,-4.136199,-6.1623855,-0.07903565,-0.12144015,0.89588743,-0.87032104
1648,A,459625866187000,-10.4494705,-11.754756,-22.314398,-0.10972224,0.02876214,-1.1174624
1648,A,459625886283000,-15.572417,-13.074412,-16.013102,-0.17044231,-0.77231675,-1.1163971
1648,A,459625906448000,-7.110813,-13.074412,5.2977834,0.0479369,-0.479369,-1.567004
1648,A,459625926544000,-3.410508,-16.848963,-1.0609937,0.753142,0.9374327,-2.0176108
1648,A,459625946742000,-2.440525,-13.915064,-3.7338357,1.7278589,0.83729786,-2.1560953
1648,A,459625966838000,-4.133804,-10.542876,-0.8382569,2.5438516,-2.202967,-1.9302592
1648,A,459625987028000,-5.9013286,-9.163345,0.67539555,0.19813919,-1.0460896,-0.67218184
1648,A,459626007124000,-3.784131,-9.486672,1.8513502,-0.9086706,1.9217371,-0.29507825
1648,A,459626027327000,-1.5519727,-8.344249,-0.9963282,-0.094808534,-0.0479369,0.040480047
1648,A,459626047423000,3.3482375,-5.9252787,-8.305928,0.020240024,-0.350472,1.0354371
1648,A,459626067628000,6.423443,-10.037527,-4.5385623,-1.4402375,-2.4469125,2.541721
1648,A,459626087724000,0.19639161,-11.460169,4.5002418,-2.240251,-1.1004182,3.5494611
1648,A,459626107927000,-0.07664063,-9.362132,3.6284547,-1.0865698,0.037284255,2.5885925
1648,A,459626128023000,0.30895755,-8.459209,3.6068995,-0.23222765,-1.1494204,1.5499598
1648,A,459626148245000,2.2345533,-10.114168,-0.67539555,0.18642128,-0.31957933,1.2250541
1648,A,459626168341000,3.6548,-11.886482,-2.5459058,0.3153183,0.8809737,1.0897655
1648,A,459626188541000,2.3016138,-11.326048,-1.1615845,0.4314321,0.78723043,0.7765778
1648,A,459626208637000,-0.8861573,-10.284214,-1.0873389,0.6412892,0.62531024,-0.036218993
1648,A,459626228843000,-3.1374757,-9.261541,-3.2213013,0.26844665,-0.2695119,-0.9651296
1648,A,459626248939000,-5.1947975,-7.302415,-2.7135572,-0.6668556,0.13741912,-1.2069446
1648,A,459626269148000,-4.864285,-6.231841,-1.839375,-0.35260254,0.18109496,0.7041398
1648,A,459626289244000,-3.4775686,-5.8821683,-1.1424243,1.7779263,-1.1675298,0.32384038
1648,A,459626309408000,-2.567461,-5.120552,0.23231691,-0.32170987,-0.10546118,-0.5795039
1648,A,459626329504000,-2.3614893,-4.8523097,0.5125342,0.9416938,1.5329156,-0.46552056
1648,A,459626349678000,-1.3076807,-4.998406,-0.23710695,0.1736381,-0.11824436,0.21411815
1648,A,459626369774000,-0.34727785,-6.447393,-1.2765454,-0.95660746,-0.2130529,-0.43675843
1648,A,459626389961000,-0.68976563,-8.190968,-0.93405765,-0.9395633,0.66152924,-1.0759171
1648,A,459626410057000,-2.567461,-8.626861,-1.9567311,-0.30040458,0.18748654,-1.0162623
1648,A,459626430261000,-5.7791824,-8.725057,-3.2189064,0.65726817,0.94488955,-1.1206582
1648,A,459626450357000,-7.0198026,-9.735755,-2.8213332,0.31851408,0.6306366,-1.3507553
1648,A,459626470560000,-5.4750147,-11.57034,-1.9878663,0.112918034,0.27164245,-1.4210628
1648,A,459626490656000,-4.8451247,-11.55118,0.90771246,0.47191215,0.8767126,-1.6671388
1648,A,459626510860000,-5.388794,-10.94524,3.3817677,1.2644689,0.75633776,-1.8578212
1648,A,459626530956000,-4.373306,-10.554852,1.9351759,2.2146847,-1.8897791,-1.8386464
1648,A,459626551199000,-3.2739918,-10.739268,-0.93405765,1.0290455,-4.024569,-1.0120013
1648,A,459626571295000,-5.3241286,-11.098521,-2.2393434,-0.8543421,1.0354371,-0.16618125
1648,A,459626591499000,-6.143225,-11.682906,-3.776946,-0.05006743,3.4674358,0.44847634
1648,A,459626611595000,-4.768484,-12.240946,-6.3012967,-0.19920446,0.39627838,2.2658174
1648,A,459626631813000,-4.8307548,-13.661192,-6.3803325,-2.492719,-3.278884,4.012851
1648,A,459626651909000,-5.350474,-14.209652,-5.0654664,-1.9856529,-1.8311896,3.6890109
1648,A,459626672117000,-3.9374123,-13.352235,-2.550696,-0.3930826,-0.69987875,1.6873789
1648,A,459626692213000,-2.3854396,-13.864769,6.080955,0.18429075,-0.9821738,1.1526161
1648,A,459626712419000,-0.6706055,-14.195281,3.647615,0.13102753,0.67963874,1.1813782
1648,A,459626732515000,-0.27542725,-12.437337,-1.6357985,-0.033023197,1.8098843,0.89162636
1648,A,459626752720000,-0.5604346,-10.221944,-0.84065187,0.40586576,0.5795039,-0.0031957934
1648,A,459626772816000,0.3903882,-8.50711,-0.23231691,0.165116,-1.0013486,-0.8586032
1648,A,459626792983000,0.3784131,-6.821016,0.79993653,-0.3089267,-0.4261058,-1.2580773
1648,A,459626813079000,-0.8646021,-4.687053,0.9699829,-0.71798825,0.6146576,-0.406931
1648,A,459626833266000,-1.7794995,-3.180586,0.97237796,2.0804615,-0.8245147,-0.3834952
1648,A,459626853362000,-2.3543043,-2.3447242,0.8143067,-0.25672874,-1.4668691,0.28016454
1648,A,459626873415000,-1.961521,-1.1543995,-0.2203418,0.38136467,1.3635385,0.46658584
1648,A,459626893511000,0.55324954,-1.7411792,-1.1663746,0.5550028,2.9145637,0.15659387
1648,A,459626913754000,1.6573536,-3.1159205,-1.22625,-0.7339672,0.14168017,-0.10652645
1648,A,459626933850000,0.93405765,-4.430786,-1.22146,-0.7946873,1.598962,-0.24820662
1648,A,459626954020000,0.21076173,-5.9013286,-1.719624,-0.45806372,1.8216022,-1.0950918
1648,A,459626974116000,-2.0501368,-8.339458,-4.018843,0.03089267,1.3624732,-1.2197278
1648,A,459626994333000,-11.721226,-13.5869465,-10.739268,0.11717909,-0.03089267,-1.2719258
1648,A,459627014429000,-13.299544,-12.4612875,0.13172609,0.10226539,-1.2516857,-1.4881744
1648,A,459627034633000,-12.770245,-11.699671,5.8103175,0.644485,-0.7105314,-1.953695
1648,A,459627054729000,-15.993941,-11.165582,4.248765,1.4029533,0.62317973,-2.3872576
1648,A,459627074939000,-14.427598,-11.5823145,-0.28261232,2.4394555,0.0479369,-2.3467777
1648,A,459627095035000,-10.159674,-11.663746,-2.1746778,2.5406556,-2.5758095,-1.406149
1648,A,459627115239000,-10.47821,-11.673326,-2.9841945,-0.25672874,-3.2810144,0.37284255
1648,A,459627135335000,-5.1397123,-10.217154,0.37362307,-1.3560816,1.4679344,0.82557994
1648,A,459627155540000,0.86220706,-7.726333,1.1256592,-0.10013486,2.5225463,1.0887003
1648,A,459627175636000,5.965994,-12.2361555,-7.534732,-0.5581986,-1.7129452,2.3616912
1648,A,459627195839000,3.903882,-10.775193,-4.6966333,-2.0644825,-3.0264163,3.674097
1648,A,459627215935000,0.1460962,-9.153765,-1.0178833,-1.4476944,0.2876214,3.3651705
1648,A,459627236126000,-0.23231691,-9.877061,-0.43589357,0.043675844,-0.2695119,1.9025623
1648,A,459627256222000,0.9388477,-9.829161,-0.38559815,0.67218184,-1.2825783,1.3187973
1648,A,459627276409000,1.6549586,-10.597961,0.8143067,0.6125271,0.13528858,1.3305153
1648,A,459627296505000,2.088457,-11.02188,2.8907888,0.45060685,2.1742048,0.74248934
1648,A,459627316710000,1.2573853,-10.825489,1.463357,0.74248934,1.1068097,-0.31851408
1648,A,459627336806000,-1.5423926,-9.489068,-1.7699195,0.25033715,-1.0077401,-1.1249193
1648,A,459627356990000,-3.4799635,-7.9610453,-1.9279908,-0.76272935,-0.257794,-1.2996227
1648,A,459627377086000,-4.5888577,-5.989944,0.55324954,-0.165116,1.3539511,-0.35899413
1648,A,459627397320000,-4.991221,-5.4223247,0.20597169,2.082592,-0.9779128,-0.70840085
1648,A,459627417416000,-3.5039136,-5.724097,-1.3555812,-0.18961707,-1.3369069,0.26418558
1648,A,459627437637000,-2.2058132,-5.7959476,-0.28979737,0.588026,1.4689997,0.13102753
1648,A,459627457733000,-1.6166383,-6.205496,0.5987549,1.0024139,3.5132422,-0.011717909
1648,A,459627478083000,-1.9088306,-6.1887307,2.2465284,-0.67963874,-0.28655612,0.10226539
1648,A,459627498179000,-2.682422,-7.206614,2.2608986,-1.1664646,0.35473305,0.018109497
1648,A,459627518375000,-3.412903,-9.407638,-1.7483643,-0.26418558,0.7275756,-0.9193232
1648,A,459627538471000,-5.2858086,-10.866204,-3.8559816,0.29188246,0.7488809,-1.0237192
1648,A,459627558684000,-8.523875,-11.108101,-2.8764186,0.040480047,-0.15978967,-1.0471549
1648,A,459627578780000,-9.905801,-11.625425,-3.5110989,-0.2514024,-0.9896307,-1.1547467
1648,A,459627599078000,-9.632769,-7.8484793,0.8095166,-0.053263225,-0.30253512,-1.598962
1648,A,459627619174000,-7.9394903,-8.1071415,0.47181886,0.74675035,1.4466292,-2.0069582
1648,A,459627639334000,-6.016289,-9.24717,-1.1735597,2.1646173,0.6114618,-2.1763353
1648,A,459627659494000,-4.5816727,-9.536968,-0.34967285,1.9611518,-0.8628642,-1.7747306
1648,A,459627679622000,-2.6464968,-11.431429,-2.6441016,-0.24181503,0.8330368,-0.6593987
1648,A,459627699830000,-2.2704787,-10.159674,-2.0501368,-0.8404937,1.7992316,-0.2727077
1648,A,459627719950000,-4.416416,-9.216036,-1.1112891,0.15978967,-0.47510794,0.4165184
1648,A,459627740046000,-6.8593364,-11.266172,-3.173401,-0.023435818,-1.8524948,1.655421
1648,A,459627760250000,-9.017249,-13.730647,-8.040081,-1.9068234,-3.7880805,3.1574438
1648,A,459627780346000,-3.2692018,-16.45618,-2.6417067,-1.4146712,-0.4048005,3.5175033
1648,A,459627800541000,1.3939015,-15.371236,-0.364043,-0.16405073,0.34834146,2.4394555
1648,A,459627820637000,0.117355965,-11.464959,-0.6825806,0.06391586,-1.9142802,1.5904398
1648,A,459627840843000,-3.0368848,-12.262501,0.30895755,0.50813115,-0.47830373,1.144094
1648,A,459627860939000,-4.2248144,-13.716277,2.6512868,0.4495416,1.2239889,0.9374327
1648,A,459627881150000,-3.2692018,-13.656402,3.784131,0.5752428,1.2761868,0.2972088
1648,A,459627901246000,-2.7638526,-10.468631,3.1159205,0.42077947,0.0,-0.567786
1648,A,459627921451000,-3.7003052,-6.480923,-1.3292359,-0.16831179,-0.6423545,-1.1430287
1648,A,459627941547000,-3.4608033,-4.624783,-1.7244141,-0.9715212,0.43675843,-0.9321064
1648,A,459627961751000,-2.1627028,-4.481082,0.32572266,1.055677,0.080960095,-0.1587244
1648,A,459627981847000,0.11256592,-4.3349857,1.8082398,0.3089267,-0.96299905,0.13741912
1648,A,459628002057000,1.9687061,-4.174519,2.3471193,-0.39947417,-0.7946873,1.0439591
1648,A,459628022153000,3.290757,-4.4355764,1.1352394,0.7073356,2.6184201,0.5091964
1648,A,459628042364000,3.8224514,-4.8355446,1.710044,-0.28122982,-0.21518342,-0.34834146
1648,A,459628062460000,3.8511915,-4.9241605,2.2776637,-1.1270498,0.58056915,-0.45699844
1648,A,459628082666000,2.2129982,-4.0667434,0.8262818,-0.9012137,1.4775218,-1.216532
1648,A,459628102762000,-0.5724097,-2.9003687,-1.2789404,-0.24607609,1.160073,-1.5084145
1648,A,459628122953000,-11.802657,-3.4655933,-22.05334,0.101200126,0.29294774,-1.4221281
1648,A,459628143049000,-20.985163,-10.183623,-3.1207106,0.058589544,-0.69029135,-1.4263891
1648,A,459628163210000,-13.615686,-16.271763,17.375868,0.13635385,-0.41758367,-1.6010925
1648,A,459628183306000,-5.0199614,-20.043919,2.0285816,0.5763081,0.8479505,-2.0080235
1648,A,459628203503000,-17.931513,-8.420889,-5.719307,1.3869743,1.6458336,-1.9963056
1648,A,459628223599000,-10.842254,-3.772156,2.0118165,2.4543693,-0.31957933,-1.7427727
1648,A,459628243802000,-0.33290774,-11.62782,-3.0895753,1.7544906,-2.2338595,-0.84368944
1648,A,459628263898000,-8.059241,-14.55693,-5.0582814,-0.1736381,-2.735599,0.23116238
1648,A,459628284093000,-7.3551054,-13.186978,9.079519,-0.9438243,1.1100056,1.252751
1648,A,459628304189000,1.2837305,-10.583591,-9.395662,-0.777643,-0.10439592,2.4607608
1648,A,459628324388000,0.62989014,-6.947952,-3.3123121,-1.6745957,-1.8908445,3.8530614
1648,A,459628344484000,-1.0729688,-6.023474,5.237908,-1.9675435,-0.05752428,3.641074
1648,A,459628364693000,-0.13172609,-6.3994923,2.0381618,-0.44741106,-1.3741912,2.408563
1648,A,459628384789000,0.45744875,-8.708291,1.0657837,0.96299905,-1.9611518,1.3390374
1648,A,459628404988000,-0.3161426,-11.927197,1.5519727,0.8863,0.88203895,1.0950918
1648,A,459628425084000,-0.69695073,-12.904366,1.9040406,0.3834952,2.466087,0.7819041
1648,A,459628445287000,-1.4441968,-10.1189575,1.9184108,0.64555025,0.9779128,-0.13102753
1648,A,459628465383000,-1.9112257,-8.344249,1.6429834,0.49641323,-0.59761333,-0.9438243
1648,A,459628485588000,-1.3915064,-8.064031,1.104104,-0.066046394,0.10226539,-1.4764565
1648,A,459628505684000,-0.97237796,-7.903565,0.6849756,-0.22796659,1.4519554,-1.1153319
1648,A,459628525903000,-1.0705738,-7.6113725,0.8382569,2.0655477,-2.2732744,-0.098004326
1648,A,459628545999000,-1.096919,-7.201824,1.1999048,-0.165116,-2.7387948,0.6775082
1648,A,459628566191000,-0.74006104,-7.0365677,1.3483961,0.2790993,2.0815268,0.37390783
1648,A,459628586287000,-1.84177,-7.3742657,1.4322218,0.5581986,4.4261737,0.2130529
1648,A,459628606494000,-2.6464968,-7.822134,1.9375709,-0.60933125,-0.67324716,-0.07563378
1648,A,459628626590000,-2.9985645,-8.703502,1.8082398,-0.8383631,1.1345067,-0.15339808
1648,A,459628646788000,-3.2236965,-9.424402,1.5711329,-0.7041398,1.9046929,-0.94808537
1648,A,459628666884000,-4.133804,-9.608819,4.869075,-0.34621096,1.3773869,-1.2974921
1648,A,459628687073000,-5.6738014,-9.072334,0.73048097,0.07243799,0.36005938,-1.4295849
1648,A,459628707169000,-8.176597,-8.147857,-4.045188,0.6711166,0.16192019,-1.8279938
1648,A,459628727386000,-9.843531,-8.095166,-4.526587,1.3646038,1.2133362,-2.1518342
1648,A,459628747482000,-8.111932,-7.561077,-0.30416748,1.7789917,1.6692694,-2.3755398
1648,A,459628767729000,-8.899893,-5.597161,3.3865578,2.4000409,-0.08948222,-2.126268
1648,A,459628787825000,-9.268726,-5.4822,4.8571,2.1742048,-3.9244342,-0.96299905
1648,A,459628808032000,-7.8748245,-8.890313,3.1446607,-0.17044231,-4.507134,0.02876214
1648,A,459628828128000,-7.060518,-11.977493,1.8561403,-0.9054748,0.5336975,0.7339672
1648,A,459628848333000,-7.8436894,-12.75348,-0.35925296,-0.28336033,2.347843,1.6948358
1648,A,459628868429000,-9.493857,-12.375067,-5.4295096,-0.91612744,-1.3060142,2.6056368
1648,A,459628888632000,-7.3814507,-12.981007,-6.5360084,-1.8983012,-3.0711575,3.8530614
1648,A,459628908728000,-2.7734327,-14.104271,-1.2837305,-1.5765914,-0.8511463,3.2458608
1648,A,459628928958000,-0.81191164,-15.004798,0.9388477,-0.69774824,-1.2452941,1.6916399
1648,A,459628949054000,-0.20357667,-15.28262,1.3100758,0.3089267,-1.3102753,1.1792477
1648,A,459628969216000,0.55324954,-16.147223,0.6777906,0.37390783,0.8522116,0.9768475
1648,A,459628989312000,0.081430666,-16.405884,1.8681153,0.3888215,0.96406436,0.51771855
1648,A,459629009512000,-2.0094216,-13.735437,2.0932472,0.47297743,-0.3355583,-0.36325517
1648,A,459629029608000,-3.3626075,-10.186019,0.1101709,-0.18109496,-0.46658584,-1.0354371
1648,A,459629049739000,-3.1255007,-6.9551373,-0.1820215,-0.46871635,-0.084155895,-1.1004182
1648,A,459629069835000,-2.6249416,-5.120552,-0.7544312,0.19707392,-1.1973573,0.21731395
1648,A,459629090011000,-1.2334352,-5.0558863,0.07903565,1.1291803,-0.777643,-0.066046394
1648,A,459629110107000,0.102985844,-5.0654664,1.3124708,0.101200126,0.96086854,0.3653857
1648,A,459629130311000,1.7699195,-5.2858086,2.703977,0.57311225,2.8581045,0.50173956
1648,A,459629150407000,3.1255007,-5.245093,2.7279274,-0.88203895,-1.6437031,-0.27696875
1648,A,459629170610000,4.1984696,-4.8163843,2.1531227,-1.1696603,0.57098174,-0.5592638
1648,A,459629190706000,4.3709106,-4.1888895,1.7866846,-0.6221144,2.586462,-1.2985574
1648,A,459629210914000,3.5949244,-3.3650026,1.1951149,-0.06711166,2.815494,-1.7257284
1648,A,459629231010000,2.071692,-2.7806177,-0.4766089,0.24181503,2.0208068,-1.3070794
1648,A,459629251216000,-5.7312818,-4.038003,-15.749649,0.43356264,0.26418558,-1.2293152
1648,A,459629271312000,-20.7265,-9.400452,-5.6690116,0.6945524,-0.7882957,-1.5787219
1648,A,459629291524000,-18.238075,-17.213007,20.968397,1.2144015,-0.04261058,-1.9845877
1648,A,459629311620000,-15.934066,-16.010706,3.7074904,1.6884441,-0.3685815,-2.091114
1648,A,459629331569000,-22.570665,-7.067703,-9.984837,2.4458473,-2.481001,-1.5425029
1648,A,459629351665000,-7.158714,-9.80521,-0.72569096,0.6018744,-4.970524,-0.2609898
1648,A,459629371868000,-0.84544194,-13.34026,1.83219,-1.365669,0.8926916,0.45060685
1648,A,459629391964000,-6.183941,-12.621754,2.2920337,-0.041545313,3.709251,0.69029135
1648,A,459629412165000,0.38080812,-8.974138,-0.043110352,-0.19707392,0.9086706,1.9132149
1648,A,459629432261000,6.08814,-6.828201,-9.589659,-1.7832527,-3.9787626,3.6400087
1648,A,459629452463000,0.1820215,-7.7646537,3.772156,-2.0176108,-1.381648,3.7497308
1648,A,459629472559000,-2.435735,-11.347603,3.2093263,-0.4878911,0.31318775,2.2530344
1648,A,459629492769000,-0.86939216,-14.154566,1.1256592,0.83942837,-1.1867046,1.4295849
1648,A,459629512865000,-0.22992188,-13.48396,3.4248781,1.0961571,-0.43995422,1.1430287
1648,A,459629533062000,-2.7231374,-8.013736,3.535049,0.39734364,2.8399951,0.9438243
1648,A,459629553158000,0.25147706,-6.368357,-0.20597169,0.6040049,1.8354506,-0.017044231
1648,A,459629573359000,0.26105714,-6.68929,-0.80233157,0.25246766,-0.9150622,-0.9981528
1648,A,459629593455000,-0.98914313,-7.913145,-0.5604346,-0.5006743,-0.6764429,-1.2495552
1648,A,459629613701000,-2.0094216,-9.388477,-0.2802173,-0.4495416,1.4136059,-0.13848437
1648,A,459629633797000,-1.8082398,-9.498648,0.24668702,2.1880531,-1.2293152,-0.5134575
1648,A,459629653997000,-1.6573536,-8.353828,0.76880133,0.25353295,-1.808819,0.13741912
1648,A,459629674093000,-1.6621436,-7.082073,1.2310401,-0.16085494,-0.066046394,0.5997439
1648,A,459629694384000,-1.6525636,-6.70366,1.5471827,1.3134711,2.828277,0.6317018
1648,A,459629714480000,-2.543511,-7.158714,2.186653,-0.42184472,-0.47830373,-0.16937704
1648,A,459629734708000,-4.311035,-8.135881,2.7973828,-1.4721955,-1.7097495,-0.5752428
1648,A,459629754804000,-5.120552,-9.06994,4.5840673,1.320928,4.5667887,-0.83516735
1648,A,459629775007000,-4.981641,-9.031619,4.3230104,0.7584683,3.3140378,-1.160073
1648,A,459629795103000,-4.423601,-8.646021,-1.8753004,-0.48043427,-1.9824572,-1.3507553
1648,A,459629815301000,-6.1743608,-7.510782,-8.387359,-1.2602079,-2.2487733,-1.6341157
1648,A,459629835397000,-8.475974,-6.933582,-4.0020776,-1.051416,0.17044231,-2.360626
1648,A,459629855602000,-7.2353544,-7.781419,1.6549586,0.57311225,2.5566347,-2.7803402
1648,A,459629875698000,-5.999524,-6.926397,2.919529,2.743056,0.829841,-2.3371902
1648,A,459629895900000,-4.9217653,-6.212681,3.4655933,2.2306638,-2.4213462,-1.4935007
1648,A,459629915996000,-5.9061184,-7.2760696,3.1542408,-0.63702816,-2.1209416,0.14168017
1648,A,459629936200000,-7.8484793,-10.830278,2.5914114,-1.051416,1.5691346,0.7137272
1648,A,459629956296000,-9.570498,-13.546231,1.2789404,0.017044231,2.1060278,1.5819178
1648,A,459629976737000,-9.374106,-12.7918,-0.80233157,-1.0013486,-1.3667343,3.3449304
1648,A,459629996833000,-7.817344,-11.280542,-5.8342676,-1.897236,-2.1475732,4.2280345
1648,A,459630017043000,-5.110972,-12.27208,-5.295388,-1.0162623,-1.0620687,2.867692
1648,A,459630037139000,-2.047742,-14.197677,-0.76401126,0.1587244,-1.4168017,1.4807175
1648,A,459630057344000,-1.0298585,-15.890955,0.31135255,0.91825795,-0.47830373,1.2282499
1648,A,459630077440000,-0.026345216,-17.282461,1.0418335,0.52837116,1.4295849,1.1206582
1648,A,459630097643000,0.87418216,-18.022522,1.21188,0.628506,2.2977755,0.54435015
1648,A,459630117739000,1.2310401,-16.968714,1.7483643,0.6562029,0.5123922,-0.6040049
1648,A,459630137940000,-0.28740236,-12.736714,1.4585669,0.11824436,-0.82344943,-1.3422332
1648,A,459630158036000,-1.5232325,-8.914263,0.5005591,-1.0407634,0.8543421,-1.0258497
1648,A,459630178248000,-2.44292,-5.7719975,0.081430666,1.4168017,0.5997439,-0.33449304
1648,A,459630198344000,-4.0020776,-3.6907253,0.49337405,0.81066626,-2.179531,0.06711166
1648,A,459630218541000,-5.407954,-3.5087037,0.22513184,-0.64555025,-2.6290727,1.4104102
1648,A,459630238637000,-1.4825171,-5.47262,0.14370118,0.777643,5.7385798,0.76592517
1648,A,459630258839000,2.1100123,-6.351592,1.705254,0.18855181,2.1177456,-0.23648871
1648,A,459630278935000,3.276387,-5.3480787,2.684817,-0.8607337,-0.8383631,-0.066046394
1648,A,459630299145000,4.174519,-4.4427614,1.7603394,-0.8042747,-0.3174488,-0.7350325
1648,A,459630319241000,4.591253,-3.8344264,1.4465919,-0.32810146,-0.051132694,-1.5329156
1648,A,459630339390000,4.2296047,-3.417693,0.9651929,-0.14807177,-0.5400891,-1.3677995
1648,A,459630359486000,2.924319,-3.4727786,0.07185059,-0.20133498,-1.0365024,-1.567004
1648,A,459630379667000,-1.2957057,-4.8499146,-10.3512745,-0.094808534,-0.59122175,-2.030394
1648,A,459630399763000,-18.606907,-7.913145,-13.42648,0.3568636,0.90973586,-2.694054
1648,A,459630419950000,-22.561085,-16.113691,20.716919,1.9025623,1.3550164,-3.0637007
1648,A,459630440046000,-15.016773,-20.293001,8.0305,2.8346686,0.6402239,-2.17527
1648,A,459630460248000,-19.940933,-9.582474,-8.847202,0.6412892,-0.7882957,-0.34514567
1648,A,459630480344000,-7.391031,-5.5875807,-2.6560767,-1.3944311,0.47297743,0.4612595
1648,A,459630500551000,1.3939015,-12.013418,1.7459693,-0.6178534,-0.4825648,0.87138635
1648,A,459630520647000,-3.3985329,-14.406043,-5.934859,-0.17789917,-0.7946873,1.6937705
1648,A,459630540851000,-7.2401443,-10.770403,1.5495777,-1.0162623,-1.748099,3.2629051
1648,A,459630560947000,-1.0130934,-8.466394,2.8716285,-1.7704695,0.3387541,3.5920718
1648,A,459630581150000,2.7422974,-7.8269243,-1.8441651,-0.89162636,-1.587244,2.3947146
1648,A,459630601246000,1.2885206,-8.514295,0.91729254,0.26844665,-2.3829966,1.4807175
1648,A,459630621464000,-2.311194,-9.582474,2.6488917,0.8522116,0.07243799,1.2772521
1648,A,459630641560000,0.14849122,-9.769285,2.1148024,0.5837649,1.7257284,1.2229236
1648,A,459630661759000,0.15328126,-9.948912,4.404441,0.5997439,1.8269285,0.52624065
1648,A,459630681855000,-5.582791,-8.054451,3.666775,0.60080916,0.16831179,-0.49960902
1648,A,459630702061000,-1.0705738,-7.9538603,2.7973828,0.21198763,-0.98430437,-1.0791129
1648,A,459630722157000,0.97956306,-9.319021,-0.60833496,-0.5816344,0.7233146,-0.81918836
1648,A,459630742359000,-1.346001,-8.614885,-1.5064673,0.7637946,-0.036218993,0.37710363
1648,A,459630762455000,-1.9639161,-8.341853,-1.331631,0.66152924,-0.44101948,0.4111921
1648,A,459630782658000,-1.6669337,-7.9155397,-0.80712163,0.070307456,0.3536678,0.23435818
1648,A,459630802754000,-1.8800904,-6.9216065,0.1101709,0.23009712,2.7846012,0.101200126
1648,A,459630822944000,-1.8369801,-6.444998,0.91250247,-1.015197,-0.7840346,-0.4314321
1648,A,459630843040000,-1.8226099,-7.1539235,1.4178516,-0.47617322,-0.2034655,-0.6114618
1648,A,459630863200000,-1.7507594,-8.190968,2.3710694,-0.10865697,0.51452273,-1.2420983
1648,A,459630883360000,-2.088457,-8.732242,4.387676,-0.017044231,0.12996227,-1.3156016
1648,A,459630903488000,-2.189048,-8.983719,3.999683,-0.23116238,-0.9779128,-0.99708754
1648,A,459630923693000,-2.7351124,-9.378897,0.7664063,-0.72011876,-1.8801918,-1.3688648
1648,A,459630943758000,-5.6450615,-9.833951,-3.319497,-0.8490158,-1.0769824,-1.9409119
1648,A,459630963854000,-9.410032,-8.562195,-7.175479,-0.23009712,1.5574167,-2.4724789
1648,A,459630984112000,-7.36708,-7.8532696,-0.3879932,1.4817829,3.882889,-2.7824707
1648,A,459631004208000,-5.333709,-7.117998,3.2141163,3.3502567,1.293231,-2.1497037
1648,A,459631024425000,-4.7301636,-6.452183,3.412903,1.7246631,-4.764928,-0.5070659
1648,A,459631044521000,-5.592371,-7.1227884,3.1446607,-1.3582122,-1.8034927,0.70627034
1648,A,459631064746000,-7.8508744,-9.172925,2.6273365,-0.34940675,3.0498521,0.8522116
1648,A,459631084842000,-9.125025,-12.030184,1.585503,0.08735169,1.8418423,1.6490294
1648,A,459631105044000,-10.111773,-11.752361,0.3879932,-1.510545,-0.9139969,3.3971283
1648,A,459631125140000,-9.527389,-9.927357,-3.1973512,-1.856756,-1.0343717,3.8701057
1648,A,459631145343000,-8.255632,-10.499766,-6.844966,-0.9171927,-2.1624868,2.610963
1648,A,459631165439000,-4.8163843,-13.737833,-2.574646,0.28975195,-2.1134846,1.4966966
1648,A,459631185645000,-2.8668385,-16.575932,0.028740235,0.58483016,1.1824435,1.3102753
1648,A,459631205741000,-0.9364527,-18.664389,0.49337405,0.0053263223,2.3552997,1.2452941
1648,A,459631225944000,2.1579127,-19.711012,0.4047583,0.4250405,0.91825795,0.47830373
1648,A,459631246040000,2.4764502,-17.474064,0.6346802,0.27696875,-0.60507023,-0.6487461
1648,A,459631266210000,-0.49576905,-13.333075,0.1820215,0.10865697,-0.5795039,-1.1153319
1648,A,459631286306000,-2.1411476,-10.154883,-0.4143384,-0.5006743,2.034655,-0.014913702
1648,A,459631306489000,-2.9099488,-6.7395854,0.34967285,1.3869743,-1.1675298,0.75633776
1648,A,459631326585000,-3.8320315,-4.3014555,0.84065187,0.43036684,-1.4956313,0.3472762
1648,A,459631346789000,-2.4956105,-3.9757326,0.081430666,0.6040049,1.7470337,-0.38029942
1648,A,459631366885000,0.8334668,-5.51094,0.62510014,-0.30999196,0.13635385,0.5773733
1648,A,459631387091000,2.694397,-5.508545,2.320774,-1.220793,-2.320146,-0.2066613
1648,A,459631407187000,3.417693,-4.737349,2.811753,-0.60080916,0.046871636,-0.49321744
1648,A,459631427384000,4.148174,-4.3349857,1.0178833,-0.47830373,-0.0479369,-1.2154667
1648,A,459631447480000,4.495452,-3.6883302,0.74006104,-0.77125144,-0.8021441,-1.7768611
1648,A,459631467722000,3.9374123,-3.295547,1.2573853,-1.2676647,-0.6860303,-1.8620822
1648,A,459631487818000,3.0057497,-3.3937428,1.5280225,-1.2399678,0.13528858,-2.0048277
1648,A,459631508021000,0.8382569,-4.6678934,-2.299219,-0.14487597,1.1622036,-2.1198764
1648,A,459631528117000,-13.962964,-8.830438,-22.079685,1.6373115,1.8333201,-2.3829966
1648,A,459631548384000,-25.66024,-15.471827,15.419136,3.137204,1.6373115,-2.2722092
1648,A,459631568480000,-15.675404,-19.593657,12.547508,2.3670175,-0.5496765,-1.3486248
1648,A,459631588706000,-19.049986,-8.167017,-4.28469,-0.5486112,0.60080916,-0.18642128
1648,A,459631608802000,-10.758429,-1.0705738,-3.4608033,-0.95447695,0.40053943,0.22903186
1648,A,459631629006000,0.44786867,-7.6401124,-0.44307864,0.13741912,0.31957933,0.6625945
1648,A,459631649102000,0.24668702,-15.383211,-5.134922,-0.43782368,-0.6221144,2.1528995
1648,A,459631669294000,-8.808882,-17.00943,4.351751,-1.7395768,-1.9877834,3.6389434
1648,A,459631689390000,-4.5744877,-16.068186,3.6284547,-1.603223,-0.5954828,3.5270905
1648,A,459631709578000,2.3255641,-9.3309965,-7.941885,-0.3089267,-1.6383767,2.223207
1648,A,459631729674000,0.17962648,-6.3923073,0.62510014,0.5816344,-1.0737866,1.3699301
1648,A,459631749858000,-0.23471193,-6.0330544,2.074087,0.6018744,0.78296936,1.1909657
1648,A,459631769954000,0.5125342,-8.691526,1.3651612,0.18642128,1.4391723,1.0940266
1648,A,459631790137000,-0.06706055,-13.091177,1.7483643,0.60507023,0.9406285,0.25672874
1648,A,459631810233000,0.40954837,-12.645703,1.9854712,0.33662358,-0.88843054,-0.69987875
1648,A,459631830412000,-0.6179151,-8.308323,1.6669337,-0.035153728,-0.3653857,-0.8969527
1648,A,459631850508000,-1.4944923,-6.622229,1.104104,-0.5486112,0.9193232,0.50387007
1648,A,459631870715000,-1.089734,-7.1443434,0.9651929,1.1504856,-0.24074976,0.350472
1648,A,459631890811000,-0.66342044,-7.6281376,1.0514137,0.20985709,-0.34194988,-0.26738137
1648,A,459631911047000,-0.86220706,-7.077283,0.974773,0.15020229,0.44847634,-0.26738137
1648,A,459631931143000,-0.9627979,-6.382727,1.1663746,-0.043675844,-0.17789917,0.24820662
1648,A,459631951324000,-1.0609937,-6.744375,1.5447876,-1.1632688,-0.9736517,-0.71798825
1648,A,459631971420000,-1.9663111,-8.2125225,1.587898,-1.0173275,0.7105314,-1.0226538
1648,A,459631991624000,-3.0799952,-9.259146,2.0333717,-0.62531024,1.7907095,-1.4093449
1648,A,459632011720000,-3.2500417,-9.541759,2.0812721,-0.30999196,1.7736653,-1.4988271
1648,A,459632031929000,-3.2356715,-10.183623,5.46304,-0.28229508,0.45060685,-1.3496901
1648,A,459632052025000,-5.101392,-10.159674,2.7183473,-0.16192019,-0.5368933,-1.6500946
1648,A,459632072229000,-7.783814,-9.580078,-4.8594947,0.40266997,-0.39521313,-2.0804615
1648,A,459632092325000,-11.199112,-8.1143265,-14.729371,1.2016183,-0.23755397,-2.0474384
1648,A,459632112528000,-5.6785917,-7.692803,0.9053174,2.118811,-0.039414786,-1.9718045
1648,A,459632132624000,-4.653523,-6.1647806,4.2032595,2.7526433,-4.1555967,-1.4221281
1648,A,459632152826000,-5.9564137,-5.0343313,3.8008962,-0.5592638,-3.7028592,0.28549087
1648,A,459632172922000,-7.767049,-6.224656,3.6763551,-0.80533993,4.3153863,1.3422332
1648,A,459632193116000,-8.4448395,-9.244776,2.44292,-0.36964676,0.97258645,2.5758095
1648,A,459632213212000,-7.8748245,-12.073294,1.585503,-1.9100192,-2.3989756,4.0384173
1648,A,459632233373000,-8.440049,-12.444522,1.104104,-1.5478293,-1.3528858,3.9926112
1648,A,459632253469000,-9.390872,-11.02188,-4.2080493,0.2428803,-1.6692694,2.0133498
1648,A,459632273671000,-7.486831,-10.219549,-10.739268,0.9193232,-0.66579026,1.0460896
1648,A,459632293767000,-3.4368532,-13.019327,-2.699187,0.6359629,1.7022926,0.7350325
1648,A,459632313961000,-1.4298267,-16.310083,1.8585353,0.3355583,2.408563,0.5795039
1648,A,459632334057000,-1.2094849,-17.567469,1.583108,0.4314321,0.9981528,-0.24714136
1648,A,459632354272000,-0.49337405,-18.30753,0.92208254,0.04474111,-0.76912093,-1.1835088
1648,A,459632374368000,-0.05748047,-17.529148,0.7711963,-1.0578076,0.32170987,-1.1483551
1648,A,459632394591000,-1.0106983,-13.625267,0.4766089,-0.16618125,2.9103024,0.28655612
1648,A,459632414687000,-2.1627028,-9.800421,0.028740235,2.0506341,-2.292449,0.2727077
1648,A,459632434917000,-2.2656887,-6.809041,-0.2802173,-0.4676511,-4.2429485,0.26631612
1648,A,459632455013000,-1.5088624,-5.0534916,0.80712163,0.6359629,2.5790052,-0.008522116
1648,A,459632475236000,-0.8047266,-4.6511283,0.613125,-0.2908172,3.8413436,0.23435818
1648,A,459632495332000,0.50534916,-4.9505057,0.7568262,-0.9012137,-0.21837921,0.083090626
1648,A,459632515542000,2.0094216,-5.144502,1.5040723,-0.35792887,-0.3472762,-0.535828
1648,A,459632535638000,2.8572583,-5.151687,1.21188,-0.11717909,0.68816084,-1.3369069
1648,A,459632555835000,4.054768,-4.8163843,0.91250247,-0.14807177,0.7456851,-1.3773869
1648,A,459632575931000,4.272715,-4.143384,1.4322218,-0.4250405,-0.21837921,-1.4711303
1648,A,459632596176000,3.544629,-3.3338673,1.9639161,-0.4079963,-0.68816084,-1.804558
1648,A,459632616272000,2.2656887,-3.1398706,0.89573735,0.18429075,0.2247708,-2.25623
1648,A,459632636469000,-4.174519,-5.388794,-16.892073,1.139833,1.2815131,-2.4362597
1648,A,459632656565000,-23.24127,-9.448353,-0.9699829,2.6482475,0.6743124,-2.0229373
1648,A,459632676739000,-23.334677,-17.380657,21.459375,2.9209552,-1.8184065,-1.3145363
1648,A,459632696835000,-16.401094,-15.26825,0.26345217,0.2034655,-4.318582,-0.010652645
1648,A,459632717023000,-13.021722,-4.7780643,-9.16574,-1.5382419,0.12783173,1.0833739
1648,A,459632737119000,-1.5112574,-4.600833,-0.45505372,-0.05006743,3.4535873,1.5819178
1648,A,459632757322000,2.2896388,-9.8938265,2.2393434,-0.68389976,-0.47510794,2.9294772
1648,A,459632777418000,-4.1314087,-14.2623415,-0.12454102,-2.0602214,-1.808819,3.9084554
1648,A,459632797620000,-8.808882,-14.940132,1.6836988,-1.4359765,-1.7385116,2.9667616
1648,A,459632817716000,-1.7387843,-14.281502,-5.9061184,0.29614353,-1.2101405,1.438107
1648,A,459632837934000,2.6393116,-9.802815,-3.3506324,0.7233146,-0.06391586,0.9683254
1648,A,459632858030000,0.38320315,-8.284373,0.6777906,0.35899413,1.0546118,0.8873653
1648,A,459632878272000,-0.28740236,-9.266331,0.7927515,0.36964676,1.9473034,-0.5539375
1648,A,459632898368000,0.732876,-10.97398,1.2166699,0.63702816,0.31318775,-0.30360037
1648,A,459632918576000,-1.951941,-10.509346,4.519402,-0.4048005,-1.7182716,-0.3685815
1648,A,459632938672000,-4.038003,-6.6365995,3.171006,-1.0301107,0.10865697,-0.9129316
1648,A,459632958891000,0.25147706,-5.7648125,1.3124708,0.96406436,1.7374463,0.13422333
1648,A,459632978987000,0.77359134,-7.204219,-0.364043,0.85753787,-0.9779128,0.12144015
1648,A,459632999190000,-1.463357,-8.509504,-0.1101709,0.0063915867,-2.0090888,1.1185277
1648,A,459633019286000,-2.0046315,-9.12263,0.4047583,0.588026,4.7244477,1.0588728
1648,A,459633039491000,-1.6046631,-8.102351,0.57001466,-0.70627034,0.9310411,-0.051132694
1648,A,459633059587000,-1.5543678,-6.593489,0.7711963,-0.5219796,-2.0889835,-0.015978966
1648,A,459633079774000,-0.9029224,-6.09293,1.1376343,0.28336033,-2.706837,0.05006743
1648,A,459633099870000,-1.583108,-6.832991,1.6789087,3.0104373,8.272843,-1.0567423
1648,A,459633120041000,-2.2752686,-8.411309,2.0142114,1.8194717,5.365737,-1.8599517
1648,A,459633140137000,-2.4453151,-9.618399,2.2561085,-0.48363006,-3.636813,-1.4253238
1648,A,459633160317000,-3.032095,-10.176438,4.87626,-1.7342505,-3.601659,-1.3901701
1648,A,459633180413000,-4.766089,-10.638678,3.7050953,-0.9331717,-1.0301107,-2.5566347
1648,A,459633200617000,-6.0043144,-10.039923,-0.12933107,1.5297197,0.9044095,-2.9390647
1648,A,459633220713000,-8.765772,-8.796907,-2.3974147,1.8727349,1.067395,-2.2690134
1648,A,459633240920000,-11.7930765,-6.320457,-9.855506,1.2602079,0.0053263223,-1.1451592
1648,A,459633261016000,-6.3228517,-5.704937,-2.7327175,-0.7254451,0.49747851,0.05965481
1648,A,459633281220000,-5.2810183,-6.638994,2.0070264,-0.59761333,0.29614353,1.0407634
1648,A,459633301316000,-10.253079,-8.808882,3.7194655,-0.50387007,-0.5795039,2.6620958
1648,A,459633321552000,-11.697276,-11.63261,3.923042,-1.881257,-2.2658174,3.8370826
1648,A,459633341648000,-9.630374,-14.034815,1.0729688,-1.4434333,-0.8149273,3.3545177
1648,A,459633361865000,-9.651929,-15.356866,-2.5530908,-0.28016454,-1.3422332,1.6564863
1648,A,459633381961000,-5.877378,-15.304175,-3.5997145,0.39627838,-0.96086854,0.829841
1648,A,459633402167000,-2.1124072,-15.397581,-2.179468,0.8426242,1.2218584,0.63702816
1648,A,459633422263000,2.0190015,-16.745977,-1.9255958,0.63702816,1.5339808,0.8724516
1648,A,459633442468000,3.9422023,-17.699196,-0.12454102,0.68389976,0.1736381,0.21731395
1648,A,459633462564000,2.208208,-17.174686,1.6669337,0.10865697,-0.608266,-0.69348717
1648,A,459633482752000,-0.37122804,-15.479012,2.208208,-0.45912898,0.31638354,-1.0492855
1648,A,459633502848000,-1.5639478,-11.5823145,-0.30177248,0.20772657,0.10546118,0.12037488
1648,A,459633523024000,-1.8896705,-7.3718705,-0.76880133,1.2325109,-2.509763,-0.04474111
1648,A,459633543120000,-1.698069,-4.617598,-0.39996827,-0.5486112,-1.4892397,0.5134575
1648,A,459633563324000,-1.6525636,-2.8931837,-1.3819263,0.5581986,3.1649008,0.70840085
1648,A,459633583420000,0.12933107,-3.666775,-0.05748047,-0.3568636,0.48469532,-0.12996227
1648,A,459633603622000,2.088457,-4.8571,2.0237916,-0.93849796,-0.8926916,-0.14807177
1648,A,459633623718000,2.7351124,-5.0678616,3.5853443,-0.7233146,0.87032104,-0.6018744
1648,A,459633643926000,3.9374123,-5.2187476,2.308799,-0.40586576,0.85966843,-1.6042882
1648,A,459633664022000,4.2080493,-4.7804594,1.2310401,-0.30466563,-0.22050974,-1.4413028
1648,A,459633684222000,3.68354,-4.140989,1.1448194,-0.47297743,-0.86179894,-1.5339808
1648,A,459633704318000,2.682422,-3.9877076,1.0178833,-0.34408042,-0.27164245,-1.820537
1648,A,459633724537000,0.19160157,-5.1061816,-3.8104763,0.35473305,1.1941614,-2.0548952
1648,A,459633744633000,-13.840818,-8.502319,-15.958015,1.5904398,1.4413028,-2.2136195
1648,A,459633764868000,-20.762424,-14.437179,17.962646,1.8173412,1.0567423,-2.1007016
1648,A,459633784964000,-16.920815,-17.814156,10.454261,1.4040185,-0.3536678,-1.3060142
1648,A,459633805191000,-20.539688,-8.52627,-6.215076,0.479369,-1.659682,-0.053263225
1648,A,459633825287000,-10.530901,-3.915857,-4.960086,-0.7094661,0.350472,1.0215886
1648,A,459633845489000,-1.0370435,-10.097403,0.9987232,-0.9683254,0.45486793,1.9409119
1648,A,459633865585000,-4.2439747,-15.189215,-0.49337405,-1.562743,-3.1276164,3.0668964
1648,A,459633885788000,-8.765772,-14.650335,0.9508228,-1.5883093,-1.1430287,3.3300166
1648,A,459633905884000,0.25147706,-10.827884,-1.0322535,-0.74675035,-0.31957933,2.167813
1648,A,459633926082000,3.7170706,-7.7239385,-3.8775368,0.13422333,-1.4562165,1.0823087
1648,A,459633946178000,-0.43110353,-7.9394903,0.32572266,0.7339672,-0.3888215,0.89162636
1648,A,459633966350000,-0.30895755,-10.614727,0.78556645,0.88843054,0.7595336,0.9938917
1648,A,459633986446000,0.011975098,-13.349839,0.89573735,0.73290193,1.2751216,0.5837649
1648,A,459634006651000,1.1064991,-12.604988,1.5543678,0.5251754,0.08628642,-0.2759035
1648,A,459634026747000,0.54366946,-8.226892,1.5950831,0.05752428,-0.6327671,-0.9374327
1648,A,459634046961000,-0.4143384,-5.5588408,1.2789404,-0.3323625,0.36751625,-1.0748519
1648,A,459634067057000,-0.4023633,-5.589976,0.9580079,0.9044095,0.1768339,-0.083090626
1648,A,459634087217000,-0.31374758,-7.8915896,0.8933423,0.7765778,-0.7819041,0.6018744
1648,A,459634107377000,-0.9196875,-9.683064,0.87418216,0.3536678,-0.10972224,0.34940675
1648,A,459634127505000,-1.5399976,-9.19927,0.9484278,0.55287224,3.1553133,0.16085494
1648,A,459634147709000,-1.5807129,-7.7574687,1.3747413,-0.2972088,-0.16831179,0.056459017
1648,A,459634167861000,-1.5447876,-6.8665214,1.6836988,-0.79894835,-1.845038,-0.040480047
1648,A,459634187957000,-1.6860938,-7.443721,1.7914747,-0.76912093,0.85540736,-0.5422196
1648,A,459634208128000,-2.2824538,-8.988508,1.2430152,-0.6562029,1.2687299,-1.1739215
1648,A,459634228224000,-3.187771,-10.085427,0.8167017,-0.59761333,0.23542345,-1.0503508
1648,A,459634248425000,-4.1984696,-10.085427,1.0705738,-0.6945524,-0.9353022,-1.2133362
1648,A,459634268521000,-4.3062453,-9.498648,2.703977,-0.6295713,-1.2506205,-1.5936357
1648,A,459634288726000,-5.1157618,-9.019644,2.5842261,-0.30679616,-0.18535602,-2.1411815
1648,A,459634308822000,-7.5251517,-8.602911,-0.64186525,0.5773733,1.8759307,-2.4469125
1648,A,459634329017000,-10.41115,-8.729847,-1.4178516,1.7608821,2.6493127,-2.360626
1648,A,459634349113000,-10.916499,-7.0006423,-9.295072,2.424542,1.1920309,-1.5936357
1648,A,459634369317000,-5.886958,-5.343289,-6.3947024,1.5957662,-2.457565,-0.628506
1648,A,459634389413000,-4.4427614,-7.31918,0.21076173,-0.27057716,-2.1486385,0.84368944
1648,A,459634409616000,-5.997129,-10.245894,3.3266823,-1.2548815,1.1696603,2.2988408
1648,A,459634429712000,-6.943162,-12.724739,3.051255,-1.433846,-0.38562572,3.9425437
1648,A,459634449896000,-7.7311234,-13.927039,2.2249732,-1.6298546,-0.14061491,4.0352216
1648,A,459634469992000,-9.189691,-13.632452,2.4141798,-0.7616641,-1.4317155,2.5832663
1648,A,459634490194000,-7.95865,-11.896063,-3.4608033,0.25566345,-1.3496901,1.454086
1648,A,459634510290000,-4.169729,-12.092454,-7.197034,0.64341974,0.7552725,1.0482203
1648,A,459634530498000,-1.3915064,-14.231207,-2.5363257,0.29827404,1.8897791,1.0333065
1648,A,459634550594000,-0.366438,-15.862215,0.8885523,0.48149952,1.123854,0.33662358
1648,A,459634570789000,1.1855347,-17.01422,2.0118165,0.23222765,-0.9193232,-0.7254451
1648,A,459634590885000,1.1687696,-17.181871,2.5818312,-0.09267801,-0.64768076,-1.3241237
1648,A,459634611124000,-0.7879615,-14.777271,2.1267774,-0.83942837,2.0879183,-0.75101143
1648,A,459634631220000,-2.0429518,-10.657837,1.6908839,1.9952403,-0.94595486,-0.1587244
1648,A,459634651423000,-2.411785,-6.7371902,0.49576905,-0.5954828,-3.5505264,0.59867865
1648,A,459634671519000,-2.2417383,-4.6511283,-1.6453785,0.4346279,1.2772521,0.7978831
1648,A,459634691720000,-1.0274634,-4.5960426,-2.4932153,0.1470065,3.629356,0.096939065
1648,A,459634711816000,0.9987232,-5.4223247,-0.39757326,-0.97045594,-0.19920446,0.054328486
1648,A,459634732016000,2.083667,-5.836663,2.2513185,-0.8767126,-0.4708469,-0.41438788
1648,A,459634752112000,2.8764186,-5.8749833,3.178191,-0.41438788,0.034088463,-1.2825783
1648,A,459634772332000,3.8487966,-5.1732426,2.2968237,-0.0127831735,0.040480047,-1.1994878
1648,A,459634792428000,4.29427,-4.1553593,1.4489869,-0.15020229,-0.6625945,-1.4530207
1648,A,459634812648000,3.9326222,-3.532654,0.84544194,-0.5603291,-1.1291803,-1.9590213
1648,A,459634832744000,2.8931837,-3.7458107,-0.76880133,-0.5773733,-0.26844665,-2.4277377
1648,A,459634852960000,-2.8836036,-5.6690116,-15.419136,0.3387541,1.9675435,-2.7015107
1648,A,459634873056000,-14.710211,-9.608819,-1.1999048,2.4703484,2.5566347,-2.3670175
1648,A,459634893240000,-16.482525,-16.47534,24.014862,2.7419908,1.2804478,-1.5009576
1648,A,459634913336000,-17.945883,-17.969831,3.166216,0.7914915,-2.67914,-0.033023197
1648,A,459634933546000,-22.783821,-7.1275783,-5.5301003,-1.361408,-0.8330368,0.79681784
1648,A,459634953642000,-9.153765,-5.007986,-1.2454102,-0.48043427,1.2655342,1.0471549
1648,A,459634973847000,-0.17962648,-10.933265,2.1171973,-0.4878911,-0.27164245,2.7494476
1648,A,459634993943000,-3.159031,-12.559483,-1.5783179,-1.695901,-1.2879047,4.128965
1648,A,459635014145000,-7.1299734,-10.842254,-1.0825489,-1.3646038,-1.4455639,3.2724924
1648,A,459635034241000,-1.099314,-9.105865,2.411785,0.15978967,-2.3457124,1.3933659
1648,A,459635054447000,2.8500733,-9.381292,-2.459685,1.135572,0.2695119,-0.85327685
1648,A,459635074543000,-1.5208374,-10.399176,-2.189048,0.28655612,0.15233281,1.8056233
1648,A,459635094756000,-1.3388159,-10.966795,0.8095166,-0.30146983,0.8117315,1.2900352
1648,A,459635114852000,1.0849439,-11.215877,1.5208374,0.16298546,0.43249738,-0.15020229
1648,A,459635135056000,1.839375,-10.686578,1.954336,0.37710363,-0.8213189,-0.92997587
1648,A,459635155152000,0.27303225,-8.978929,2.1531227,-0.5773733,0.23648871,-1.0407634
1648,A,459635175354000,-1.6022681,-7.4197707,1.1160791,-0.09374327,1.7385116,0.29614353
1648,A,459635195450000,-1.1304493,-7.688013,0.60354495,1.5893745,-1.2303804,-0.37390783
1648,A,459635215662000,-1.2334352,-8.856783,0.7089258,0.16085494,-1.128115,0.0053263223
1648,A,459635235758000,-1.8058448,-9.15616,0.84544194,0.5486112,2.3776703,0.5539375
1648,A,459635255952000,-1.7603394,-8.3250885,0.7927515,0.221575,1.4008228,0.7765778
1648,A,459635276048000,-1.4058765,-7.2185893,0.8430469,-0.8223842,-2.4106934,0.007456851
1648,A,459635296221000,-1.223855,-6.69408,0.8095166,-0.75420725,0.7765778,-0.043675844
1648,A,459635316317000,-1.1256592,-7.082073,0.855022,-0.36751625,1.937716,-0.753142
1648,A,459635336520000,-1.9255958,-7.9562554,1.0657837,-0.28655612,1.3379722,-1.1270498
1648,A,459635356616000,-2.8380983,-9.072334,1.1424243,-0.5411543,-0.004261058,-1.196292
1648,A,459635376821000,-2.8812087,-9.592053,1.7771046,-0.74035877,-1.164334,-1.6458336
1648,A,459635396917000,-2.3423293,-8.741821,4.643943,-0.6764429,-1.1345067,-2.3744745
1648,A,459635417120000,-3.0823903,-8.487949,1.0849439,-0.30679616,0.19068234,-2.9039109
1648,A,459635437216000,-4.014053,-8.737032,-2.179468,0.69029135,2.0836573,-2.7814054
1648,A,459635457424000,-7.3455253,-9.012459,-6.183941,2.0847225,2.3329291,-2.2935145
1648,A,459635477520000,-7.7430983,-8.322693,-4.488267,2.9049761,-0.34194988,-1.2101405
1648,A,459635497739000,-5.3121533,-7.6425076,0.5963599,1.5947009,-5.3795853,0.04580637
1648,A,459635517835000,-4.8139896,-6.8593364,2.9626393,-1.0428939,-2.347843,2.038916
1648,A,459635538058000,-6.09293,-6.583909,5.0415163,-1.3145363,0.55287224,3.7667751
1648,A,459635558154000,-8.954978,-8.612491,4.2056546,-1.1323761,1.1153319,4.563593
1648,A,459635578342000,-9.091495,-12.042159,2.0118165,-1.933455,1.9110844,4.1886196
1648,A,459635598438000,-8.169412,-14.985638,1.6118482,-0.33662358,-0.96086854,2.5310683
1648,A,459635618642000,-7.568262,-13.42169,-1.4465919,1.4615428,-1.659682,1.2282499
1648,A,459635638738000,-7.9897857,-9.994417,-9.1202345,1.6714,0.43782368,0.91825795
1648,A,459635658941000,-5.5612354,-10.590776,-7.048543,0.60507023,2.91989,0.5070659
1648,A,459635679037000,-1.7794995,-13.737833,-0.23231691,0.680704,3.1553133,-0.27164245
1648,A,459635699238000,-0.7424561,-16.401094,1.5735279,0.6466155,-0.23648871,-0.8788432
1648,A,459635719334000,-0.38559815,-17.438137,1.8944606,-0.3717773,0.30360037,-1.3060142
1648,A,459635739543000,0.60594,-17.799786,1.7244141,0.3685815,1.071656,-0.05006743
1648,A,459635759639000,0.5891748,-14.65273,0.70174074,2.3031018,-3.299124,0.2130529
1648,A,459635779835000,-1.4274317,-10.241104,-0.22992188,-0.7052051,-3.9713058,0.0777643
1648,A,459635799931000,-1.4585669,-7.2832546,-0.4263135,0.25992453,-0.029827405,0.57098174
1648,A,459635820117000,-1.9878663,-4.790039,-0.8885523,1.0471549,6.077334,0.31957933
1648,A,459635840213000,-2.2920337,-3.7601807,-1.0059083,-0.55606806,0.4293016,-0.039414786
1648,A,459635860414000,0.22752686,-5.046306,0.10538086,-0.9768475,-0.32384038,0.19387813
1648,A,459635880510000,1.7771046,-5.5947657,1.4585669,-0.7669904,0.71798825,-1.0322412
1648,A,459635900714000,2.7231374,-5.2187476,2.1171973,-0.1438107,0.5635249,-1.1994878
1648,A,459635920810000,3.5829494,-4.5553274,1.219065,0.02130529,-0.314253,-1.2836437
1648,A,459635941036000,4.191284,-3.887117,0.2945874,-0.41225734,-1.1068097,-1.6149409
1648,A,459635961132000,4.1218286,-3.6763551,0.38559815,-0.63383234,-1.1377025,-2.0197413
1648,A,459635981342000,3.0967603,-3.9565725,0.18920656,-0.3089267,0.3898868,-2.4309335
1648,A,459636001438000,-0.7783814,-5.151687,-6.6270194,0.99069595,2.2221417,-2.6610305
1648,A,459636021639000,-14.547349,-8.744217,-9.659114,2.6759443,2.0335898,-2.328668
1648,A,459636041735000,-20.015179,-16.817827,17.761465,2.1688783,0.12357068,-1.2729911
1648,A,459636061942000,-18.123114,-18.824854,5.372029,0.5134575,-2.6727486,0.05006743
1648,A,459636082038000,-20.465443,-8.049661,-5.137317,-0.76485986,-0.572047,1.0439591
1648,A,459636102240000,-9.589659,-6.588699,-2.6512868,-0.515588,0.84155893,1.6809874
1648,A,459636122336000,-2.186653,-12.092454,2.3782544,-1.2974921,-1.1121361,3.0945933
1648,A,459636142540000,-5.470225,-15.5987625,0.7807764,-1.9036276,-0.70840085,3.778493
1648,A,459636162636000,-1.6669337,-11.881692,1.0370435,-1.091896,-1.1419635,2.863431
1648,A,459636182823000,4.6583133,-6.4928985,-2.806963,0.3291667,-2.1060278,1.743838
1648,A,459636202919000,2.7782228,-7.7167535,-1.7124391,1.0610034,-1.0428939,1.1291803
1648,A,459636223125000,-0.7185059,-11.04104,-0.1341211,0.5273059,1.9792614,0.8745821
1648,A,459636243221000,-1.0298585,-14.123431,-0.27303225,0.30679616,2.0644825,0.6221144
1648,A,459636263425000,0.28979737,-13.871954,0.49576905,0.2695119,-0.5997439,-0.19281286
1648,A,459636283521000,0.9627979,-9.045989,0.9987232,0.043675844,-1.1845741,-1.0439591
1648,A,459636303725000,-0.20357667,-5.752837,1.0562036,-0.8159926,1.3752564,-1.0887003
1648,A,459636323821000,-0.7711963,-5.230723,1.0106983,1.6490294,-0.22050974,-0.21092236
1648,A,459636344020000,-1.2406201,-7.340735,0.92208254,0.17470337,-2.5768747,0.13102753
1648,A,459636364116000,-1.7794995,-9.666299,0.85741705,0.21092236,0.6359629,1.135572
1648,A,459636384320000,-1.9974464,-9.707015,0.71371585,0.93636745,1.965413,0.45699844
1648,A,459636404416000,-1.84177,-8.025711,0.45984375,-0.8788432,-0.8926916,-0.07137272
1648,A,459636424627000,-1.7794995,-6.5312185,0.44547364,-1.6298546,0.2759035,-0.17044231
1648,A,459636444723000,-1.8058448,-6.1959157,0.38320315,-0.90654004,0.8852348,-1.0588728
1648,A,459636464937000,-1.5950831,-7.213799,0.28740236,-0.28975195,0.73822826,-1.2431636
1648,A,459636485033000,-2.4165747,-8.442444,0.4239185,-0.30466563,0.0010652645,-1.4199976
1648,A,459636505236000,-3.06323,-9.354947,0.9580079,-0.4708469,-0.6199839,-1.8865833
1648,A,459636525332000,-3.319497,-9.304651,1.22146,-0.4101268,0.0777643,-2.4074976
1648,A,459636545541000,-3.3434474,-8.365804,1.5040723,0.30360037,2.3542345,-2.7547739
1648,A,459636565637000,-3.8200562,-8.914263,4.3637257,1.9781961,3.632552,-2.424542
1648,A,459636585842000,-6.6437845,-9.972861,0.33769777,3.2565134,0.5699165,-1.4295849
1648,A,459636605938000,-8.071217,-9.575289,-1.3244458,1.5638082,-3.7774277,-0.16192019
1648,A,459636626140000,-8.243657,-7.3886356,-0.4239185,-0.68816084,-3.8040593,0.644485
1648,A,459636646236000,-8.832832,-5.1468973,-3.5757644,-1.0428939,0.070307456,1.5403724
1648,A,459636666420000,-8.454419,-6.095325,-3.899092,-0.5635249,0.5997439,2.3382554
1648,A,459636686516000,-8.133487,-10.542876,-1.0370435,-1.3475596,-0.0127831735,3.6080508
1648,A,459636706713000,-7.8652444,-13.323494,1.3220508,-1.5659387,0.18216023,3.645335
1648,A,459636726809000,-8.638836,-14.068345,1.9016455,-0.15978967,-1.9142802,2.3979104
1648,A,459636747012000,-8.3250885,-13.654007,-2.3806496,1.1345067,-1.716141,1.4317155
1648,A,459636767108000,-4.8307548,-14.516214,-6.246211,1.1909657,0.48043427,0.8926916
1648,A,459636787310000,-2.1315675,-16.40349,-3.2452517,0.5230448,2.5449169,0.7861652
1648,A,459636807406000,-1.346001,-17.972227,0.17723145,0.44741106,1.0343717,-0.008522116
1648,A,459636827627000,-0.21315674,-18.709894,1.9830762,0.0031957934,-0.5965481,-0.85540736
1648,A,459636847723000,1.2022998,-18.20694,3.6452198,-0.65726817,0.58909124,-1.365669
1648,A,459636867912000,1.5687379,-15.720909,3.2165112,0.7946873,0.7861652,-0.43888897
1648,A,459636888008000,1.3579761,-11.345208,1.8082398,1.026915,-2.1102889,-0.058589544
1648,A,459636908217000,0.2203418,-6.7228203,-1.3388159,-0.4293016,-1.861017,1.3070794
1648,A,459636928313000,-1.3867164,-3.2428565,-3.05844,0.59228706,2.6130936,0.757403
1648,A,459636948523000,-1.1112891,-2.7734327,-1.710044,-0.6711166,-0.008522116,-0.27696875
1648,A,459636968619000,-0.364043,-4.021238,0.41912845,-1.5073493,-0.6061355,0.041545313
1648,A,459636988823000,0.32093263,-4.6918435,1.9327809,-1.1835088,-0.36432046,-0.6593987
1648,A,459637008919000,2.9099488,-5.49178,3.027305,1.2112057,-0.8426242,-0.8511463
1648,A,459637029122000,3.8320315,-5.0415163,2.3734643,2.7015107,0.90654004,-1.2229236
1648,A,459637049218000,3.9445972,-4.033213,1.346001,-0.12676647,3.0274816,-2.0133498
1648,A,459637069421000,3.803291,-3.5949244,0.9508228,-1.7534252,-0.5965481,-2.1560953
1648,A,459637089517000,2.8979738,-4.169729,0.45984375,-0.9054748,-1.9547603,-2.9166942
1648,A,459637109698000,0.043110352,-6.468948,-6.5144534,0.9321064,1.0865698,-3.3928673
1648,A,459637129794000,-11.970308,-10.633887,-14.722186,1.5701998,3.097789,-2.7782097
1648,A,459637149960000,-18.367405,-16.228653,17.929117,1.6341157,-1.0088054,-1.2090752
1648,A,459637170056000,-19.58168,-17.347128,13.064832,-0.39095205,-1.9877834,0.5411543
1648,A,459637190244000,-21.004322,-9.297466,-4.6822634,-0.9353022,1.1632688,1.619202
1648,A,459637210340000,-13.840818,-3.412903,-2.8548634,-0.7840346,-0.04474111,2.5246768
1648,A,459637230510000,-2.1291726,-9.352551,1.2070899,-1.3965617,-1.6447684,3.7167077
1648,A,459637250606000,-4.1864944,-14.379698,-4.6271777,-1.6138756,-0.58483016,3.8903458
1648,A,459637270826000,-8.919053,-13.675562,1.4801221,-0.44421527,-2.0271983,2.3872576
1648,A,459637290922000,-0.30416748,-12.564273,1.9423609,0.41225734,-1.160073,1.1781825
1648,A,459637311082000,4.282295,-8.677156,-2.8548634,0.9193232,1.5318503,0.8117315
1648,A,459637331242000,0.4622388,-6.7228203,-0.5125342,0.5091964,2.0516994,0.87777793
1648,A,459637351370000,0.035925295,-7.846084,0.5364844,0.50813115,1.1781825,0.08735169
1648,A,459637371599000,0.7783814,-11.709251,0.41194338,0.2514024,-0.773382,-1.010936
1648,A,459637391720000,0.5604346,-14.245577,0.8885523,-0.5123922,0.31851408,-1.3699301
1648,A,459637411816000,0.90771246,-11.088941,1.214275,0.42290998,2.2413163,-0.25353295
1648,A,459637432020000,0.52690434,-6.983877,0.9580079,1.7097495,-2.6887274,-0.2396845
1648,A,459637452116000,0.35925296,-6.104905,0.88376224,-0.24714136,-2.3031018,-0.15126756
1648,A,459637472316000,-0.0023950196,-7.321575,1.0154883,0.7595336,2.896454,0.47830373
1648,A,459637492412000,-0.15328126,-8.624466,1.2022998,0.24394555,1.3933659,0.55606806
1648,A,459637512641000,-0.32572266,-8.217313,1.4202466,-1.0077401,-0.96619487,0.10865697
1648,A,459637532737000,-0.8095166,-7.204219,1.3004956,-0.81705785,0.94275904,-0.17576863
1648,A,459637552930000,-0.79993653,-6.9072366,1.3483961,-0.3323625,1.1259845,-0.7073356
1648,A,459637573026000,-1.2022998,-7.568262,1.1304493,-0.3334278,0.34301516,-0.9651296
1648,A,459637593203000,-2.0261867,-9.24717,0.80233157,-0.43782368,-0.5422196,-1.2335763
1648,A,459637613299000,-2.7063723,-10.097403,0.71371585,-0.4079963,-1.0791129,-1.6330504
1648,A,459637633483000,-3.408113,-9.836346,1.0562036,-0.23116238,-0.3174488,-2.4554346
1648,A,459637653579000,-4.4451566,-9.987232,2.2441335,0.49215218,1.6532904,-2.863431
1648,A,459637673776000,-6.3947024,-10.736873,5.024751,1.9813919,2.5598304,-3.097789
1648,A,459637693872000,-8.768167,-10.744058,-0.043110352,3.029612,0.9331717,-2.198706
1648,A,459637714075000,-9.16574,-8.976534,-2.1459377,1.3347764,-3.6677055,-0.4612595
1648,A,459637734171000,-8.940608,-5.6282964,-3.9517825,-1.3305153,-0.2790993,1.0343717
1648,A,459637754391000,-7.2114043,-3.9182522,-4.598438,-0.7978831,2.6865969,2.0399814
1648,A,459637774487000,-7.180269,-6.0354495,-2.3710694,-0.9917612,-1.2953615,3.4290862
1648,A,459637794728000,-7.783814,-10.684182,0.90771246,-1.8397117,-1.8482338,4.3484097
1648,A,459637814824000,-6.215076,-14.049185,1.1160791,-1.0002834,-1.6085494,3.3779535
1648,A,459637835045000,-5.977969,-14.276712,1.089734,0.05006743,-1.816276,1.4168017
1648,A,459637855141000,-6.821016,-11.464959,0.7209009,1.0769824,2.288188,-1.5531555
1648,A,459637875380000,-6.7898808,-10.166859,-2.792593,-0.043675844,0.8319715,0.93636745
1648,A,459637895476000,-4.0044727,-13.323494,-5.455855,-0.066046394,0.330232,1.8194717
1648,A,459637915679000,-1.6166383,-17.773441,-4.174519,0.19813919,-0.18216023,-0.34621096
1648,A,459637935775000,0.047900394,-19.876268,-0.974773,0.16618125,-1.3560816,-0.9502159
1648,A,459637955977000,1.1352394,-20.649858,0.24908204,-0.56459016,2.4234767,-0.6423545
1648,A,459637976073000,0.7568262,-18.444046,2.0860622,1.8237327,-0.13422333,0.68389976
1648,A,459637996286000,0.07424561,-13.701907,2.818938,0.50387007,-2.7547739,-0.2695119
1648,A,459638016382000,-0.7759864,-9.163345,1.463357,0.20133498,-0.44847634,0.0479369
1648,A,459638036550000,-0.88376224,-5.52052,-1.1496094,0.567786,4.4251084,0.5305017
1648,A,459638056646000,-0.5340894,-3.5087037,-5.319339,-0.624245,-1.4104102,0.16298546
1648,A,459638076847000,0.3544629,-3.911067,-3.0153298,-0.9555422,-1.3805827,0.29294774
1648,A,459638096943000,2.7686427,-4.737349,2.1171973,-0.8511463,0.6348976,-0.08841695
1648,A,459638117109000,3.791316,-4.782854,2.3854396,-0.7030745,0.24181503,-1.0439591
1648,A,459638137205000,3.9206471,-4.150569,0.14130616,-0.6668556,-0.46658584,-1.3912354
1648,A,459638157403000,3.887117,-3.4488282,-0.20597169,-0.8181231,-0.4495416,-1.8887138
1648,A,459638177499000,3.5613942,-2.955454,0.9029224,-0.78296936,0.3355583,-2.4032366
1648,A,459638197701000,2.5267458,-2.6417067,2.047742,-0.21944448,2.4639566,-2.5971148
1648,A,459638217797000,-0.059875492,-3.4248781,2.6033864,1.7789917,3.8764973,-2.3382554
1648,A,459638238020000,-10.590776,-6.353987,-6.6102543,3.5824845,1.5808525,-1.804558
1648,A,459638258116000,-21.593496,-12.827725,7.067703,1.7012273,-3.2320123,-0.9715212
1648,A,459638278290000,-21.96233,-19.208057,12.410992,-1.2942963,-1.3464943,0.3174488
1648,A,459638298386000,-22.527555,-11.749967,-0.95561284,-0.83516735,1.3134711,1.1132014
1648,A,459638318589000,-11.929593,-4.8906302,-6.13604,-0.060720075,0.7797736,2.0591562
1648,A,459638338685000,-0.102985844,-10.200389,-1.6070582,-1.164334,-1.9451729,3.3534524
1648,A,459638358891000,-1.2957057,-15.000008,-0.46942386,-1.3486248,-1.7608821,3.6932719
1648,A,459638378987000,-5.113367,-15.28262,4.1170387,-0.46019423,-2.561961,2.3276029
1648,A,459638399166000,3.796106,-10.399176,-5.005591,0.31318775,-2.3787355,1.200553
1648,A,459638419262000,4.373306,-7.4916215,-4.157754,0.7105314,0.24394555,0.85753787
1648,A,459638439469000,0.06945557,-9.182506,0.9580079,0.5134575,1.2793826,0.7957525
1648,A,459638459565000,-0.17004639,-12.930711,0.4622388,0.48682585,0.22370553,0.33662358
1648,A,459638479724000,-0.2706372,-14.789247,1.0059083,0.1555286,-1.0482203,-0.48149952
1648,A,459638499820000,1.1711646,-11.522439,1.6693287,-0.12037488,-0.47617322,-1.2655342
1648,A,459638519992000,0.4406836,-7.0988383,1.2166699,0.22050974,-0.101200126,-1.6873789
1648,A,459638540088000,-0.6993457,-5.3384986,0.7951465,0.67218184,0.22583607,-0.92464954
1648,A,459638560291000,-1.2741505,-5.597161,0.8382569,0.32810146,-0.6711166,0.22690132
1648,A,459638580387000,-1.477727,-7.917935,0.8669971,0.17257284,-0.098004326,1.6138756
1648,A,459638600590000,-1.6693287,-9.592053,1.1520045,1.1888351,0.91612744,1.707619
1648,A,459638620686000,-1.0514137,-9.259146,1.4489869,-1.2026836,-0.98856544,0.78936094
1648,A,459638640905000,-0.5628296,-7.436536,1.2549903,-2.0719395,-0.38029942,0.42184472
1648,A,459638661001000,-0.7783814,-6.143225,1.1184741,-1.3198626,-0.43249738,-1.0823087
1648,A,459638681213000,-1.0059083,-6.3851223,1.346001,-1.1004182,-1.0641992,-1.5797871
1648,A,459638701309000,-1.4465919,-8.195757,1.4465919,-1.3677995,-1.3699301,-1.953695
1648,A,459638721512000,-2.1148024,-9.999207,1.219065,-1.5744609,-0.4857606,-2.799515
1648,A,459638741608000,-2.7494826,-9.685459,1.9327809,-1.0290455,2.1326594,-3.4653053
1648,A,459638761848000,-3.796106,-9.374106,3.671565,2.3947146,4.357997,-3.8946068
1648,A,459638781944000,-5.2905984,-10.085427,2.9865894,4.081028,-0.42290998,-2.7867317
1648,A,459638802146000,-7.089258,-10.466236,0.3784131,-0.84368944,-1.107875,-0.4878911
1648,A,459638822242000,-10.971585,-9.24717,-4.509822,-1.4604776,2.038916,1.0290455
1648,A,459638842445000,-10.289004,-5.865403,-12.214601,-0.18961707,-0.10226539,1.2239889
1648,A,459638862541000,-4.8571,-5.221143,-2.189048,-0.74248934,-0.23329292,1.7278589
1648,A,459638882747000,-5.1828227,-8.370594,2.440525,-0.3355583,-1.438107,2.9742184
1648,A,459638902843000,-7.084468,-11.714041,3.396138,-0.43782368,-1.3422332,4.1790323
1648,A,459638923031000,-7.647298,-13.400135,2.7231374,-0.9395633,-0.29188246,3.3182988
1648,A,459638943127000,-7.9778104,-14.233602,2.4165747,0.8213189,-0.97045594,1.695901
1648,A,459638963336000,-8.679551,-12.557088,1.8154249,1.2729911,0.4857606,0.8447547
1648,A,459638983432000,-7.31439,-11.716436,-3.1111305,0.70200926,1.861017,0.57417756
1648,A,459639003634000,-2.3926246,-13.924644,-6.327642,0.6178534,1.8940402,0.68176925
1648,A,459639023730000,0.30177248,-16.202309,-3.1350808,0.2727077,-0.40266997,-0.32384038
1648,A,459639043961000,1.2070899,-17.727936,1.4154567,-0.15233281,-0.77444726,-1.3156016
1648,A,459639064057000,1.1256592,-18.559008,2.6896071,-0.03089267,1.6010925,-0.77125144
1648,A,459639084257000,-0.05748047,-17.703985,3.4584084,1.9036276,1.2463595,-0.9800433
1648,A,459639104353000,-0.07185059,-13.754598,2.454895,0.43356264,0.5049353,-0.8021441
1648,A,459639124603000,0.100590825,-8.787327,1.4729371,-0.39095205,-0.2247708,1.320928
1648,A,459639144699000,-0.9388477,-4.9313455,-1.0154883,1.3677995,-3.2415998,1.8738002
1648,A,459639164930000,-1.8465601,-3.1183155,-4.9002104,-0.26312032,-0.56245965,0.55287224
1648,A,459639185026000,-0.37601808,-3.8272414,-3.2093263,-1.9771309,2.441586,-0.066046394
1648,A,459639205230000,1.7507594,-5.1971927,1.5136524,-1.1994878,2.0836573,-1.1451592
1648,A,459639225326000,3.3793726,-5.592371,4.864285,-0.34514567,0.8330368,-1.3891048
1648,A,459639245531000,4.3062453,-5.046306,3.3410523,-0.31638354,-0.08948222,-1.0045444
1648,A,459639265627000,4.7469287,-3.9901028,1.4729371,-0.49428272,-0.7819041,-1.6096146
1648,A,459639285832000,4.5385623,-3.276387,0.8933423,-0.38242993,-0.47191215,-2.4469125
1648,A,459639305928000,3.4009278,-3.1422658,0.28979737,0.5209143,1.0439591,-2.727077
1648,A,459639326156000,0.81909674,-4.6750784,-8.830438,1.4977618,2.2434468,-2.4138892
1648,A,459639346252000,-10.432706,-7.7790236,-14.05158,2.082592,0.9012137,-1.7939054
1648,A,459639366418000,-15.742464,-14.753321,21.677322,1.9153455,-2.5875273,-0.721184
1648,A,459639386514000,-14.425203,-20.005598,10.186019,-0.84688526,-2.3638217,1.7065537
1648,A,459639406692000,-23.552624,-11.199112,-0.8382569,-1.7907095,-1.320928,3.4173684
1648,A,459639426788000,-18.83683,-3.5254688,-0.033530276,-0.64768076,0.25033715,4.037352
1648,A,459639446992000,-6.3779373,-7.151529,1.6070582,-1.2186625,1.1632688,3.5111117
1648,A,459639467088000,-1.9806812,-14.283897,-1.4226416,0.0958738,-1.4668691,2.2200112
1648,A,459639487269000,-5.7624173,-13.855188,-0.117355965,1.2250541,-1.5275892,0.90654004
1648,A,459639507365000,-0.7376661,-11.062595,3.903882,0.58056915,1.7097495,0.69987875
1648,A,459639527570000,7.031778,-11.429033,-7.795789,0.34514567,2.0634172,0.6135923
1648,A,459639547666000,2.7686427,-10.585987,-3.7601807,0.21944448,-0.068176925,-0.26312032
1648,A,459639567929000,-0.7209009,-10.083033,1.3843213,-0.13528858,-0.9491506,-1.099353
1648,A,459639588025000,0.6322852,-12.631333,5.137317,-0.5209143,1.1579424,-1.0929613
1648,A,459639608206000,-3.5733693,-11.347603,9.12263,1.4721955,0.22690132,0.24714136
1648,A,459639628302000,0.39757326,-9.419612,-2.8907888,0.57417756,-2.2487733,0.0031957934
1648,A,459639648506000,2.0525317,-6.696475,-3.2620168,-0.06711166,-0.03089267,0.8948221
1648,A,459639668602000,1.2621753,-6.2438164,0.3305127,0.4314321,3.129747,0.98750013
1648,A,459639688808000,1.0035132,-7.7215433,1.2358302,-0.6423545,-0.91825795,0.12463594
1648,A,459639708904000,0.6945557,-9.060359,0.2778223,-1.2825783,-0.39840892,-0.13954964
1648,A,459639729106000,-0.18920656,-8.787327,0.06945557,-0.78083885,0.19813919,-1.1270498
1648,A,459639749202000,-0.86939216,-7.685618,0.033530276,-0.28549087,-0.35579833,-1.3198626
1648,A,459639769405000,-0.4622388,-7.247329,0.2706372,-0.32384038,-0.49215218,-1.3422332
1648,A,459639789501000,-0.2921924,-7.7215433,0.6945557,-0.36751625,-0.1949434,-1.8642128
1648,A,459639809688000,-1.5399976,-8.672366,1.6549586,-0.18322548,0.48149952,-2.5289378
1648,A,459639829784000,-3.3338673,-9.77647,2.7446926,0.4708469,1.8152106,-3.06157
1648,A,459639849965000,-4.267925,-9.764495,5.151687,1.8748654,2.1965754,-2.9017804
1648,A,459639870061000,-4.016448,-8.892708,6.485713,2.231729,1.4988271,-1.7907095
1648,A,459639890259000,-4.471502,-8.384964,0.29937744,1.2239889,-2.3371902,-0.7914915
1648,A,459639910355000,-6.1575956,-8.657996,0.62031007,-0.531567,-1.0226538,0.87351686
1648,A,459639930558000,-11.924803,-8.514295,-2.3135889,-0.9576728,0.36112466,2.2572954
1648,A,459639950654000,-11.280542,-6.6198344,-7.6281376,-1.0460896,-1.7289242,3.5878108
1648,A,459639970862000,-6.466553,-5.721702,-3.2500417,-1.2985574,-0.406931,4.169445
1648,A,459639990958000,-6.725215,-8.020921,2.4884255,-1.1377025,-0.221575,3.165966
1648,A,459640011198000,-7.9873905,-11.00751,3.4296682,0.44741106,-1.9973708,1.6053536
1648,A,459640031294000,-8.207732,-12.662469,1.9567311,0.71159667,0.094808534,0.628506
1648,A,459640051525000,-9.034014,-14.130616,1.6166383,-0.023435818,2.7888622,0.37390783
1648,A,459640071621000,-8.066426,-15.102994,-0.98435307,0.17576863,1.7470337,0.3685815
1648,A,459640091820000,-4.718189,-14.664705,-2.7399025,0.2034655,-1.0705907,-0.2908172
1648,A,459640111916000,-1.8058448,-15.3401,-2.6584718,-0.23329292,-1.1930962,-1.0428939
1648,A,459640132142000,0.9987232,-17.603394,-1.5926881,-0.25672874,2.457565,-0.62317973
1648,A,459640152238000,3.0776002,-19.52899,0.4742139,1.7619474,-1.5190672,-0.29827404
1648,A,459640172442000,1.9854712,-19.325413,1.4825171,-0.13422333,-4.0906153,-0.40053943
1648,A,459640192538000,0.47181886,-15.977176,2.8404932,0.572047,-1.1728562,0.55074173
1648,A,459640212729000,-0.11496094,-10.885365,1.4920973,0.4857606,4.8064733,0.77231675
1648,A,459640232825000,-1.1807446,-6.5048733,-0.27542725,-1.2420983,1.5925703,-0.080960095
1648,A,459640253012000,-2.1171973,-3.3458424,-1.2070899,-1.9462382,1.0098706,0.02130529
1648,A,459640273108000,-2.44292,-1.947151,-2.0381618,-1.3699301,1.1387677,-0.83729786
1648,A,459640293275000,-0.35685793,-3.0847852,-1.1903248,-0.48682585,-0.10333065,-1.3401027
1648,A,459640313371000,1.8633252,-4.888235,1.6262183,0.07563378,-1.8961707,-1.4817829
1648,A,459640333576000,3.532654,-5.6857767,3.7146754,-0.15339808,-2.1081583,-1.7140105
1648,A,459640353672000,4.5768824,-5.3097587,2.6608667,-0.17044231,-0.50173956,-2.2658174
1648,A,459640373874000,4.7636943,-4.4283915,1.7028589,0.6689861,1.8333201,-2.775014
1648,A,459640393970000,4.416416,-3.781736,1.5471827,2.1326594,3.1244206,-2.4000409
1648,A,459640414172000,3.3889527,-3.791316,0.62989014,3.1947281,0.05006743,-1.3933659
1648,A,459640434268000,0.24189699,-5.7552323,-10.942844,1.1110709,-4.990764,-0.6114618
1648,A,459640454487000,-11.668535,-9.081915,-12.377461,-1.2431636,2.0133498,0.12144015
1648,A,459640474583000,-16.808249,-15.354471,20.86062,-0.24181503,4.1460094,1.6213325
1648,A,459640494824000,-17.787811,-20.118164,7.2401443,-1.1014835,-1.4796523,3.6421392
1648,A,459640514920000,-22.879623,-10.756033,-2.8309133,-1.8844528,-2.0644825,4.5444183
1648,A,459640535080000,-15.744859,-7.589817,-2.1603076,-0.72437984,-1.6085494,3.3012545
1648,A,459640555240000,-5.860613,-14.168936,-0.09340577,0.3717773,-1.8855181,1.6703347
1648,A,459640575368000,-10.667418,-14.564115,-4.9481106,0.5422196,0.98750013,0.84155893
1648,A,459640595575000,-3.5925295,-9.127419,1.9639161,0.12250541,2.2668827,0.84368944
1648,A,459640615702000,5.989944,-4.82357,-0.62749517,0.3685815,0.67005134,0.69029135
1648,A,459640635798000,5.863008,-5.9013286,-0.6346802,0.2695119,-0.47830373,-0.094808534
1648,A,459640655971000,1.1160791,-10.966795,2.4836354,-0.12783173,0.12676647,-1.1110709
1648,A,459640676067000,-0.033530276,-16.48013,2.047742,0.19281286,1.0205233,-0.39947417
1648,A,459640696216000,0.92208254,-17.289646,1.8944606,1.3156016,-3.0434606,0.4889564
1648,A,459640716312000,2.9794044,-10.720108,1.9806812,0.80747044,-0.8266452,0.020240024
1648,A,459640736498000,2.0333717,-5.846243,1.2310401,0.8021441,3.6911414,-0.9076053
1648,A,459640756594000,0.5484595,-4.3397756,0.76161623,0.1257012,0.3536678,0.386691
1648,A,459640776797000,-0.8933423,-5.4319043,0.5724097,-0.7840346,-2.5278726,0.04580637
1648,A,459640796893000,-1.2837305,-8.744217,0.5029541,-0.69135666,0.4889564,-0.31318775
1648,A,459640817095000,-1.4418018,-10.3512745,0.5891748,-0.51771855,0.6125271,-0.9598033
1648,A,459640837191000,-1.3891114,-9.244776,0.5604346,-0.62104917,0.07456851,-1.3070794
1648,A,459640857396000,-1.3867164,-7.3311553,0.5388794,-0.8586032,-0.29507825,-1.3699301
1648,A,459640877492000,-1.22625,-6.6773148,0.57959473,-0.8745821,-0.10546118,-1.5393071
1648,A,459640897702000,-1.4489869,-7.5323367,0.732876,-0.41545314,1.417867,-1.8908445
1648,A,459640917798000,-1.9423609,-9.005274,0.7232959,0.59122175,2.9912627,-2.2892532
1648,A,459640938040000,-3.0129347,-10.150093,0.9436377,1.7278589,2.932673,-2.5118935
1648,A,459640958136000,-3.7697608,-9.855506,3.9685476,2.3595607,0.0127831735,-1.8514296
1648,A,459640978373000,-4.734954,-8.406519,3.2620168,1.8706044,-2.6652918,-0.8159926
1648,A,459640998469000,-5.726492,-8.404124,-1.1496094,0.7882957,-4.353736,0.10652645
1648,A,459641018671000,-8.353828,-10.274634,-0.37122804,-0.8831042,1.6085494,1.4189322
1648,A,459641038767000,-12.557088,-9.625584,-6.310877,-1.0950918,1.0333065,2.9039109
1648,A,459641058972000,-7.893985,-6.3851223,-4.734954,-1.7353158,-1.067395,4.2855587
1648,A,459641079068000,-4.624783,-4.6654983,2.5027955,-1.7981664,0.36218992,3.6623793
1648,A,459641099267000,-5.5564456,-5.2882032,4.84752,-0.36964676,-0.79255676,2.1880531
1648,A,459641119363000,-6.461763,-9.034014,3.0823903,0.4889564,-2.1891184,1.3156016
1648,A,459641139509000,-6.68929,-13.222903,1.5543678,0.10333065,0.21198763,0.96939063
1648,A,459641159605000,-6.8832865,-14.116245,1.9639161,-0.17470337,1.3997575,0.69135666
1648,A,459641179783000,-7.999366,-11.601475,-0.2083667,-0.03834952,-0.022370555,0.2972088
1648,A,459641199879000,-7.6017923,-11.917618,-9.043594,-0.29827404,-0.014913702,-0.55074173
1648,A,459641220080000,-4.84752,-15.1413145,-6.2725563,-0.829841,2.288188,-1.1632688
1648,A,459641240176000,-2.3758595,-17.641714,0.5005591,1.3102753,-0.4111921,0.5091964
1648,A,459641260402000,-0.5891748,-19.217638,1.0322535,1.3241237,-2.711098,0.6317018
1648,A,459641280498000,1.9327809,-19.708616,1.9758912,0.6508766,1.9973708,-0.78083885
1648,A,459641300733000,2.064507,-17.040565,2.193838,0.28442562,3.1649008,0.31318775
1648,A,459641320829000,0.4143384,-13.258829,1.0490186,0.058589544,-2.1369205,1.0237192
1648,A,459641341078000,-0.45744875,-9.4507475,-0.54366946,0.8479505,1.1813782,0.34940675
1648,A,459641361174000,-0.96040285,-5.7312818,-0.51492923,1.1771172,3.2927325,-0.71479243
1648,A,459641381394000,-2.2608986,-2.8668385,-0.71371585,0.79681784,-0.11504856,-0.7254451
1648,A,459641401490000,-2.8812087,-2.3758595,-1.5711329,0.9012137,-0.8767126,-1.0077401
1648,A,459641421694000,-0.40954837,-4.550537,-0.47900394,0.46978164,-0.23222765,-1.8429075
1648,A,459641441790000,1.6789087,-6.09772,2.2129982,-0.4878911,-0.5454154,-2.6727486
1648,A,459641461994000,3.297942,-6.217471,3.1326857,-1.5765914,-0.8852348,-3.0402648
1648,A,459641482090000,4.471502,-5.247488,2.1076174,-0.32810146,-1.8482338,-2.6098979
1648,A,459641502291000,4.624783,-3.9254372,1.4825171,0.7073356,-0.17576863,-2.2626216
1648,A,459641522387000,4.174519,-3.0608351,1.2406201,1.4263891,0.7392935,-1.6852484
1648,A,459641542591000,2.9889846,-2.955454,0.87178713,1.4008228,-2.1646173,-0.54435015
1648,A,459641562687000,-0.96040285,-3.9948928,-6.2605815,-1.1536814,0.97897804,0.9832391
1648,A,459641582863000,-14.992823,-7.3862405,-12.578643,-1.1046792,0.046871636,2.368083
1648,A,459641602959000,-23.559809,-15.150894,14.310243,-1.3262542,-1.3081448,3.9585228
1648,A,459641623142000,-21.3995,-18.017733,8.2125225,-2.0559604,0.35792887,3.9670448
1648,A,459641643238000,-20.592379,-8.291558,-5.5516553,-0.14807177,-2.0005667,2.4383903
1648,A,459641663425000,-6.7731156,-6.9886675,-1.8585353,0.69348717,-1.3624732,0.97258645
1648,A,459641683521000,1.2454102,-14.398858,0.4622388,-0.05006743,1.0503508,0.9800433
1648,A,459641703723000,-4.679868,-14.02763,-1.7747096,0.29933932,1.9110844,1.0034791
1648,A,459641723819000,-5.858218,-11.029065,3.8583767,0.20133498,0.77444726,0.6125271
1648,A,459641744022000,3.7529957,-8.842413,-3.8799317,0.16937704,-1.1526161,-0.096939065
1648,A,459641764118000,3.2236965,-8.612491,-0.07903565,-0.00958738,-0.18642128,-1.171791
1648,A,459641784374000,0.34488282,-11.742782,2.8213332,0.43569317,0.9736517,-0.7275756
1648,A,459641804470000,-0.0047900393,-15.22993,1.334026,1.3624732,-0.6860303,-0.007456851
1648,A,459641824664000,0.41912845,-15.280225,1.3843213,-0.05006743,-0.5049353,0.51771855
1648,A,459641844760000,1.0106983,-10.399176,1.8944606,0.5965481,2.7004454,0.41864893
1648,A,459641864942000,-0.49337405,-6.1887307,1.3939015,-0.20772657,-1.0237192,0.07456851
1648,A,459641885038000,-0.14370118,-4.7876444,0.25866213,-0.51452273,-0.6679208,0.16085494
1648,A,459641905231000,-0.5891748,-5.4223247,0.48379397,-0.41225734,1.1334413,-0.12783173
1648,A,459641925327000,-0.8095166,-7.824529,0.40954837,-0.23542345,0.8543421,-1.1014835
1648,A,459641945532000,-0.61552006,-9.410032,0.038320314,-0.4261058,-1.1792477,-2.295645
1648,A,459641965628000,-0.4382886,-8.784932,-0.0071850587,-0.33662358,1.4913702,-2.3734093
1648,A,459641985830000,-0.46942386,-7.2832546,0.050295413,1.6458336,1.28897,-3.149987
1648,A,459642005926000,-0.7544312,-6.9024467,-0.028740235,1.3805827,-0.7339672,-3.0189595
1648,A,459642026130000,-1.214275,-7.472461,0.14849122,0.5773733,-2.7654266,-1.4658039
1648,A,459642046226000,-2.0405567,-8.509504,0.6825806,-0.6583334,-2.4682178,-0.18961707
1648,A,459642066430000,-2.2824538,-9.72857,1.6262183,-0.77125144,-0.9598033,0.1257012
1648,A,459642086526000,-2.2656887,-10.128538,2.7590625,0.111852765,0.5305017,-0.11504856
1648,A,459642106581000,-4.4355764,-8.974138,3.6068995,-0.8607337,1.1270498,0.33662358
1648,A,459642126677000,-5.733677,-9.410032,5.7935524,-0.3057309,-0.41225734,1.6181368
1648,A,459642146880000,-8.272398,-10.217154,1.6262183,-0.6348976,-1.2314457,3.1212249
1648,A,459642166976000,-10.619517,-10.665023,0.6610254,-1.1345067,0.69774824,3.78595
1648,A,459642187187000,-11.771522,-6.967112,-8.078402,-0.14274544,-0.9768475,2.3371902
1648,A,459642207283000,-7.697593,-3.6116896,-8.267608,0.71159667,-1.2026836,0.9981528
1648,A,459642227508000,-5.7911572,-6.423443,-1.1208692,1.5052186,-0.049002163,0.59867865
1648,A,459642247604000,-7.158714,-10.99314,4.2200246,0.7861652,0.52837116,0.38562572
1648,A,459642267828000,-7.673643,-13.292359,3.9613624,-0.112918034,3.3055155,-0.29188246
1648,A,459642287924000,-7.3479204,-14.5856695,1.0801538,-0.9896307,3.303385,-1.7768611
1648,A,459642308139000,-7.534732,-14.889837,-1.5447876,-0.9086706,3.891411,-3.3449304
1648,A,459642328235000,-5.592371,-14.71979,-2.2321582,-0.5400891,1.3443637,-1.6479641
1648,A,459642348436000,-2.9506643,-14.949713,-0.7951465,0.8330368,-0.23116238,0.4111921
1648,A,459642368532000,-0.5724097,-16.32206,-0.5005591,5.261341,-4.4410877,2.4309335
1648,A,459642388735000,1.6238233,-18.645227,-0.031135255,5.8866515,-2.4266725,1.663943
1648,A,459642408831000,2.8404932,-19.895428,0.79993653,0.8671253,-1.1132014,1.4476944
1648,A,459642429033000,2.8428884,-17.866846,2.0190015,-0.53476274,0.20453078,-1.6287893
1648,A,459642449129000,2.3016138,-12.660074,1.9591261,-3.963849,2.4671526,-3.9318912
1648,A,459642469360000,0.16046631,-7.4101906,-0.4742139,-5.646967,8.074704,-2.5587652
1648,A,459642489456000,-2.074087,-4.0667434,-2.1148024,-1.9920446,2.0154803,-1.7928401
1648,A,459642509677000,-2.3998096,-3.293152,-2.4045997,2.9433258,-11.903265,-1.4604776
1648,A,459642529773000,-2.7159522,-2.8955786,0.4382886,3.3204293,-4.0618534,0.40266997
1648,A,459642549945000,-0.55803955,-3.8559816,2.4189699,2.420281,-2.47674,1.5137408
1648,A,459642570041000,2.2824538,-5.2858086,3.6979103,-1.0120013,-2.2338595,0.8863
1648,A,459642590248000,4.287085,-5.613926,3.1015503,-2.6365294,-2.3904533,-0.43036684
1648,A,459642610344000,5.113367,-4.6654983,1.7315992,-3.8456047,-1.5861788,-0.7275756
1648,A,459642630544000,5.0031962,-3.6260598,1.7292042,-1.9750003,0.1917476,-0.314253
1648,A,459642650640000,4.387676,-3.2668068,1.8489552,1.0322412,-2.010154,0.3110572
1648,A,459642670842000,2.6273365,-3.9206471,-0.60833496,0.55074173,2.2349248,0.85753787
1648,A,459642690938000,-8.557405,-5.8175025,-17.581839,-2.3212113,9.6086855,1.2953615
1648,A,459642711144000,-23.248455,-11.955938,4.5409575,-4.2514706,9.72906,2.6780748
1648,A,459642731240000,-20.57322,-19.311043,15.86461,-1.0130665,4.653075,3.448261
1648,A,459642751593000,-17.977016,-14.441968,-3.1063404,0.6689861,-3.1734228,2.4714136
1648,A,459642771689000,-14.935343,-4.5409575,-5.609136,0.716923,-0.406931,1.4924355
1648,A,459642791892000,-1.1639795,-4.5792775,2.308799,0.59228706,3.7689056,1.325189
1648,A,459642811988000,2.0142114,-9.697434,-0.5963599,1.1749867,3.641074,0.67005134
1648,A,459642832195000,-8.789722,-14.494658,-0.39996827,-0.84688526,-4.5454836,-0.13635385
1648,A,459642852291000,-9.73815,-18.226099,0.244292,1.5041534,-3.8946068,0.09374327
1648,A,459642872495000,4.5002418,-14.195281,-10.423125,2.593919,-2.7654266,0.74248934
1648,A,459642892591000,4.600833,-7.965835,1.3723463,0.9683254,-0.22583607,2.223207
1648,A,459642912795000,1.1687696,-7.807764,2.208208,1.1952267,2.1252027,1.5978967
1648,A,459642932891000,0.12693603,-11.112891,1.3076807,2.0698087,1.5169365,0.5400891
1648,A,459642953097000,1.5447876,-14.087505,2.2489235,0.93849796,1.2772521,1.3997575
1648,A,459642973193000,2.9961696,-11.658956,2.794988,1.442368,-0.8213189,-2.7451866
1648,A,459642993392000,0.8286768,-7.2497244,1.4992822,1.4498249,-0.8085357,-3.3321471
1648,A,459643013488000,-0.64186525,-5.733677,0.5292993,0.644485,0.19813919,-0.08841695
1648,A,459643033700000,-1.1975098,-6.191126,0.31135255,1.4594123,2.1848574,0.4463458
1648,A,459643053796000,-1.5735279,-8.080796,0.08861572,2.207228,2.0080235,-0.94808537
1648,A,459643074002000,-2.0501368,-9.295072,0.45026368,1.2676647,-0.37710363,-1.5851135
1648,A,459643094098000,-2.454895,-8.859178,1.1088941,0.74248934,-0.54435015,-1.438107
1648,A,459643114320000,-2.3135889,-7.692803,1.6166383,0.479369,-0.55606806,-1.4093449
1648,A,459643134416000,-2.191443,-6.8808913,2.076482,0.6785734,-0.72970617,-1.8482338
1648,A,459643154612000,-2.7135572,-7.311995,2.4956105,0.98110855,0.809601,-1.655421
1648,A,459643174708000,-3.0416749,-8.52148,2.3519094,-0.035153728,-0.18642128,-0.9310411
1648,A,459643194895000,-3.4703834,-9.319021,2.924319,-0.5592638,-1.0801781,-0.5294364
1648,A,459643214991000,-4.3445654,-9.026829,1.9136207,-1.3805827,-2.034655,-0.04261058
1648,A,459643235175000,-4.3230104,-8.602911,-0.45505372,-2.150769,0.5219796,0.71798825
1648,A,459643255271000,-4.2248144,-9.14658,-1.2166699,-2.207228,-0.03195793,1.5318503
1648,A,459643275455000,-7.455696,-9.489068,-8.085587,-2.0474384,2.0975058,2.0602214
1648,A,459643295551000,-7.204219,-7.6161623,-4.4451566,-1.7704695,2.2945797,2.2871227
1648,A,459643315758000,-5.53489,-6.701265,1.5711329,-1.6564863,0.08628642,2.1656826
1648,A,459643335854000,-5.9013286,-7.9849954,4.711004,-1.2325109,-0.87032104,1.3646038
1648,A,459643356055000,-6.0043144,-9.259146,4.0978785,-0.6178534,-0.24927188,1.1781825
1648,A,459643376151000,-6.5384035,-10.724898,2.0453467,-0.14594123,0.9353022,0.45912898
1648,A,459643396310000,-7.453301,-12.044554,1.1136842,0.058589544,0.07563378,-0.58056915
1648,A,459643416406000,-8.5119,-11.996654,0.30416748,0.0127831735,0.30466563,-1.4721955
1648,A,459643436609000,-8.907078,-11.651771,-3.0249097,-1.8397117,1.6213325,-1.1728562
1648,A,459643456705000,-4.768484,-12.717554,-5.094207,-1.5978967,-1.4210628,0.96939063
1648,A,459643476910000,-1.7747096,-15.646664,-2.411785,1.4466292,-1.8578212,2.183792
1648,A,459643497006000,-1.1711646,-18.343456,0.1939966,0.4857606,-0.7755125,0.87990844
1648,A,459643517204000,0.70174074,-20.103794,1.3867164,-0.97897804,-1.8631475,-0.7765778
1648,A,459643537300000,2.0213966,-19.385288,1.6046631,-0.76485986,-1.0503508,-2.815494
1648,A,459643557509000,1.1735597,-15.584393,0.5891748,0.15233281,1.6873789,-1.2815131
1648,A,459643577605000,0.23950197,-11.635005,-0.026345216,2.469283,0.6306366,0.48682585
1648,A,459643597805000,-0.36164796,-7.704778,-0.62989014,2.211489,-2.4650218,-0.5592638
1648,A,459643617901000,-1.5208374,-4.3230104,-0.8646021,0.5763081,-4.0298953,-1.7544906
1648,A,459643638092000,-2.44771,-3.0296998,-1.4753321,-0.37071204,-4.0416136,-2.227468
1648,A,459643658188000,-0.6514453,-3.2500417,-0.86939216,-0.4165184,-2.779275,-2.625877
1648,A,459643678391000,0.8095166,-3.7386258,0.9532178,1.0961571,0.8852348,-3.0242858
1648,A,459643698487000,2.3447242,-4.9864306,3.7625759,3.1233554,1.0940266,-2.6972497
1648,A,459643718702000,4.253555,-5.484595,3.3338673,1.9270633,-3.636813,-0.9715212
1648,A,459643738798000,4.8834453,-4.7014236,1.2406201,-0.92997587,-1.6458336,0.7797736
1648,A,459643758958000,4.773274,-3.9493873,0.61552006,-0.5592638,1.3539511,1.2921658
1648,A,459643779118000,3.3769777,-3.4631984,0.8646021,-0.26738137,1.6362462,1.7726
1648,A,459643799246000,-1.0585986,-3.7098854,-3.0105398,-1.6863136,-1.6788567,3.3481262
1648,A,459643819454000,-15.584393,-6.6749196,-10.768008,-1.8279938,-1.9515644,3.9254994
1648,A,459643839549000,-22.426964,-15.3736315,8.794512,-0.67005134,-2.288188,2.4831314
1648,A,459643859645000,-19.073936,-18.556612,10.219549,0.17044231,-2.295645,0.86499476
1648,A,459643879869000,-17.64411,-10.521321,-1.453777,0.6306366,0.23009712,0.71798825
1648,A,459643899965000,-4.9505057,-6.0665846,-2.7183473,0.060720075,1.9078887,1.0929613
1648,A,459643920125000,2.7183473,-6.835386,-0.3161426,0.112918034,1.3912354,0.56672066
1648,A,459643940221000,1.4106666,-7.8987746,-2.579436,0.30040458,-0.850081,-0.5581986
1648,A,459643960407000,-6.1791506,-11.790682,1.8705103,0.094808534,-0.8127968,-1.1142666
1648,A,459643980503000,-4.018843,-18.357826,-2.088457,-0.1555286,2.0644825,-0.31638354
1648,A,459644000743000,3.1949563,-15.052698,-3.8751419,0.9651296,-1.2559468,0.8745821
1648,A,459644020839000,0.17962648,-8.904683,0.26584718,0.5209143,-2.392584,-0.35579833
1648,A,459644041043000,-0.51732427,-9.11784,0.44786867,0.41971418,1.8769959,-0.034088463
1648,A,459644061139000,0.21315674,-11.728411,0.55803955,-0.0031957934,1.4199976,0.63915867
1648,A,459644081340000,-0.043110352,-11.989469,0.8382569,-1.1046792,-1.6841831,-0.07882957
1648,A,459644101436000,-1.0059083,-9.364527,1.0394385,-0.9779128,0.070307456,-0.4079963
1648,A,459644121635000,-0.613125,-7.6113725,0.94603276,-0.83729786,0.92997587,-0.9044095
1648,A,459644141731000,-0.4622388,-7.2281694,0.9316626,-0.8852348,0.75101143,-1.1888351
1648,A,459644161933000,-1.2022998,-7.4940166,1.1184741,-0.793622,-0.3334278,-1.2623384
1648,A,459644182029000,-1.331631,-7.7071733,1.1424243,-0.6327671,-1.2112057,-1.4082797
1648,A,459644202225000,-0.97956306,-6.998247,1.0346485,-0.30999196,-0.20879184,-1.9771309
1648,A,459644222321000,-0.39278322,-6.239026,1.1855347,0.8863,3.00085,-2.602441
1648,A,459644242525000,-0.6322852,-6.471343,1.6908839,2.1560953,3.2714272,-2.4735441
1648,A,459644262621000,-2.0621119,-7.561077,2.2608986,3.0668964,-1.0684602,-2.0847225
1648,A,459644282793000,-3.182981,-9.263936,2.1052222,1.1451592,-5.4829164,-0.6625945
1648,A,459644302889000,-3.5542092,-9.5489435,2.7399025,-1.2729911,1.8301244,0.8447547
1648,A,459644323087000,-3.8440065,-9.065149,2.9650342,-0.11611383,4.4868937,1.091896
1648,A,459644343183000,-4.9217653,-9.489068,2.5147705,-0.57098174,-1.0599382,2.7047064
1648,A,459644363387000,-5.688172,-9.642349,2.924319,-1.6330504,-2.9795446,4.479437
1648,A,459644383483000,-7.8820095,-9.754915,5.724097,-0.8181231,-1.6202673,3.4301515
1648,A,459644403692000,-11.867322,-8.737032,-3.2332766,0.4079963,-1.8524948,1.6863136
1648,A,459644423788000,-14.118641,-5.879773,-18.451231,0.7041398,-0.7669904,1.1632688
1648,A,459644444052000,-8.435259,-5.5684204,-4.4571314,-0.054328486,1.438107,1.2783173
1648,A,459644464148000,-6.1528053,-9.022039,3.779341,-0.034088463,1.1494204,0.89162636
1648,A,459644484381000,-7.422166,-10.902129,3.2692018,0.20985709,-0.07243799,-0.26844665
1648,A,459644504477000,-10.042317,-13.649217,1.8010547,-0.16405073,-0.6061355,-1.2037488
1648,A,459644524679000,-9.625584,-15.289805,-1.9399658,-0.9044095,1.3230585,-1.0801781
1648,A,459644544775000,-4.2799,-15.285015,-2.5842261,1.0045444,1.5286545,0.902279
1648,A,459644564990000,-2.323169,-16.472944,-1.2789404,0.6530071,-1.9196066,0.46232477
1648,A,459644585086000,-0.58677983,-18.82725,0.6706055,0.44208476,-0.056459017,0.03834952
1648,A,459644605283000,2.42855,-21.430635,2.4788454,-0.1470065,3.410977,0.3174488
1648,A,459644625379000,2.4141798,-20.863016,1.7292042,-1.1547467,-1.7214674,-0.23009712
1648,A,459644645583000,-0.61073,-16.42265,0.81191164,-0.5305017,-0.99921805,-0.4889564
1648,A,459644665679000,0.102985844,-11.03625,-1.5615528,-0.23435818,0.09161274,-1.0205233
1648,A,459644685881000,0.3305127,-6.7755103,-2.308799,-0.0010652645,0.010652645,-1.2282499
1648,A,459644705977000,-0.014370117,-4.2248144,-1.9279908,-0.21092236,-0.30040458,-1.474326
1648,A,459644726131000,-0.5292993,-2.7854078,-1.5232325,-1.2016183,-0.72970617,-1.5350461
1648,A,459644746227000,-0.58677983,-2.7734327,-0.23231691,-1.1781825,-0.1736381,-1.9313245
1648,A,459644766416000,1.7507594,-3.391348,1.7962648,0.21198763,1.707619,-2.5949843
1648,A,459644786512000,3.408113,-3.9206471,3.2189064,2.0932446,2.7324033,-2.763296
1648,A,459644806676000,4.3709106,-3.803291,2.682422,2.8975194,0.5656554,-2.2178805
1648,A,459644826772000,4.5864625,-3.3147073,1.3771362,1.6948358,-4.3303,-0.76592517
1648,A,459644846973000,3.3554225,-2.7806177,1.094524,-1.0950918,-1.7289242,1.0098706
1648,A,459644867069000,1.81782,-3.151846,0.7544312,-0.7392935,3.1073763,1.6948358
1648,A,459644887271000,-1.7962648,-7.031778,-20.738476,-0.62531024,-0.48149952,3.005111
1648,A,459644907367000,-15.890955,-12.628939,-4.5409575,-1.5020229,-1.4892397,4.3004727
1648,A,459644927608000,-21.191133,-17.941092,27.897188,-1.0247844,-1.0407634,3.8264298
1648,A,459644947704000,-15.275435,-20.0535,-0.083825685,0.5795039,-2.0921793,1.6820526
1648,A,459644967908000,-17.248932,-7.247329,-7.434141,1.0812434,-0.87351686,0.8213189
1648,A,459644988004000,-8.641231,-4.0356083,-0.28740236,0.3270362,2.0325246,0.8511463
1648,A,459645008162000,-1.5136524,-11.740386,-1.1687696,0.2428803,2.2849922,0.5006743
1648,A,459645028258000,-5.6618266,-13.050462,-9.970467,0.36325517,-0.17044231,-0.572047
1648,A,459645048477000,-5.484595,-8.562195,-1.2621753,-0.068176925,-0.6423545,-1.3805827
1648,A,459645068573000,1.9950514,-9.750125,0.55324954,-0.8671253,2.8953888,-1.2112057
1648,A,459645088776000,2.818938,-13.019327,0.7759864,1.6628778,0.75633776,-0.046871636
1648,A,459645108872000,-0.25866213,-14.820381,2.5578809,0.65513766,-3.1766186,-0.26418558
1648,A,459645129078000,0.58677983,-14.161751,1.9902613,0.6679208,-2.5545042,-0.25246766
1648,A,459645149174000,2.0573218,-10.921289,0.8646021,0.9736517,2.9827404,0.5581986
1648,A,459645169332000,1.575923,-7.9394903,0.5724097,-1.0812434,0.95447695,0.15233281
1648,A,459645189428000,0.5939649,-6.5360084,0.32332766,-1.7662084,0.37710363,0.30146983
1648,A,459645209651000,-0.34727785,-6.183941,0.21555176,-0.644485,0.32490566,-0.1917476
1648,A,459645229747000,-0.81909674,-7.7167535,0.33530274,-0.19387813,-0.30786142,-0.8149273
1648,A,459645249947000,-0.78556645,-9.613608,0.38559815,0.41438788,-0.17576863,-0.9491506
1648,A,459645270043000,-1.334026,-9.716595,0.52690434,-0.62317973,-0.78083885,-1.1014835
1648,A,459645290247000,-1.4801221,-8.698711,0.7376661,-1.091896,-0.39947417,-1.7257284
1648,A,459645310343000,-1.3388159,-7.5083866,0.9412427,-0.007456851,2.3031018,-2.674879
1648,A,459645330537000,-1.6190332,-6.832991,1.1424243,1.1973573,3.4823494,-2.396845
1648,A,459645350633000,-2.0094216,-7.180269,1.0633887,2.4362597,0.06178534,-2.066613
1648,A,459645370882000,-2.7207422,-8.624466,1.0370435,2.1166804,-3.701794,-1.103614
1648,A,459645390978000,-3.9924977,-10.293795,1.3723463,-0.80107886,-1.3454291,0.41864893
1648,A,459645411206000,-4.517007,-10.102193,2.8548634,-0.9853696,3.235208,1.2239889
1648,A,459645431302000,-4.095484,-8.305928,4.143384,-0.2790993,-0.53476274,2.2082932
1648,A,459645451537000,-4.047583,-7.4030056,2.1315675,-1.2783173,-2.4160197,3.7145772
1648,A,459645471633000,-5.400769,-8.255632,0.07903565,-1.406149,-0.7254451,3.6751623
1648,A,459645491836000,-8.902288,-10.013577,0.94603276,0.008522116,-1.655421,1.8663434
1648,A,459645511932000,-11.778707,-8.919053,-6.0210795,0.85753787,-1.5936357,0.9321064
1648,A,459645532143000,-8.004155,-5.4438796,-8.643626,0.4101268,0.9917612,1.0599382
1648,A,459645552239000,-6.5240335,-6.013894,-2.0261867,0.18002969,1.7150757,0.89375687
1648,A,459645572420000,-6.4186525,-10.34888,2.2800586,0.5049353,0.3898868,-0.027696876
1648,A,459645592516000,-6.0306597,-12.894786,2.1746778,0.12996227,-0.72437984,-0.82344943
1648,A,459645612550000,-8.143066,-14.473104,1.8058448,-0.28336033,0.5539375,-1.1994878
1648,A,459645632646000,-7.6281376,-14.743741,-0.46942386,0.5613944,1.6309199,0.010652645
1648,A,459645652858000,-4.133804,-14.418018,-2.6584718,0.98750013,-1.1334413,0.0063915867
1648,A,459645672954000,-2.6369166,-15.095809,-1.2166699,0.5656554,-1.6298546,-0.0479369
1648,A,459645693143000,-0.31853762,-16.49929,-0.06466553,0.62744075,2.7569044,0.03834952
1648,A,459645713239000,1.829795,-17.766256,1.092129,0.39521313,0.37923414,0.16085494
1648,A,459645733385000,2.5004005,-18.688337,1.9279908,-1.1856394,-1.0247844,-0.14168017
1648,A,459645753481000,0.91010743,-17.02859,1.6693287,-0.95234644,0.7861652,0.41225734
1648,A,459645773699000,0.12933107,-12.521163,0.9244776,-0.8490158,-0.2428803,-0.5901565
1648,A,459645793795000,0.2945874,-7.5227566,-1.0442286,-0.8341021,-1.4839134,-1.216532
1648,A,459645813968000,-0.18441652,-4.481082,-0.79035646,-1.0695255,-1.3965617,-1.4168017
1648,A,459645834064000,-0.488584,-2.9027638,-1.0657837,-1.1366372,-0.28016454,-1.695901
1648,A,459645854294000,-0.34009278,-2.7806177,-2.0142114,-0.48363006,2.4064324,-2.4564998
1648,A,459645874390000,9.637559,-6.318062,-0.83586186,1.0950918,5.1420317,-2.790993
1648,A,459645894592000,7.678433,-6.847361,2.3998096,3.149987,1.8897791,-2.4905882
1648,A,459645914688000,-11.783497,-0.32572266,3.166216,2.538525,-3.2245555,-1.6468989
1648,A,459645934895000,0.2083667,-3.04407,0.37122804,-0.9267801,-3.158509,0.03089267
1648,A,459645954991000,5.1061816,-4.8163843,0.77359134,-0.6306366,1.5233282,1.0354371
1648,A,459645975195000,2.9817994,-4.761299,0.8669971,-0.29507825,2.7121632,1.603223
1648,A,459645995291000,1.3507911,-6.3947024,-6.1647806,-0.7286409,-1.623463,2.8186898
1648,A,459646015497000,-10.356065,-8.811277,-11.496095,-1.087635,-3.4131074,3.9489353
1648,A,459646035593000,-18.949396,-13.050462,13.428875,-0.7456851,-2.247708,3.3406694
1648,A,459646055797000,-16.669336,-16.396305,8.595725,0.46232477,-1.2037488,1.4711303
1648,A,459646075893000,-16.848963,-11.493699,-0.54366946,1.0173275,0.26205507,0.78083885
1648,A,459646095835000,-16.221468,-8.646021,-0.06227051,0.77125144,0.9044095,0.81066626
1648,A,459646115931000,-7.1611085,-15.045513,0.60833496,0.7105314,1.8439728,0.3536678
1648,A,459646136127000,-10.1189575,-15.9364605,-3.1422658,0.44101948,1.0599382,-0.67963874
1648,A,459646156223000,-6.7898808,-11.438614,1.3962965,-0.06924219,-0.2908172,-1.1952267
1648,A,459646176448000,6.0378447,-6.854546,-4.775669,-0.7137272,1.6852484,-0.9938917
1648,A,459646196544000,8.816068,-5.5732107,-3.0344899,0.80747044,1.1121361,-0.098004326
1648,A,459646216745000,2.059717,-6.5264287,5.879773,0.628506,-2.9987195,0.26844665
1648,A,459646236841000,1.5567628,-11.285333,4.014053,0.6764429,-1.0066749,0.7680557
1648,A,459646257259000,1.2046949,-17.136366,2.2249732,0.28655612,4.0863543,1.0439591
1648,A,459646277355000,-0.21315674,-16.846567,9.292676,-1.639442,0.165116,-0.13635385
1648,A,459646297548000,-4.2032595,-6.454578,8.377779,-1.7406421,-1.1739215,-0.31957933
1648,A,459646317644000,-2.7470875,-3.532654,-0.9867481,-0.39840892,-0.96299905,-0.71585774
1648,A,459646337856000,2.7399025,-6.5144534,-5.716912,-0.25885928,-0.6562029,-1.4082797
1648,A,459646357952000,3.3865578,-7.565867,-7.1563187,-0.850081,-0.45060685,-1.3891048
1648,A,459646378206000,1.7962648,-8.849598,0.29937744,-1.0045444,0.21944448,-1.567004
1648,A,459646398302000,-1.8681153,-7.117998,0.17004639,0.037284255,3.0999196,-2.2849922
1648,A,459646418487000,-2.1291726,-6.1456203,-0.55324954,1.7949706,5.8184743,-2.5608957
1648,A,459646438583000,-1.2406201,-6.564749,-0.3424878,3.2160335,1.9228023,-2.461826
1648,A,459646458817000,-0.4047583,-7.688013,0.4263135,1.8631475,-6.091182,-1.4604776
1648,A,459646478913000,-0.6730005,-9.663904,1.6286134,-2.0037625,-1.4711303,0.5635249
1648,A,459646499118000,-2.3902297,-11.472144,4.6750784,0.026631612,4.1193776,0.7126619
1648,A,459646519214000,-4.9073954,-11.2374325,3.7386258,0.6199839,2.5587652,1.2687299
1648,A,459646539422000,-5.3408937,-9.690249,-0.3879932,-0.94488955,-2.1475732,2.7079022
1648,A,459646559518000,-4.2751102,-7.4748564,-0.89573735,-1.2793826,-3.8807585,4.2109904
1648,A,459646579690000,-5.4199295,-6.806646,1.1088941,-0.51026165,-1.067395,3.213903
1648,A,459646599786000,-9.14179,-7.582632,-1.3986914,0.04474111,-1.5094798,1.4828482
1648,A,459646619975000,-9.989627,-7.443721,-4.27032,0.7350325,-0.18535602,0.8021441
1648,A,459646640071000,-8.229287,-6.6605496,-2.4716604,0.23861924,1.3954965,0.85966843
1648,A,459646660242000,-9.326206,-7.165899,2.2465284,0.29507825,1.655421,0.61572284
1648,A,459646680338000,-12.533137,-9.1202345,4.9289503,0.49428272,0.5954828,-0.30146983
1648,A,459646700801000,-11.285333,-10.768008,1.9447559,0.054328486,-0.6764429,-0.9736517
1648,A,459646720897000,-9.129815,-13.201348,-0.40954837,-0.46019423,1.4285196,-0.84155893
1648,A,459646741105000,-7.470066,-14.880257,-2.8141482,0.6988135,1.6373115,0.74781567
1648,A,459646761201000,-4.8163843,-15.9436455,-4.505032,0.49747851,-2.6535738,-0.0010652645
1648,A,459646781403000,-2.3543043,-18.376986,-3.2739918,0.3536678,-2.0921793,-0.56885123
1648,A,459646801499000,0.9484278,-20.551664,-0.24189699,0.0053263223,3.355583,0.08628642
1648,A,459646821698000,3.0033545,-20.221151,1.3483961,-0.6870956,-0.20985709,-0.2428803
1648,A,459646841794000,2.8141482,-17.459694,1.341211,-1.4498249,-0.9917612,-0.6295713
1648,A,459646861995000,1.8776954,-13.546231,0.9436377,-1.1195929,0.608266,-0.99069595
1648,A,459646882091000,0.8095166,-9.7812605,0.2083667,-0.5273059,1.2101405,-1.3550164
1648,A,459646902293000,0.22273682,-6.332432,0.25866213,-0.4079963,0.6785734,-1.2783173
1648,A,459646922389000,-0.9412427,-3.1925611,-0.6658155,-0.50813115,-0.13422333,-1.3795174
1648,A,459646942603000,-3.06323,-1.2358302,-2.069297,-0.15978967,-0.06711166,-1.7534252
1648,A,459646962699000,-2.5914114,-1.9303858,-0.25387207,1.695901,1.1110709,-2.1667478
1648,A,459646982859000,0.4143384,-4.0427933,1.8465601,2.4873924,1.0375676,-2.005893
1648,A,459647003019000,2.6536818,-5.225933,3.2668068,1.9302592,-0.9502159,-1.5712651
1648,A,459647023147000,3.657195,-5.5588408,1.3962965,1.0950918,-6.605705,-0.4676511
1648,A,459647043351000,4.1960745,-5.0702567,-0.2682422,-1.2879047,1.6010925,0.76272935
1648,A,459647063499000,4.4475513,-4.631968,0.29698244,-0.4111921,4.4304347,1.3219932
1648,A,459647083595000,3.3578174,-4.737349,0.2562671,-0.9470201,-2.0005667,3.0029805
1648,A,459647103765000,-2.3016138,-6.325247,-8.931028,-1.5222629,-2.9049761,4.340953
1648,A,459647123861000,-16.168777,-9.683064,-4.5074267,-0.68389976,-0.680704,3.7316215
1648,A,459647144063000,-18.45602,-15.634688,17.59142,1.0908308,-0.77444726,1.9664782
1648,A,459647164159000,-16.899258,-15.390396,4.26074,0.75633776,-0.257794,0.61572284
1648,A,459647184395000,-19.852318,-6.8665214,-4.711004,0.058589544,1.9718045,0.624245
1648,A,459647204491000,-11.407478,-7.2640944,-0.10777588,0.15978967,1.9984361,0.53795856
1648,A,459647224687000,-2.435735,-12.554693,-1.2334352,0.18642128,0.27377295,-0.55074173
1648,A,459647244783000,-7.862849,-14.295872,0.46463382,0.14913702,-0.8788432,-1.293231
1648,A,459647265006000,-2.2776637,-12.650494,3.8535867,-0.20559604,1.8471686,-0.95128113
1648,A,459647285102000,6.224656,-8.53106,-7.422166,1.2080098,-0.50600064,0.2066613
1648,A,459647305337000,1.7387843,-7.2401443,0.5963599,0.531567,-3.8882153,-0.18109496
1648,A,459647325433000,-0.8262818,-8.993299,1.6286134,0.608266,1.0386329,-0.20772657
1648,A,459647345640000,-0.1101709,-12.818145,0.33530274,-0.41225734,4.4091296,0.7222493
1648,A,459647365736000,1.0130934,-16.087347,0.4143384,-1.0471549,-1.026915,0.18961707
1648,A,459647385935000,1.4465919,-12.329561,1.2765454,-1.1057445,-0.9779128,-0.39521313
1648,A,459647406031000,-0.27542725,-6.725215,1.4082716,-0.67005134,0.33662358,-0.97045594
1648,A,459647426221000,-0.8214917,-5.0654664,1.1999048,-0.41758367,0.55606806,-1.1856394
1648,A,459647446317000,-0.83586186,-5.465435,1.0585986,-0.89162636,-0.50387007,-1.2857742
1648,A,459647466521000,-0.9388477,-7.683223,0.6658155,-1.0183928,-0.6743124,-1.5680692
1648,A,459647486617000,-1.4729371,-8.794512,0.42152345,0.74675035,2.1901836,-2.3031018
1648,A,459647506822000,-1.7962648,-8.255632,0.4023633,2.505502,3.7433393,-2.5608957
1648,A,459647526918000,-1.9016455,-7.4772515,0.48379397,2.469283,0.07243799,-2.5598304
1648,A,459647547120000,-2.1507277,-7.2688847,0.6394702,2.0474384,-6.838998,-1.5936357
1648,A,459647567216000,-2.6153615,-7.774234,0.86939216,-1.4093449,-0.39521313,0.386691
1648,A,459647587418000,-3.3290772,-8.969349,1.4489869,-0.09054748,4.4783716,0.90014845
1648,A,459647607514000,-3.403323,-9.72378,2.7614577,-0.14807177,0.66152924,1.8354506
1648,A,459647627718000,-3.5613942,-8.964559,1.2358302,-1.2506205,-3.1510522,3.516438
1648,A,459647647814000,-3.3051271,-7.7694435,-0.4526587,-1.0684602,-1.212271,4.31006
1648,A,459647668045000,-3.4967287,-7.5946074,-0.23710695,-0.3089267,-0.015978966,3.0850058
1648,A,459647688141000,-5.9396486,-8.820857,1.334026,0.96619487,-1.9504992,1.2293152
1648,A,459647708369000,-8.619676,-9.390872,1.2981006,0.76485986,0.2609898,0.7254451
1648,A,459647728465000,-8.246053,-7.558682,-2.1435425,0.070307456,2.5118935,1.031176
