Subject-Id,Activity Label,Time stamp,Accel_x,Accel_y,Accel_z,Gyro_x,Gyro_y,Gyro_z
1618,A,775419608986314,-1.3487091,-4.518112,3.989212,-0.13014221,-1.417038,-1.1886292
1618,A,775419659340318,-4.95874,-9.17128,-3.2029572,0.49113464,0.3353119,-1.1934052
1618,A,775419709694322,-5.3293457,-7.373398,-1.8539581,-0.36265564,0.84625244,-1.1977692
1618,A,775419760048326,-4.194275,-6.0545197,-0.72984314,-0.87628174,-0.3993683,-0.99009705
1618,A,775419810402330,-5.5097504,-7.063385,-0.1675415,-0.8898773,-1.1867981,-0.83439636
1618,A,775419860756334,-7.0190887,-7.3292694,-0.8173218,-0.8767395,-1.3897705,-0.89045715
1618,A,775419911110338,-5.5052185,-7.87442,-4.492096,-0.8133087,2.175949,-0.381485
1618,A,775419961464342,-5.9292145,-8.145477,-2.8093262,0.8828888,6.1964264,1.6908264
1618,A,775420011818346,-7.656479,-8.692673,-1.34375,1.4942322,-1.3617096,3.721695
1618,A,775420062172349,-9.767334,-8.173157,-1.7117157,0.34049988,1.4136505,3.4287567
1618,A,775420112526353,-12.484879,-8.631714,-2.2151184,-0.6283417,-0.42010498,2.8466034
1618,A,775420162880357,-12.429016,-9.883621,0.96565247,-1.7670593,-1.2999878,1.252243
1618,A,775420213234361,-9.861603,-14.7222595,7.4098663,-1.342514,0.6398468,0.3449402
1618,A,775420263588365,-6.367096,-13.900085,-2.3973389,-0.4043274,0.57762146,-0.31800842
1618,A,775420313942369,0.35266113,-9.637619,-1.8525238,-0.46681213,-0.9227295,-1.2674103
1618,A,775420364296373,1.1933441,-7.0603943,-0.7257843,-0.8168335,-1.5927124,-1.9579468
1618,A,775420414650377,-0.32673645,-6.5609894,-0.0758667,-0.33850098,-0.79937744,-1.2420349
1618,A,775420465004381,-1.702652,-6.441269,0.03895569,0.83140564,2.607254,0.092819214
1618,A,775420515358385,-5.179535,-5.338852,-3.8046875,1.5180969,3.6067963,0.094558716
1618,A,775420565712388,-12.663513,-6.0193024,-3.599884,0.8425751,0.7020111,0.6199188
1618,A,775420616066392,-13.888367,-7.0118713,3.8106842,0.5448303,0.47203064,0.3237152
1618,A,775420666420396,-7.948639,-9.958389,-2.3927002,1.0908813,-1.8656921,-0.6290741
1618,A,775420716774400,-7.7612457,-11.298355,-3.3000336,0.8250427,-2.4601135,-0.9441681
1618,A,775420767128404,-2.1018372,-4.237793,-0.38438416,-0.37086487,-2.0942535,-1.2690735
1618,A,775420817482408,-4.0189667,-9.119263,-0.8826599,-1.1222687,-1.4468384,-1.4529877
1618,A,775420867836412,-4.596451,-9.58783,-1.7476807,-1.1431274,-1.1354828,-1.5976868
1618,A,775420918190416,-2.6858063,-6.253357,-1.1925964,-1.2250366,-0.9662323,-1.2391663
1618,A,775420968544420,-5.278366,-7.580963,-3.2862854,-1.5181274,-0.08151245,-1.0987701
1618,A,775421018898424,-6.2174225,-7.8237457,-3.3980713,-1.427887,-0.088775635,-1.0583496
1618,A,775421069252428,-7.06781,-8.053009,-2.1866302,-0.15603638,3.3149261,-0.2290039
1618,A,775421119606431,-7.683029,-8.320404,-1.2497406,1.4397736,2.1692505,2.0993195
1618,A,775421169960435,-8.077469,-7.853821,-0.8306732,1.0422668,0.51690674,3.794281
1618,A,775421220314439,-10.119553,-7.850067,-0.8298645,0.46014404,1.0795898,3.8007813
1618,A,775421270668443,-13.909073,-8.025909,2.2398682,0.026351929,-0.81085205,2.8221283
1618,A,775421321022447,-12.625366,-9.803818,3.0110016,-1.4029236,-0.4572296,1.4464111
1618,A,775421371376451,-8.333328,-13.400558,1.4278107,-1.0482178,0.30976868,0.7867279
1618,A,775421421730455,-6.177597,-14.667618,-0.08628845,-0.116363525,0.31451416,0.08969116
1618,A,775421472084459,-1.3061981,-10.597626,-4.8317413,-0.0013275146,-0.01512146,-1.0671082
1618,A,775421522438463,0.56718445,-6.4530334,-1.9887543,-1.5610199,-3.5592804,-2.1197662
1618,A,775421572792467,-0.80960083,-5.7302246,0.5930939,-0.5898895,-0.9295654,-1.1271667
1618,A,775421623146471,0.32284546,-6.225708,-0.019241333,1.014328,2.3424072,0.35520935
1618,A,775421673500474,-4.987854,-4.787842,0.18379211,1.5740356,3.1624603,0.25898743
1618,A,775421723854478,-13.652451,-5.9189453,-4.568802,0.79740906,3.9095001,0.66851807
1618,A,775421774208482,-13.981964,-4.9836884,-5.222534,0.91412354,0.16752625,-0.023071289
1618,A,775421824562486,-10.623718,-9.714111,6.331009,1.0743561,-3.2729797,-0.67419434
1618,A,775421874916490,-6.1907043,-8.21022,1.8721466,0.39022827,-3.5305939,-1.2853851
1618,A,775421925270494,-1.1471863,-4.659683,-1.4818115,-0.4122162,-2.8707428,-1.5202942
1618,A,775421975624498,-2.8782043,-9.106003,-2.8918457,-0.56658936,-0.27037048,-1.5248871
1618,A,775422025978502,-2.72818,-7.2789764,-1.6493073,-0.6569061,-0.61354065,-1.3055725
1618,A,775422076332506,-4.293564,-7.4410095,-1.3248901,-0.7481079,-0.47592163,-1.0298615
1618,A,775422126686510,-5.756714,-7.64592,-1.0050049,-1.102417,-0.49490356,-0.9758606
1618,A,775422177040513,-6.42099,-7.7361145,-4.218231,-1.2708435,-1.0267334,-1.0608063
1618,A,775422227394517,-5.8459015,-6.412491,-2.7843628,-0.70899963,2.415619,-0.46907043
1618,A,775422277748521,-7.510315,-8.201462,-1.9938812,0.893631,2.360672,2.538559
1618,A,775422328102525,-8.051651,-8.124252,-1.8350983,1.4125366,2.1141052,4.1114655
1618,A,775422378456529,-10.734024,-8.839325,-1.1457825,0.16822815,0.7124634,3.9257202
1618,A,775422428810533,-16.828033,-7.6128387,15.67218,-0.7728882,-1.7442322,2.4933624
1618,A,775422479164537,-10.263672,-7.9619446,2.350357,-1.7838593,-0.06764221,1.1356049
1618,A,775422529518541,-6.5726624,-13.535324,-0.8698425,-1.0131073,1.0048218,0.36506653
1618,A,775422579872545,-6.6572113,-13.542175,-1.2757263,0.19148254,0.900177,-0.19955444
1618,A,775422630226549,-1.0089722,-10.19545,-3.2461395,-0.28549194,-0.12475586,-1.492157
1618,A,775422680580553,1.0796814,-6.271576,-0.76304626,-2.0793762,-6.092453,-2.8374481
1618,A,775422730934556,-0.31835938,-5.4748535,0.40971375,-0.42749023,-0.24932861,-0.435318
1618,A,775422781288560,0.8390808,-6.692169,-0.29719543,1.5102386,2.8374176,0.53767395
1618,A,775422831642564,-9.374298,-4.160141,-3.6036072,1.6299438,2.1304932,0.7625427
1618,A,775422881996568,-19.06778,-9.865189,7.3424225,0.59658813,4.8333893,1.3732147
1618,A,775422932350572,-10.452454,-5.4460297,-2.097931,1.5064392,-0.1162262,-0.5842285
1618,A,775422982704576,-11.282272,-14.845673,-0.21833801,1.4537964,-2.7612762,-1.0035095
1618,A,775423033058580,-2.7178345,-3.7528381,-0.17861938,0.740036,-3.4291077,-1.768631
1618,A,775423083412584,-0.13954163,-7.11705,0.90545654,-0.55667114,-4.1825867,-1.5899353
1618,A,775423133766588,-3.3352356,-10.693481,-4.2545013,-1.3833313,-0.073410034,-1.7427216
1618,A,775423184120592,-1.5534515,-5.386307,-0.66252136,-0.45381165,-0.6529999,-1.584198
1618,A,775423234474596,-4.9282837,-7.872452,-2.758789,-0.9572754,-0.9911804,-0.80955505
1618,A,775423284828599,-7.1470795,-8.36409,-2.5941772,-0.9319153,0.31741333,-1.0907288
1618,A,775423335182603,-6.8151245,-7.6412354,-1.6747589,-0.64450073,-0.28619385,-0.74450684
1618,A,775423385536607,-7.6256104,-7.724869,-3.190979,1.039444,8.664856,0.8383179
1618,A,775423435890611,-7.8771973,-8.248245,-0.69447327,0.9202118,0.81617737,4.310135
1618,A,775423486244615,-9.875732,-8.428848,-1.2358093,0.9970703,3.5177917,4.3772583
1618,A,775423536598619,-12.43718,-8.652023,-2.22966,-0.45477295,1.9118195,3.699463
1618,A,775423586952623,-9.293091,-7.8558197,-4.1368256,-1.7601776,-2.268402,1.6022797
1618,A,775423637306627,-9.271896,-14.969727,11.7717285,-1.5168762,-1.633667,0.44587708
1618,A,775423687660631,-5.2566986,-14.606491,-1.7437134,0.015304565,0.7965698,0.08937073
1618,A,775423738014635,0.18099976,-10.860657,-1.4093475,-0.82192993,0.94189453,-1.2483826
1618,A,775423788368638,2.8792572,-7.0638885,-0.6060333,-1.7056885,-3.6176453,-2.5416107
1618,A,775423838722642,0.75349426,-5.5031586,0.12640381,-0.24832153,0.08308411,-1.8790436
1618,A,775423889076646,0.23188782,-5.9682465,0.5040283,0.19285583,-0.07835388,0.19778442
1618,A,775423939430650,-4.144943,-6.507965,3.7678223,0.80978394,2.2700195,0.20281982
1618,A,775423989784654,-9.068848,-6.372986,-15.542664,0.8961334,2.1128693,1.201416
1618,A,775424040138658,-16.040665,-5.9335785,1.3171539,0.9988861,2.0668488,1.2866211
1618,A,775424090492662,-8.10141,-8.535309,-0.25498962,0.87046814,-1.3708649,-0.64434814
1618,A,775424140846666,-11.446014,-14.394516,-0.6886902,0.54862976,-2.077896,-1.195221
1618,A,775424191200670,-1.8621674,-4.0046844,0.48667908,0.13156128,-2.6305084,-1.665802
1618,A,775424241554674,-2.029602,-8.764633,0.19100952,-0.49432373,-2.4796295,-1.821579
1618,A,775424291908678,-2.523468,-7.935669,-2.2785034,-0.9648895,-0.6259918,-1.7121735
1618,A,775424342262681,-2.4069061,-5.973755,-1.0731964,-0.26161194,-0.24890137,-1.5257721
1618,A,775424392616685,-4.8465424,-7.6881256,-1.81073,-0.4071045,-0.8564606,-1.2687378
1618,A,775424442970689,-7.414444,-8.667236,-2.1640015,-1.1449738,-0.8649292,-0.9447937
1618,A,775424493324693,-7.0257263,-7.7025757,-1.7628479,-0.88020325,2.9565125,0.07601929
1618,A,775424543678697,-7.67601,-7.6566315,-2.0676422,1.5482941,6.076111,2.2497864
1618,A,775424594032701,-10.004013,-8.883499,-1.2878723,1.6137695,1.431839,4.065048
1618,A,775424644386705,-12.263031,-9.104126,-1.1256866,-0.231781,2.2424774,3.2279053
1618,A,775424694740709,-11.000198,-7.4423065,-3.8932953,-1.3468475,-0.4436493,2.534439
1618,A,775424745094713,-9.583191,-10.112213,-6.069031,-1.8890533,-1.9512787,1.1467896
1618,A,775424795448717,-9.050064,-14.317734,-0.41755676,-0.85446167,-0.4485016,0.26364136
1618,A,775424845802721,-5.028122,-12.986893,-4.6111145,0.08152771,1.4251709,-0.45469666
1618,A,775424896156724,2.1220856,-8.626923,-5.0288544,-1.2610016,-1.6843262,-1.6989441
1618,A,775424946510728,2.4886627,-6.5775757,-1.0711975,-1.4718933,-3.7291107,-1.5794373
1618,A,775424996864732,1.3282013,-6.124817,-0.6207428,0.43225098,-0.8741913,-0.21583557
1618,A,775425047218736,-1.9698486,-5.017761,-0.81951904,0.5946655,0.34465027,-0.014602661
1618,A,775425097572740,-10.0490265,-5.535385,-4.20253,0.256485,1.496994,0.14729309
1618,A,775425147926744,-13.468597,-5.7160645,-6.954071,0.40151978,2.540329,0.96972656
1618,A,775425198280748,-10.114868,-6.4909363,-1.4874725,0.9901428,1.4006958,0.07911682
1618,A,775425248634752,-8.547882,-10.727676,-0.5417633,1.1046753,-1.0510864,-1.1829987
1618,A,775425298988756,-5.6423492,-6.5945587,-0.2629547,0.5802002,-2.2958984,-1.4203949
1618,A,775425349342760,-1.1519928,-6.6330414,0.5948334,-0.14672852,-3.1941376,-1.5111084
1618,A,775425399696763,-2.2824402,-9.399277,-0.22367859,-0.7568207,-0.6602173,-1.6917267
1618,A,775425450050767,-3.172638,-6.649231,-1.3697815,-0.55426025,0.33015442,-1.5685272
1618,A,775425500404771,-3.9580383,-6.692093,-1.6717529,0.07040405,-0.9799347,-1.4227142
1618,A,775425550758775,-5.827881,-7.7191772,-1.5684052,-0.26368713,-1.6264343,-1.5747375
1618,A,775425601112779,-6.7737427,-8.77507,-1.6583099,-1.7487793,-1.1568298,-0.90478516
1618,A,775425651466783,-6.983017,-8.657059,-3.0103607,-0.60369873,3.5884094,1.0105286
1618,A,775425701820787,-7.6751556,-7.989044,-2.4077911,1.4550323,3.998825,3.9151917
1618,A,775425752174791,-10.655029,-9.018188,-2.0658875,0.42626953,2.948944,4.5993195
1618,A,775425802528795,-12.764343,-7.740158,-1.0155792,-0.92211914,-0.03501892,3.4188843
1618,A,775425852882799,-14.494263,-9.482178,-6.5715485,-2.0296936,-2.0494843,1.5991058
1618,A,775425903236803,-11.035675,-14.386444,-3.0726166,-0.9242554,-1.094223,0.65335083
1618,A,775425953590806,-7.7786713,-16.119736,0.7857361,-0.85188293,1.4833679,-0.25453186
1618,A,775426003944810,-2.739151,-12.680313,-1.7291718,-0.7054596,-0.5586395,-1.242981
1618,A,775426054298814,1.3208466,-8.254288,-1.7867584,-1.3950348,-3.8628693,-2.4981232
1618,A,775426104652818,2.0716858,-6.0339355,-0.31996155,-0.44732666,-1.5419922,-1.0194702
1618,A,775426155006822,0.42996216,-6.553009,0.6613922,1.0662384,1.9155273,-0.14741516
1618,A,775426205360826,-8.217041,-4.7035217,-6.305176,1.332962,2.3848877,0.117248535
1618,A,775426255714830,-17.403244,-8.837906,6.5545044,1.1588135,2.6853485,1.0173798
1618,A,775426306068834,-10.518051,-6.9251556,2.436905,0.68821716,0.15756226,-0.44317627
1618,A,775426356422838,-9.416183,-12.786499,0.38987732,0.8240204,-1.7759094,-1.0864716
1618,A,775426406776842,-4.9070435,-6.3318176,-0.06455994,0.34429932,-2.978241,-1.5469971
1618,A,775426457130846,-2.3641663,-5.8407135,1.1652985,-0.36462402,-3.6250305,-1.6140747
1618,A,775426507484849,-4.0812073,-10.654495,-0.8143463,-1.0596924,-0.3578949,-1.8839111
1618,A,775426557838853,-2.3500824,-6.518814,-1.6096344,-0.07963562,0.097579956,-1.533081
1618,A,775426608192857,-3.7468872,-6.577072,-1.947815,0.13134766,-0.9747772,-1.2762604
1618,A,775426658546861,-6.0545654,-8.162628,-1.6251831,-0.5300293,-1.3349152,-1.3183746
1618,A,775426708900865,-7.0203857,-8.522476,-0.5290985,-1.6209869,-1.0861969,-0.76719666
1618,A,775426759254869,-6.69252,-7.4596863,-3.0565643,2.297882,8.047104,1.2544708
1618,A,775426809608873,-8.300842,-8.31543,-1.3211823,0.44291687,2.967636,4.0809937
1618,A,775426859962877,-10.988785,-9.548477,-2.022461,1.1943054,1.0361176,3.4425812
1618,A,775426910316881,-13.9236145,-9.138336,0.21438599,-0.6030731,-0.68595886,2.9199219
1618,A,775426960670885,-7.3081207,-7.7371063,-1.5714569,-2.099533,-0.37010193,1.479599
1618,A,775427011024888,-11.384628,-14.843231,-1.4000092,-1.0500488,-0.3491211,0.42185974
1618,A,775427061378892,-13.225723,-18.06633,-3.7888336,-0.34269714,1.2288818,-0.015365601
1618,A,775427111732896,-2.6930237,-11.469635,-4.903305,-0.285141,0.82907104,-1.2713928
1618,A,775427162086900,2.4385223,-6.892914,-1.708664,-2.5391998,-8.012833,-3.1337128
1618,A,775427212440904,1.616394,-5.2830048,0.06625366,-0.10783386,-0.64453125,-0.74894714
1618,A,775427262794908,3.178711,-6.445709,-1.123764,0.8047638,0.10932922,0.3298645
1618,A,775427313148912,-11.185684,-3.9307556,-4.0891113,0.5939026,1.6463623,0.066482544
1618,A,775427363502916,-19.506226,-11.917511,4.6733704,0.6244354,2.3511505,1.3836823
1618,A,775427413856920,-9.086761,-3.4622803,-3.6098785,0.8199005,1.3374481,-0.68974304
1618,A,775427464210924,-9.768311,-12.927048,0.78796387,1.2111664,-1.386734,-0.88005066
1618,A,775427514564928,-5.258499,-5.3596497,-0.054214478,0.6681061,-1.367569,-1.4673157
1618,A,775427564918931,-1.6876678,-4.442459,0.9749756,-0.108078,-1.9154053,-1.7630463
1618,A,775427615272935,-4.4003143,-13.833618,-5.5954895,-1.0134888,-1.7802277,-1.8597565
1618,A,775427665626939,-1.4616547,-4.8247375,-0.49996948,-0.7240753,-0.52153015,-1.7905579
1618,A,775427715980943,-3.500824,-6.6840973,-1.6637726,-0.09588623,-1.0900726,-1.551117
1618,A,775427766334947,-4.834732,-7.65329,-1.8907928,-0.34950256,-1.0861359,-1.7544708
1618,A,775427816688951,-6.7312927,-9.47261,-2.7713623,-1.2045898,-0.15248108,-0.63334656
1618,A,775427867031605,-7.7605896,-8.29837,0.044815063,1.699173,6.6072845,1.613617
1618,A,775427917385609,-8.288361,-7.641876,-0.64920044,0.36520386,2.702301,4.981491
1618,A,775427967739613,-11.975815,-9.515366,-2.3148956,0.037979126,4.6654663,4.670166
1618,A,775428018093617,-13.821533,-8.714691,0.61763,-0.82362366,-0.4439087,3.1896515
1618,A,775428068447621,-6.2590027,-6.176834,2.4686584,-2.2263947,-2.1893005,1.4290771
1618,A,775428118801624,-5.787918,-15.207001,17.015717,-0.99476624,-0.8832245,0.2250061
1618,A,775428169155628,-4.0609436,-16.423492,2.0368805,0.036834717,1.0061035,-0.19155884
1618,A,775428219509632,0.23475647,-9.906937,-6.499649,-1.1440735,1.0098877,-1.6087341
1618,A,775428269863636,2.3229828,-7.2365723,-0.5623779,-2.2337341,-5.6368866,-2.4861298
1618,A,775428320217640,1.5606232,-5.2154694,-0.06022644,0.116989136,0.001663208,-0.49790955
1618,A,775428370571644,-0.53749084,-4.974365,-0.29933167,0.8179321,1.0581055,0.8672638
1618,A,775428420925648,-10.181152,-5.661392,3.4772644,1.0283966,4.529114,1.1753998
1618,A,775428471279652,-14.431976,-8.495422,-6.755539,1.4164429,4.421753,0.7837219
1618,A,775428521633656,-14.991653,-7.5131073,-3.4864807,1.7606354,-2.254303,-1.2010193
1618,A,775428571987660,-8.005722,-9.653442,1.9794006,1.4108582,-2.7361755,-1.3708954
1618,A,775428622341663,1.3282318,-6.4296265,8.291061,-0.22486877,-3.536087,-1.9283142
1618,A,775428672695667,-1.5169983,-9.845352,-1.2794647,-1.1241608,-3.4813232,-1.894928
1618,A,775428723049671,-2.5368042,-8.060577,-1.2944794,-0.94348145,-0.3888092,-1.7728271
1618,A,775428773403675,-3.103363,-7.070465,-2.2938843,0.0073394775,1.065094,-1.2841034
1618,A,775428823757679,-4.955139,-8.107758,-2.5000458,0.3125,-0.5035248,-0.92607117
1618,A,775428874111683,-5.505356,-8.022797,-0.12210083,0.061019897,-1.0304565,-1.0573883
1618,A,775428924465687,-6.631195,-8.231537,0.55503845,-0.7989502,-0.19100952,-0.6153412
1618,A,775428974819691,-7.406708,-8.609451,-3.1191254,-0.20391846,2.5982666,1.4887543
1618,A,775429025173695,-8.351074,-8.785797,-2.63826,0.72257996,3.167694,3.9221497
1618,A,775429075527699,-10.692978,-9.031342,-3.5944977,-0.017105103,4.412903,4.67717
1618,A,775429125881703,-12.042694,-7.485153,6.0829773,-1.9618988,0.9928589,3.3353882
1618,A,775429176235706,-13.289246,-8.257889,10.066879,-2.2067413,-2.964447,1.3633423
1618,A,775429226589710,-13.889648,-15.310135,-2.9163208,-0.8890381,-1.3732605,0.4814453
1618,A,775429276943714,-3.1815796,-14.68251,1.2875061,-0.4944458,2.284851,-0.16087341
1618,A,775429327297718,4.5734253,-10.607956,2.486206,-1.747757,0.10058594,-1.6318359
1618,A,775429377651722,3.3559723,-6.913788,-1.2187958,-1.108902,-2.9542694,-2.1011353
1618,A,775429428005726,2.502121,-5.485672,-0.56051636,-0.038848877,-0.96920776,-0.9209137
1618,A,775429478359730,-1.3654175,-6.3075714,7.4392395,0.3690033,0.42785645,-0.1255188
1618,A,775429528713734,-6.7165375,-6.384674,0.7835541,0.5773163,1.899353,0.40496826
1618,A,775429579067738,-12.048065,-5.6921234,-9.069748,0.79322815,2.5788727,1.185791
1618,A,775429629421742,-12.366974,-7.091034,0.83496094,1.2626953,0.8585968,0.14746094
1618,A,775429679775746,-9.627258,-10.238937,0.29882813,1.145401,-1.2020721,-1.1044006
1618,A,775429730129749,-5.8918304,-6.707306,0.20005798,0.13269043,-2.2946167,-1.4774933
1618,A,775429780483753,-0.88653564,-6.8706665,-0.010879517,-0.6852112,-2.6253662,-1.647583
1618,A,775429830837757,-1.4161987,-8.982895,-0.31648254,-0.3449707,0.026031494,-1.8517609
1618,A,775429881191761,-2.2256012,-6.3992157,-1.9393921,-0.07797241,0.13648987,-1.579956
1618,A,775429931545765,-3.4259949,-6.638321,-2.2866974,0.085006714,-0.63475037,-1.4327545
1618,A,775429981899769,-5.1063843,-7.424988,-1.293747,-0.08282471,-0.95602417,-1.5260162
1618,A,775430032253773,-6.8950806,-8.401764,-2.4196625,-0.75590515,-0.9801178,-0.91690063
1618,A,775430082607777,-7.5605316,-8.705292,-3.0114594,0.3849945,3.3065186,0.37156677
1618,A,775430132961781,-7.965851,-8.1922,-1.8081512,1.295105,5.2819824,3.609146
1618,A,775430183315785,-10.592072,-8.92453,-1.6228638,0.7095642,3.7073364,4.6432343
1618,A,775430233669788,-11.852707,-7.249634,0.35723877,6.4086914E-4,0.041992188,2.9824677
1618,A,775430284023792,-12.399918,-7.480377,-1.2676849,-1.896164,-2.3379974,1.4151154
1618,A,775430334377796,-9.937592,-12.977142,3.3300476,-0.97291565,-2.0178986,0.40951538
1618,A,775430384731800,-8.467514,-15.778961,2.9579315,-0.8087158,0.53956604,-0.17004395
1618,A,775430435085804,-4.5806427,-14.261108,-3.8582764,-0.03138733,1.593216,-0.8110504
1618,A,775430485439808,1.5552216,-8.682358,-2.7414093,-1.7181396,-3.877304,-1.9980927
1618,A,775430535793812,1.3450012,-6.2930603,-0.72120667,-0.51805115,-2.326416,-0.8045807
1618,A,775430586147816,0.9376373,-6.1226044,-2.2352295,0.9405365,-0.42485046,-0.19802856
1618,A,775430636501820,-8.550201,-3.738266,-5.8721466,0.5107422,0.5693207,-0.71040344
1618,A,775430686855824,-17.781586,-8.727356,4.4989777,0.2599945,1.4700623,0.2016449
1618,A,775430737209828,-9.073669,-5.598343,0.3565216,0.8935394,2.2668,0.62184143
1618,A,775430787563831,-7.6821594,-11.318863,0.83006287,1.139267,-1.1915131,-0.7852478
1618,A,775430837917835,-6.8563538,-7.790619,0.5615387,0.2387085,-2.7474213,-1.440094
1618,A,775430888271839,-1.4091644,-3.6622772,1.1990051,-0.4836731,-2.5417786,-1.6605988
1618,A,775430938625843,-1.9586792,-10.836838,-6.133011,-0.2946167,0.68418884,-2.0844727
1618,A,775430988979847,-2.3440857,-7.4604797,-3.133438,-0.42364502,0.0927124,-1.4414063
1618,A,775431039333851,-3.1459656,-6.011307,-1.5605164,-0.44085693,-0.8275604,-1.1016693
1618,A,775431089687855,-5.590973,-7.2364197,-0.94525146,-0.38146973,-0.9093628,-1.2696838
1618,A,775431140041859,-6.566803,-7.718811,-2.861786,-0.93588257,-0.8905792,-0.955246
1618,A,775431190395863,-6.6271515,-7.5721283,-2.330658,0.88453674,4.375656,0.605896
1618,A,775431240749867,-7.5507813,-8.62854,-1.0705109,0.85450745,2.6250305,4.11763
1618,A,775431291103871,-9.266052,-8.534348,-2.0883636,0.5865021,4.7403564,4.6167755
1618,A,775431341457874,-12.402588,-9.205002,-0.502594,-0.061340332,0.84394836,3.125183
1618,A,775431391811878,-9.957535,-6.42688,14.007431,-2.5710144,-2.0377655,1.4097748
1618,A,775431442165882,-9.091019,-12.461746,9.979538,-1.4554596,-1.9482574,0.3597412
1618,A,775431492519886,-6.9228363,-15.798523,-0.3174286,0.08456421,1.3880157,0.03479004
1618,A,775431542873890,-1.3773346,-12.143082,-3.1716614,-0.09529114,2.554245,-1.2182617
1618,A,775431593227894,2.8070068,-7.7716675,-2.925537,-2.4989166,-7.9108887,-3.1631317
1618,A,775431643581898,1.8212738,-5.7821045,0.22460938,-0.08691406,-0.61964417,-1.3828125
1618,A,775431693935902,1.0102081,-6.6546783,-3.392517,0.35299683,-1.1402435,0.7490845
1618,A,775431744289906,-8.662125,-5.9888763,4.391144,0.90434265,1.7778931,0.10525513
1618,A,775431794643910,-12.874786,-9.949432,-7.67688,1.366806,3.138443,1.0076752
1618,A,775431844997913,-14.7513275,-4.7061615,-4.221115,2.0418396,3.2032013,0.11175537
1618,A,775431895351917,-8.774124,-10.605331,2.0979004,1.4024963,-1.3379364,-1.0698242
1618,A,775431945705921,-6.801941,-8.150162,0.50675964,-0.069107056,-2.393692,-1.5776672
1618,A,775431996059925,1.3356018,-4.206024,2.2545319,-0.7964783,-3.0787964,-1.915802
1618,A,775432046413929,-2.2023773,-12.837219,-8.200409,-1.2117767,-1.8973389,-1.9856415
1618,A,775432096767933,-1.3187561,-5.779175,-1.98172,-0.354599,0.5026398,-1.733429
1618,A,775432147121937,-3.899994,-7.1299896,-1.5000458,0.047714233,-0.43746948,-1.2266693
1618,A,775432197475941,-5.658554,-8.543457,-1.6457672,0.3862152,-0.2841034,-1.3220825
1618,A,775432247829945,-6.7204895,-9.198563,0.030792236,-0.6046448,-0.6847687,-0.533844
1618,A,775432298183949,-7.3926697,-8.180634,-1.6815491,-1.0299377,1.1998596,1.2557526
1618,A,775432348537953,-8.067535,-7.9161835,-1.5992126,0.8814392,4.7155,4.1473236
1618,A,775432398891956,-10.288025,-8.2803955,-2.6661987,0.88468933,3.8007507,5.0828857
1618,A,775432449245960,-12.632156,-8.549622,0.048828125,-1.6867676,3.56604,3.9479065
1618,A,775432499599964,-11.372665,-8.292053,7.8441772,-1.6049805,-3.3249207,1.8500214
1618,A,775432549953968,-8.817154,-14.868576,8.426346,-1.1464996,-2.2794495,0.50157166
1618,A,775432600307972,-6.166733,-14.953201,-1.6256256,-0.23075867,1.3900452,-0.13568115
1618,A,775432650661976,0.78141785,-10.980789,-0.90745544,-1.9420624,1.9581146,-1.7442169
1618,A,775432701015980,3.4177856,-7.3552246,-2.3425903,-1.2918701,-4.0384827,-2.3515625
1618,A,775432751369984,2.7559967,-5.522339,0.30134583,-0.1464386,-0.0418396,-1.2563324
1618,A,775432801723988,0.35169983,-5.7114105,-0.092803955,0.22079468,-0.36999512,-0.059921265
1618,A,775432852077992,-4.6642456,-6.004318,0.73857117,0.55926514,1.4203949,-0.066589355
1618,A,775432902431996,-11.661896,-7.592087,-15.46225,1.00914,1.6703186,0.7732849
1618,A,775432952785999,-12.628494,-5.9036865,-2.0276184,1.8369141,1.3713837,0.28578186
1618,A,775433003140003,-7.6758575,-9.225494,0.83802795,1.7128906,-1.0334473,-1.1489105
1618,A,775433053494007,-7.4523163,-9.37738,-0.30281067,-0.16067505,-2.823761,-1.5019073
1618,A,775433103848011,-1.2414551,-6.1176605,-0.34373474,-1.6616669,-3.2733154,-1.7314453
1618,A,775433154202015,-2.6218567,-11.045914,-2.7943726,-0.8989105,-0.30288696,-1.7768555
1618,A,775433204556019,-2.0386047,-6.646057,-2.773117,0.16525269,0.7450714,-1.5669556
1618,A,775433254910023,-2.7898102,-6.5920258,-4.8078156,0.0874939,-0.38452148,-1.3471069
1618,A,775433305264027,-4.9253845,-8.2165985,-0.53108215,-0.16384888,-0.53785706,-1.1669922
1618,A,775433355618031,-6.2830048,-8.758911,-0.27233887,-1.0111389,-0.59851074,-0.3431244
1618,A,775433405972035,-7.5282593,-8.646545,-3.0301971,-0.3577423,2.190796,1.3207855
1618,A,775433456326038,-8.307907,-8.254272,-2.2133026,1.6843567,5.928406,3.370575
1618,A,775433506680042,-10.4387665,-8.684448,-1.887207,1.2747498,4.354355,3.9515076
1618,A,775433557034046,-12.646698,-8.31839,3.7257996,-0.60583496,-1.2946167,2.8888092
1618,A,775433607388050,-13.884445,-10.093857,5.368683,-1.3551178,-2.8918152,1.6796417
1618,A,775433657742054,-12.277512,-16.06215,-2.36232,-0.5216522,-0.8192749,0.72828674
1618,A,775433708096058,-6.8734436,-17.097412,-2.3951569,-0.78678894,2.4711304,-0.28129578
1618,A,775433758450062,-1.4427338,-11.905746,-2.9767761,-1.414444,-0.35198975,-1.7448425
1618,A,775433808804066,2.267212,-6.8257904,-1.4814148,-0.54927063,-3.130127,-1.9699554
1618,A,775433859158070,1.8077545,-5.7767334,-1.6795349,-0.04031372,-1.7838287,-0.6509247
1618,A,775433909512074,0.78756714,-5.4923096,-0.06997681,0.0848999,-0.7450104,-0.0039520264
1618,A,775433959866078,-4.4458923,-6.0920563,-9.450562,0.26460266,0.52197266,0.37091064
1618,A,775434010220081,-11.824265,-5.6954956,-10.489853,1.0022278,1.3216248,1.0832367
1618,A,775434060574085,-11.236649,-7.3448944,-0.397995,1.9252472,-0.12753296,-0.13240051
1618,A,775434110928089,-8.715256,-10.05629,0.60595703,1.1298523,-1.3368073,-1.3113556
1618,A,775434161282093,-3.459137,-5.4745483,0.31661987,-0.75375366,-0.52412415,-1.457428
1618,A,775434211636097,-1.2296753,-8.644577,-0.005050659,-1.2101898,-0.22741699,-1.7707977
1618,A,775434261990101,-3.1983185,-10.719009,-1.481781,-0.27400208,-1.0005035,-1.8968658
1618,A,775434312344105,-2.8163605,-6.577484,-2.2026215,-0.3629303,-1.6460266,-1.4608002
1618,A,775434362698109,-3.1280518,-6.778702,-2.6504364,-0.51652527,-0.36090088,-1.7107086
1618,A,775434413052113,-4.1727905,-7.363434,-2.0299377,-0.24595642,-0.18522644,-1.7804871
1618,A,775434463406117,-5.7218933,-8.41156,-2.2277985,-0.45117188,-0.91111755,-0.7155762
1618,A,775434513760121,-7.243408,-9.302719,-2.058838,0.3393402,3.275055,2.744751
1618,A,775434564114124,-8.901901,-8.823303,-0.14753723,1.055893,3.2540436,5.612625
1618,A,775434614468128,-12.590698,-9.490326,-0.8948517,0.2883606,2.650406,5.4575653
1618,A,775434664822132,-13.394302,-7.139679,-0.062561035,-1.6656342,0.47047424,2.714264
1618,A,775434715176136,-11.07132,-10.7712555,2.782486,-1.3908081,-1.7561646,0.94259644
1618,A,775434765530140,-8.782303,-16.06099,-0.39271545,0.07420349,0.43423462,0.2930298
1618,A,775434815884144,-2.1803894,-15.389038,0.8800659,-0.24978638,1.2263641,-0.8878021
1618,A,775434866238148,4.4266663,-11.322205,-0.41627502,-2.3623352,-4.355072,-2.3845215
1618,A,775434916592152,4.245224,-6.5987396,0.41052246,-0.21540833,-0.46990967,-2.4248505
1618,A,775434966946156,2.8523407,-5.7571106,-1.5869446,0.3204651,-0.51649475,-0.73757935
1618,A,775435017300160,-5.172226,-5.4327393,6.884506,-0.38485718,1.2870483,-0.33055115
1618,A,775435067654163,-6.650345,-7.298355,-11.791092,-0.4194641,1.5278778,0.72125244
1618,A,775435118008167,-13.891708,-6.765045,-5.982254,0.35908508,1.7717743,1.6273956
1618,A,775435168362171,-9.147751,-6.833267,-0.58314514,2.2534943,-0.65730286,-0.4426422
1618,A,775435218716175,-12.20871,-13.561768,-0.8321686,1.8479614,-0.9767914,-1.1272736
1618,A,775435269070179,-2.333191,-4.1605835,-0.043624878,-0.15151978,-1.9055328,-1.5007782
1618,A,775435319424183,-2.0312958,-9.489227,-0.7715454,-1.2386322,-1.6943359,-1.6964417
1618,A,775435369778187,-2.7419739,-9.53949,-1.9214325,-0.69358826,0.21252441,-1.7690277
1618,A,775435420132191,-1.9785919,-5.6247253,-3.4572906,0.20993042,-1.2344971,-1.5558014
1618,A,775435470486195,-3.6772308,-7.0240784,-1.9557648,0.4267578,-1.2974243,-2.15773
1618,A,775435520840199,-5.115738,-8.740402,-1.8672943,-1.0060577,-0.70884705,-1.6062622
1618,A,775435571194203,-6.4721527,-8.527115,-0.7596283,-1.0461578,1.8576965,0.42643738
1618,A,775435621548206,-7.4305115,-8.239395,-2.9967346,0.6541748,3.3836212,3.6607666
1618,A,775435671902210,-10.026047,-8.527344,-3.1736755,-0.33654785,5.094162,5.099579
1618,A,775435722256214,-14.878204,-9.956345,-1.8498993,-0.38562012,1.3417358,4.0205994
1618,A,775435772610218,-14.277313,-6.2266846,17.868546,-1.9395599,-2.5157623,1.9760437
1618,A,775435822964222,-14.626617,-13.252579,-3.8787384,-1.71521,-1.8163147,0.50260925
1618,A,775435873318226,-10.072968,-17.906586,-3.681656,0.19181824,0.9806824,0.07382202
1618,A,775435923672230,-2.3625488,-12.5099945,-4.5307007,-1.1638641,3.1383057,-1.2982025
1618,A,775435974026234,2.4611664,-8.452362,-2.5491486,-2.7653503,-5.118576,-2.3789368
1618,A,775436024380238,2.7509003,-5.8205566,0.4268036,0.22613525,0.7136688,-2.3290558
1618,A,775436074734242,1.0264282,-5.991089,-1.0168762,0.4437561,-0.41163635,0.3981018
1618,A,775436125088246,-6.228119,-5.814987,11.943787,0.36717224,2.0312195,-0.106781006
1618,A,775436175442249,-8.02446,-7.993515,-17.025452,0.65745544,2.2219238,1.0254211
1618,A,775436225796253,-17.12767,-6.842392,-1.4976349,2.4589996,4.36911,1.1772614
1618,A,775436276150257,-6.9873962,-7.4373474,0.8845825,3.5398712,1.5081177,-0.7877655
1618,A,775436326504261,-11.10849,-13.272919,-1.0923157,0.6526947,-3.5085754,-1.6289825
1618,A,775436376858265,-0.05999756,-4.8415833,2.8781738,-1.2346039,-4.4561768,-1.6069946
1618,A,775436427212269,-1.2969208,-13.333618,2.6669464,-1.3833008,-3.7681122,-2.4214783
1618,A,775436477566273,-0.92266846,-7.6539154,-3.8538055,0.36749268,1.6101379,-2.1351776
1618,A,775436527920277,-0.878952,-6.5509796,-5.2332,0.45767212,0.13172913,-1.2743378
1618,A,775436578274281,-4.9673157,-8.744995,-0.48136902,0.056625366,0.49111938,-0.98657227
1618,A,775436628628285,-6.8151245,-10.276108,-1.3043365,-0.8942871,-0.72624207,-0.5667267
1618,A,775436678982288,-7.573303,-7.7715454,-1.8358917,-1.1533356,1.1080627,1.2375641
1618,A,775436729336292,-8.813675,-8.414459,-2.9996033,1.9250793,6.7082367,3.6441193
1618,A,775436779690296,-9.419739,-7.91835,-2.5251465,1.5151825,3.2395325,5.1708984
1618,A,775436830044300,-12.625565,-9.11731,-1.9330902,0.42277527,0.5954895,2.9974365
1618,A,775436880398304,-12.154709,-8.840775,2.4676056,-1.6672058,-2.151184,2.2467957
1618,A,775436930752308,-13.98494,-16.37323,0.585022,-0.72288513,-1.5001221,0.8215332
1618,A,775436981106312,-9.734299,-19.31041,0.78105164,0.4165039,0.82858276,0.35697937
1618,A,775437031460316,-6.0471954,-16.189484,-0.82318115,-1.6698303,1.3323212,-1.1838531
1618,A,775437081814320,2.53714,-6.4149017,-1.5227051,-1.6941528,-4.343033,-2.4100342
1618,A,775437132168324,2.5496826,-5.646744,0.10751343,0.19090271,0.50953674,-1.8455505
1618,A,775437182522328,2.9107056,-4.888382,-0.62590027,0.45498657,0.811615,-0.30233765
1618,A,775437232876331,0.5212555,-5.4332886,-4.0573425,0.5506897,2.958252,0.13490295
1618,A,775437283230335,-8.921799,-7.526291,-13.623505,0.8608093,2.7113647,1.2352905
1618,A,775437333584339,-16.209625,-7.7964783,-0.20550537,1.5639496,1.3738708,0.4382019
1618,A,775437383938343,-10.229691,-10.048996,0.71684265,1.2509003,-2.0980988,-0.9757538
1618,A,775437434292347,-8.787216,-9.630585,-0.85253906,-0.05973816,-2.897873,-1.5732422
1618,A,775437484646351,-2.3688202,-6.458191,-0.12921143,-0.41749573,-2.3558044,-1.981308
1618,A,775437535000355,-2.6452942,-11.899933,-1.0697937,-0.37019348,-1.4570313,-2.2249603
1618,A,775437585354359,-1.1361542,-6.8367615,-3.0057983,-0.35050964,-0.6010437,-2.012329
1618,A,775437635708363,-2.4196777,-6.4214783,-1.4608765,-0.5496063,-0.3201599,-1.484436
1618,A,775437686062367,-4.741928,-8.134903,-1.8739777,-0.58525085,0.18177795,-1.1605988
1618,A,775437736416371,-6.1262207,-8.092438,-2.5609436,-0.64704895,0.1975708,-0.5204468
1618,A,775437786770374,-8.227951,-8.704422,-2.8718262,0.43450928,1.592102,1.1456909
1618,A,775437837124378,-9.339661,-8.8485565,-1.430191,1.1966248,3.3267212,3.9172974
1618,A,775437887457890,-10.794189,-8.696106,-1.04216,0.42034912,4.3176575,5.3560944
1618,A,775437937811894,-13.985413,-8.628342,6.4897156,-0.8953552,1.1011505,3.6924286
1618,A,775437988165898,-15.602341,-9.636932,6.1897125,-2.088913,-2.5111847,1.5211029
1618,A,775438038519902,-12.092697,-15.198944,3.55484,-0.81134033,-1.3819122,0.6404877
1618,A,775438088873906,-5.324188,-16.954697,10.400436,-0.16418457,1.3330688,0.10223389
1618,A,775438139227910,0.25257874,-12.339539,2.164734,-1.6087646,-1.1630249,-1.1117401
1618,A,775438189581914,3.0012817,-6.838745,-1.0693817,-1.1234131,-2.9005432,-1.9723053
1618,A,775438239935918,1.8496857,-4.7788544,0.88108826,0.3093567,-1.044693,-0.7352295
1618,A,775438290289921,1.5638885,-6.1018677,1.3246613,1.0386353,2.3968658,-0.36325073
1618,A,775438340643925,-4.4907074,-6.492813,-9.731934,1.0561066,4.078369,0.20854187
1618,A,775438390997929,-14.390442,-5.374649,-7.9478607,0.81681824,2.5278473,0.62705994
1618,A,775438441351933,-11.961838,-6.853531,1.7756805,1.610733,0.18077087,-0.4345703
1618,A,775438491705937,-10.699142,-12.997711,0.04562378,1.6104126,-1.5201263,-1.4396973
1618,A,775438542059941,-6.1199036,-8.522354,-0.91685486,0.33224487,-3.363144,-1.9114685
1618,A,775438592413945,-2.2190247,-8.068008,-0.8392639,-0.8060608,-4.077301,-2.1244202
1618,A,775438642767949,-2.632965,-9.278458,-1.104187,-0.5376892,-0.694046,-2.2046967
1618,A,775438693121953,-1.9860382,-6.93219,-3.1313019,-0.2379303,0.15711975,-1.7019348
1618,A,775438743475957,-3.2656097,-6.8453827,-2.8213348,-0.058395386,0.13189697,-1.2948914
1618,A,775438793829961,-5.9905853,-8.70256,-1.1864014,-0.39698792,-0.16448975,-1.014267
1618,A,775438844183964,-7.859543,-9.073196,-1.6257477,-0.985672,0.672699,0.21330261
1618,A,775438894537968,-8.396652,-8.016815,-2.8824463,0.5661926,3.3860168,2.8188019
1618,A,775438944891972,-9.768158,-8.443161,-2.957718,-0.6004181,6.1576996,4.7579956
1618,A,775438995245976,-12.812576,-9.799652,-2.637329,-0.7595978,3.1694336,4.70018
1618,A,775439045599980,-14.41655,-7.234085,12.787842,-1.6916962,-0.62898254,2.549408
1618,A,775439095953984,-15.299835,-12.626205,1.7407837,-1.5381012,-1.9176483,1.1224823
1618,A,775439146307988,0.54841614,-15.914368,12.49147,-0.16838074,0.40704346,0.5807648
1618,A,775439196661992,1.8115082,-12.164734,1.6160736,-0.30404663,1.5674744,-0.87438965
1618,A,775439247015996,2.029358,-8.938309,-1.7746582,-2.9582214,-6.0488434,-2.7465363
1618,A,775439297370000,3.2353058,-5.933258,0.4287262,-0.14796448,-0.7826233,-2.3134308
1618,A,775439347724004,2.9367676,-5.139038,-1.7679901,0.83496094,1.1148834,-0.2990265
1618,A,775439398078007,-4.9655457,-3.9801788,2.1576233,-0.010025024,2.4715576,0.16159058
1618,A,775439448432011,-8.936462,-8.371765,-10.457336,-0.33854675,2.6356506,1.5338593
1618,A,775439498786015,-16.27185,-6.9806366,-5.644104,0.5646515,0.54234314,0.24874878
1618,A,775439549140019,-10.576126,-8.696091,-0.94732666,1.6932831,-0.9060211,-0.8930664
1618,A,775439599494023,-7.4823,-8.3389435,-0.82992554,0.78074646,-2.7004242,-1.5039978
1618,A,775439649848027,-3.39122,-5.710312,-0.6974335,-0.6412201,-4.18869,-2.2621765
1618,A,775439700202031,-2.160019,-12.018692,0.58665466,-1.072403,-1.4988403,-2.3769836
1618,A,775439750556035,-0.28138733,-6.1571198,-0.5049591,-0.31999207,0.2941742,-1.9322205
1618,A,775439800910039,-1.0639496,-5.7895966,-4.461136,-0.62054443,-0.9417267,-1.5543213
1618,A,775439851264043,-5.1858826,-8.88324,-1.6710815,-0.7319031,-0.28128052,-1.8759613
1618,A,775439901618046,-8.229492,-9.627441,-1.0008392,-0.6423645,-0.17701721,-0.69781494
1618,A,775439951972050,-7.730423,-7.587494,-3.8540497,1.6086884,6.2071075,0.74909973
1618,A,775440002326054,-9.499252,-8.590042,-1.9226532,0.99757385,5.6022186,6.045044
1618,A,775440052680058,-12.076401,-8.542709,-0.77388,-0.19766235,2.7769165,5.82164
1618,A,775440103034062,-16.945465,-8.765732,6.138443,-1.4701691,-0.4310913,2.9486084
1618,A,775440153388066,-13.346649,-8.7977295,-6.189514,-2.0483246,-2.9939423,1.1721954
1618,A,775440203742070,-11.598206,-18.559875,1.5253906,0.30610657,-0.9545288,0.24679565
1618,A,775440254096074,-2.8441925,-18.572418,9.11879,-0.16886902,3.090973,0.21209717
1618,A,775440304450078,7.174713,-10.691788,-3.9125519,-0.830307,-2.5324554,-1.3710175
1618,A,775440354804082,2.5994873,-4.415451,-0.5514374,-1.1838531,-3.9993134,-2.7338104
1618,A,775440405158086,1.9105988,-5.0466003,-0.44082642,0.5263977,1.1647644,-0.08073425
1618,A,775440455512089,2.9957123,-6.0235596,-4.4086456,1.0402985,2.9530334,-0.6417084
1618,A,775440505866093,-13.63031,-4.1963806,-14.189926,0.56448364,3.623352,0.33987427
1618,A,775440556220097,-19.042099,-8.602585,9.978104,0.5994873,2.6752472,0.7709656
1618,A,775440606574101,-8.158096,-7.6908417,-0.6838379,1.1273651,-2.2623444,-0.70718384
1618,A,775440656928105,-11.182419,-13.668671,-0.25282288,1.1523285,-2.4280396,-1.1434937
1618,A,775440707282109,-1.4951935,-3.8869934,1.5165558,0.08091736,-2.2164001,-1.6476898
1618,A,775440757636113,-5.0011597,-10.141495,-3.120163,-0.9090729,-0.3605957,-1.8405914
1618,A,775440807990117,-2.8801575,-6.5667725,-1.2038116,-0.1854248,-0.66212463,-1.8522186
1618,A,775440858344121,-1.5912476,-4.473984,-2.0097046,-0.5979309,-1.7605286,-1.5095062
1618,A,775440908698125,-4.313675,-8.042023,-4.0078125,-0.7801056,0.4519806,-1.7436523
1618,A,775440959052129,-6.074188,-8.287384,-3.2408905,-0.270813,0.6455841,-1.0248718
1618,A,775441009406132,-7.3283386,-7.8934937,-4.0076447,0.99638367,3.954773,1.3396149
1618,A,775441059760136,-8.908188,-8.68338,-1.9869385,0.98254395,-0.30801392,4.832901
1618,A,775441110114140,-11.334442,-8.413727,-0.5402069,0.68099976,2.816574,4.9196625
1618,A,775441160468144,-14.807602,-8.609329,-2.7312622,-0.43663025,2.7503662,3.0897064
1618,A,775441210822148,-11.472839,-6.869461,-2.156021,-2.0032654,-3.0069275,0.95835876
1618,A,775441261176152,-13.021652,-16.128845,7.488449,-1.3679352,-1.4366608,0.22569275
1618,A,775441311530156,-7.016571,-17.1801,-0.11663818,0.34976196,1.5783081,0.31451416
1618,A,775441361884160,1.6356964,-11.988266,-3.8108673,-0.5046692,0.07827759,-0.9746094
1618,A,775441412238164,1.0762482,-7.1343536,-1.1174164,-1.5953827,-4.167557,-1.7640076
1618,A,775441462592168,0.58883667,-4.762253,0.15200806,-0.104400635,-0.040725708,-0.5627136
1618,A,775441512946171,-1.9234467,-4.993393,0.025909424,1.1333618,1.3354034,-0.20756531
1618,A,775441563300175,-9.232254,-5.479599,-0.6082001,1.4503784,2.5358276,-0.87042236
1618,A,775441613654179,-11.750824,-4.785858,-7.842819,0.5437622,2.5945282,-0.030014038
1618,A,775441664008183,-9.964478,-5.4388123,-0.42764282,0.3827362,1.106247,-0.13005066
1618,A,775441714362187,-8.531769,-11.774796,-0.3421631,0.67144775,-1.7935791,-1.003479
1618,A,775441764716191,-7.575012,-8.710632,-2.2181244,0.61994934,-2.40477,-1.269577
1618,A,775441815070195,-3.2706604,-5.3989105,-1.008728,0.15849304,-0.6810608,-1.3352661
1618,A,775441865424199,-4.5204926,-8.6449585,-2.1755219,-0.12138367,1.1517944,-1.6041412
1618,A,775441915778203,-2.8831177,-5.23378,-1.1289673,-0.03819275,-0.9610138,-1.545929
1618,A,775441966132207,-3.5300598,-5.983673,-1.1212921,-0.24362183,-1.5877686,-1.4857483
1618,A,775442016486211,-4.968338,-8.389252,-2.760086,-0.75439453,-0.37147522,-1.5510254
1618,A,775442066840214,-5.3001556,-7.9427643,-4.7909546,0.26904297,4.327835,-0.9658356
1618,A,775442117194218,-6.771164,-8.037323,-4.1493683,0.77815247,4.179062,1.0009155
1618,A,775442167548222,-8.727005,-9.043442,-2.6833649,0.20780945,-0.32865906,3.7528687
1618,A,775442217902226,-10.9822235,-8.736145,-1.954422,0.5923004,2.488205,4.992874
1618,A,775442268256230,-9.498932,-6.916107,-4.0178223,-0.2544098,1.4099426,3.263092
1618,A,775442318610234,-11.775513,-8.279343,-5.553711,-1.4100647,-1.2940369,1.227417
1618,A,775442368964238,-14.84343,-14.043396,-4.010498,-0.761734,-0.7264252,0.6027527
1618,A,775442419318242,-6.662903,-15.529083,-0.17601013,-0.0058288574,1.6284027,-0.2928772
1618,A,775442469672246,1.6186066,-12.633118,-0.8947754,-1.8009033,-2.988678,-1.8259735
1618,A,775442520026250,4.1517487,-7.788208,-2.1950684,-1.4208221,-3.5631714,-1.7366638
1618,A,775442570380254,2.4071198,-5.435211,-0.94099426,0.5344696,0.4152527,0.09967041
1618,A,775442620734257,-3.2798462,-4.9636993,3.153473,1.361618,3.0237732,-0.16081238
1618,A,775442671088261,-7.895401,-5.8847046,-4.7890472,1.1491241,3.8740997,-0.3692627
1618,A,775442721442265,-11.681824,-4.5969543,-6.916931,0.835907,2.8429565,0.33091736
1618,A,775442771796269,-9.575775,-7.1546326,0.5966339,1.2019958,0.29197693,-0.44192505
1618,A,775442822150273,-7.452133,-11.300064,-0.14930725,1.359909,-1.267334,-1.1929626
1618,A,775442872504277,-4.4499664,-6.895294,-1.349823,0.8217621,-2.3132477,-1.3797302
1618,A,775442922858281,-3.2691193,-7.7617493,-1.9973145,-0.56869507,-1.6307678,-1.5422668
1618,A,775442973212285,-3.1833038,-7.883209,-1.7851715,-0.38505554,4.5776367E-5,-1.6417389
1618,A,775443023566289,-3.1388245,-5.6746674,-2.8897705,-0.035202026,-1.3314056,-1.4956512
1618,A,775443073920293,-4.271469,-6.610367,-3.0432587,-0.319458,-0.5424957,-1.3730927
1618,A,775443124274296,-5.127594,-8.652008,-3.5585632,-0.54182434,0.21134949,-1.4219513
1618,A,775443174628300,-5.7264557,-8.036926,-4.396164,1.3348083,5.5428925,-0.060836792
1618,A,775443224982304,-7.4098663,-8.408936,-4.2453613,0.9413147,3.3933868,3.5826416
1618,A,775443275336308,-8.977966,-8.506897,-1.43013,0.44822693,3.3174133,4.749588
1618,A,775443325690312,-11.569214,-8.219696,-2.7577515,-0.3176422,2.538681,3.8764343
1618,A,775443376044316,-11.207504,-7.094269,-7.17688,-1.6309967,-0.9562378,2.1420593
1618,A,775443426398320,-10.605545,-14.191895,8.198135,-1.6512909,-1.0502777,1.1681366
1618,A,775443476752324,-8.192459,-17.371933,2.545227,-0.21655273,1.8089905,1.1367798
1618,A,775443527106328,2.3776703,-13.279205,-3.2499084,-0.677124,0.80218506,0.056518555
1618,A,775443577460332,4.257721,-6.3421936,-1.8014374,-1.3058167,-4.8029633,-1.4200134
1618,A,775443627814336,0.102386475,-4.7515717,-0.03704834,-1.0670471,-1.909317,-0.8542328
1618,A,775443678168339,0.9083557,-6.3022003,-1.2934265,0.7632904,4.934555,-0.56092834
1618,A,775443728522343,-5.850525,-3.7783813,-3.6143036,2.689148,4.18631,-0.027526855
1618,A,775443778876347,-11.93248,-5.92395,-8.033997,1.1829834,0.37460327,-1.2592773
1618,A,775443829230351,-14.186798,-5.7411804,-6.954834,0.4289093,-2.053772,-1.0927734
1618,A,775443879584355,-4.9367523,-6.752548,8.193832,1.7437744,-2.2934265,-1.2449341
1618,A,775443929938359,-0.58903503,-11.568878,3.3542175,1.3074799,-1.8858185,-1.525177
1618,A,775443980292363,-3.8855896,-7.645981,-3.819687,0.5099182,-1.570816,-1.2571411
1618,A,775444030646367,-4.5829163,-6.102417,-0.4921112,-0.4005127,1.7793274,-1.0466614
1618,A,775444081000371,-5.4202576,-7.401764,-1.0773926,-0.4397583,0.53712463,-1.1335144
1618,A,775444131354375,-5.7560425,-5.995743,-2.9924011,-0.6675415,-0.7098694,-1.029419
1618,A,775444181708379,-6.6746063,-7.4401703,-3.1356964,-1.197586,-1.7592773,-1.1193237
1618,A,775444232062382,-5.93631,-7.1059723,-5.287384,0.6220703,0.08572388,-1.4456329
1618,A,775444282416386,-4.0886536,-6.922699,-4.0248413,0.3229828,-1.4376373,-1.172821
1618,A,775444332770390,-5.2193604,-8.690079,-2.5482483,-0.5570679,-0.051864624,3.4570313
1618,A,775444383124394,-6.885376,-9.7487335,0.15356445,0.8269501,3.0727081,5.7160797
1618,A,775444433478398,-9.496277,-7.979782,-2.318344,0.783905,1.8314209,4.268219
1618,A,775444483832402,-15.910904,-5.337219,11.32489,-2.5263977,-0.027267456,2.2842712
1618,A,775444534186406,-19.74234,-16.176544,2.5527802,-1.0175934,-1.199585,0.58984375
1618,A,775444584540410,-10.828842,-18.893768,-3.1105042,0.49578857,1.4241333,0.26487732
1618,A,775444634894414,-3.7365417,-15.412125,-1.234375,-1.1356812,0.41619873,-1.3450775
1618,A,775444685248418,6.968994,-9.458908,-1.3553314,-2.7070618,-6.0581207,-2.384491
1618,A,775444735602421,2.9425201,-5.3864746,-1.5224152,0.012435913,-0.6899719,-1.5912018
1618,A,775444785956425,3.0852203,-3.798767,0.8246918,0.5303345,0.7855072,0.102005005
1618,A,775444836310429,-8.409927,-4.629883,5.1463013,0.5070038,3.4069977,-1.1787109
1618,A,775444886664433,-7.7310486,-7.773697,-12.239883,0.25743103,2.6123047,0.37443542
1618,A,775444937018437,-15.897186,-5.311737,-0.9970093,0.6521759,1.7483215,1.0470276
1618,A,775444987372441,-8.322266,-11.430252,1.2360992,1.5877228,-2.310257,-0.57614136
1618,A,775445037726445,-12.360504,-13.75441,-3.3171997,1.1038208,-2.1693726,-1.020813
1618,A,775445088080449,-1.8195648,-2.5658417,-0.50460815,0.1429596,-1.2967224,-1.2893982
1618,A,775445138434453,-5.1117096,-9.710434,-1.7398376,-0.9739227,0.68470764,-1.6823273
1618,A,775445188788457,-4.627762,-8.885895,-1.6970367,0.09124756,-1.1347351,-1.792038
1618,A,775445239142461,-2.452057,-4.8029633,-1.265976,0.3119049,-2.4230804,-1.734787
1618,A,775445289496464,-4.3661346,-8.247742,-2.6088104,-0.57710266,-0.50897217,-1.8386688
1618,A,775445339850468,-4.1786804,-8.557571,-4.6938477,-1.3182831,-0.14234924,-1.5968933
1618,A,775445390204472,-5.69368,-6.4821014,-2.8425293,-0.8996582,0.072647095,-0.17575073
1618,A,775445440558476,-8.088074,-8.732422,-3.4571075,0.77874756,3.9329987,3.1056976
1618,A,775445490912480,-10.240814,-8.87767,-0.9223633,0.59739685,3.8683014,5.5987396
1618,A,775445541266484,-12.38356,-8.058075,-0.03503418,-0.293396,2.4855042,3.8300781
1618,A,775445591620488,-15.804749,-8.909637,0.934021,-1.698761,-2.2854767,1.6366577
1618,A,775445641974492,-15.905151,-14.167007,-5.5510406,-0.99417114,-0.8657837,0.5713806
1618,A,775445692328496,-7.439209,-16.543991,-1.9714355,-0.0206604,1.3573914,0.14309692
1618,A,775445742682500,-2.052948,-14.641296,-0.94955444,-1.1585388,0.8371124,-1.2327118
1618,A,775445793036504,2.2182312,-8.226105,-2.0629425,-1.3699341,-3.6119843,-2.3123474
1618,A,775445843390507,2.3862152,-4.676193,-0.725647,-0.5268097,-2.3961945,-1.6984253
1618,A,775445893744511,1.9072876,-5.573471,0.023010254,0.68551636,-0.07891846,-0.052703857
1618,A,775445944098515,-1.5213623,-6.7174683,-6.1304474,0.9168091,2.11615,0.0809021
1618,A,775445994452519,-11.751022,-7.09317,-11.751755,0.62731934,2.60997,0.85531616
1618,A,775446044806523,-14.757217,-6.620819,2.2481537,1.001297,1.8285675,0.6609802
1618,A,775446095160527,-8.885315,-10.998459,0.5071564,1.611084,-0.29884338,-0.50593567
1618,A,775446145514531,-9.315277,-12.671799,0.16345215,1.0250702,-0.4581604,-1.0657349
1618,A,775446195868535,-2.4296112,-4.4200745,-0.053146362,-0.1547699,-0.46894836,-1.4820862
1618,A,775446246222539,-3.7569122,-9.341187,-0.75341797,-0.64608765,-2.6399384,-2.0021973
1618,A,775446296576543,-3.8539581,-9.391373,-1.8030853,-0.51582336,-3.3535461,-2.2999878
1618,A,775446346930546,-1.583847,-6.306946,-1.8863068,-0.52648926,-1.4936218,-2.1295013
1618,A,775446397284550,-2.7456665,-8.027237,-3.7744293,-0.66722107,0.05607605,-2.0564728
1618,A,775446447638554,-4.4052887,-7.959503,-3.8084717,-0.67604065,-0.47579956,-1.4442902
1618,A,775446497992558,-6.5855713,-8.658859,-2.1010437,0.21382141,2.7795563,0.3790741
1618,A,775446548346562,-8.619858,-8.791672,-0.52149963,0.5554657,4.748413,4.112091
1618,A,775446598700566,-10.231232,-8.329086,-0.7581482,0.5802002,2.7185516,5.6148224
1618,A,775446649054570,-13.416977,-8.501953,-2.7947845,-0.06736755,0.31018066,3.8063202
1618,A,775446699408574,-13.838272,-9.010834,-1.4610596,-1.612503,-1.3538971,1.8382568
1618,A,775446749762578,-10.157883,-13.521698,2.721405,-0.6518097,-0.40100098,0.8043518
1618,A,775446800116582,-6.184784,-18.037262,5.854767,-0.38853455,1.3946686,-0.23138428
1618,A,775446850470586,-0.95314026,-14.320526,-0.53030396,-0.93666077,-0.6951904,-1.5863342
1618,A,775446900824589,2.4764557,-7.674301,-3.0345001,-1.1005096,-2.905548,-3.0903168
1618,A,775446951178593,2.7808838,-5.741516,0.18170166,-0.12519836,-1.5688477,-1.4205933
1618,A,775447001532597,1.2225647,-6.2521057,2.0664978,0.37696838,0.82302856,-0.004348755
1618,A,775447051886601,-4.2970886,-5.745575,-10.483902,-0.0011901855,2.1679688,0.5780029
1618,A,775447102240605,-14.880859,-9.874985,-2.7249908,-0.01373291,2.6298523,1.4070587
1618,A,775447152594609,-10.711838,-7.0974274,2.3279724,1.3661499,0.14183044,0.3661499
1618,A,775447202948613,-10.759293,-12.547668,-0.100875854,1.8865814,-1.634491,-0.7048645
1618,A,775447253302617,-6.6797333,-8.2308655,0.08564758,0.4930725,-0.39726257,-1.3716888
1618,A,775447303656621,-2.798935,-6.355255,-0.07684326,-1.0068359,-0.4375763,-1.6240234
1618,A,775447354010625,-4.9539337,-11.467163,-1.9202423,-0.6055145,-2.8066711,-2.3198395
1618,A,775447404364629,-2.6991425,-7.196747,-2.0273895,-0.12231445,-3.2118683,-2.3835297
1618,A,775447454718632,-1.1838684,-6.9796906,-2.7889557,-0.6986389,-0.8995209,-2.6732178
1618,A,775447505072636,-2.6580048,-7.956314,-4.1699677,-0.42436218,0.7151642,-2.8539124
1618,A,775447555426640,-5.018936,-8.548721,-2.373169,-1.0305939,-1.7323456,-0.9498596
1618,A,775447605780644,-7.739731,-9.5000305,-1.899704,0.13583374,5.14151,2.7348328
1618,A,775447656134648,-9.275543,-8.475464,0.91781616,0.74897766,3.6503906,6.146515
1618,A,775447706488652,-13.405869,-9.104218,-2.587555,0.6919708,3.7855682,5.2030945
1618,A,775447756842656,-15.730988,-7.501175,-1.0001373,-1.5245361,-1.1689453,2.4470825
1618,A,775447807196660,-14.537842,-12.009338,-4.474167,-2.0087128,-1.8602142,0.8456421
1618,A,775447857550664,-9.281433,-17.357086,-2.2353363,-0.30924988,0.13301086,0.44477844
1618,A,775447907928533,-2.6007996,-16.346085,-1.0072021,-0.29673767,1.3699036,-0.68725586
1618,A,775447958282536,3.5416718,-10.710724,-3.027008,-1.726059,-3.698578,-1.8232727
1618,A,775448008636540,3.4638672,-5.9398193,-1.2589569,-0.36627197,-1.8591614,-2.2518005
1618,A,775448058990544,3.0874786,-5.1750793,-0.3620453,0.436615,-0.30122375,-0.14544678
1618,A,775448109344548,-2.8288727,-5.377762,5.0984344,0.50749207,2.3937836,-0.51478577
1618,A,775448159698552,-5.418686,-6.692383,-16.23761,0.45788574,2.345993,0.7498169
1618,A,775448210052556,-16.897888,-6.346054,-0.92370605,0.81581116,2.2131042,1.2909088
1618,A,775448260406560,-8.698837,-8.22818,0.5626526,1.829773,-0.36743164,-0.333313
1618,A,775448310760564,-12.152115,-14.602188,-1.3546295,1.437561,-0.81414795,-1.0052948
1618,A,775448361114568,-2.6549225,-3.5292053,-0.5157013,-0.09024048,-0.98301697,-1.2818909
1618,A,775448411468572,-4.4186096,-11.728149,-1.4378967,-1.4045868,-1.2310638,-1.8367615
1618,A,775448461822576,-2.5437775,-6.8613434,-1.0602722,-0.18702698,-2.0925903,-2.2982178
1618,A,775448512176579,-2.4260864,-5.2241974,-2.7556763,-0.5864105,-3.129959,-1.7216339
1618,A,775448562530583,-3.539444,-8.586761,-5.1937714,-0.4313507,0.5489502,-2.4969025
1618,A,775448612884587,-3.7646027,-7.419983,-3.833023,-0.38294983,-0.33291626,-2.2276
1618,A,775448663238591,-6.800873,-8.703247,-3.528473,0.63830566,4.2659454,0.45429993
1618,A,775448713592595,-8.071396,-8.959106,-0.586853,0.36080933,4.5513763,5.73497
1618,A,775448763946599,-9.431091,-7.695999,-1.0045013,0.07106018,3.662674,4.736725
1618,A,775448814300603,-16.581985,-10.566132,-3.2149353,-0.4098816,0.1373291,3.6023407
1618,A,775448864654607,-12.219421,-5.5026703,14.994919,-2.237671,-1.6827545,1.3751068
1618,A,775448915008611,-7.4521027,-16.025375,7.811249,-1.0784149,-0.81980896,0.21328735
1618,A,775448965362615,-6.903717,-18.942642,2.2687988,-0.089416504,1.6136475,-0.28630066
1618,A,775449015716619,0.5491638,-11.4032135,-4.9392242,-0.70228577,-1.7772064,-2.1491394
1618,A,775449066070622,2.6566925,-7.442032,-1.029602,-3.6572723,-9.750641,-3.2814941
1618,A,775449116424626,3.4488068,-5.2800446,-0.45048523,0.44198608,0.20466614,-1.014679
1618,A,775449166778630,3.1907654,-5.7420654,0.3964386,0.48641968,1.3951721,0.9159851
1618,A,775449217132634,-7.707718,-6.3520813,6.5010376,-0.05831909,2.3712616,1.4481201
1618,A,775449267486638,-12.978928,-13.127274,-11.212662,0.58403015,1.8662567,2.1157684
1618,A,775449317840642,-12.662521,-5.5663147,-1.381134,2.1027832,-0.44462585,-0.055755615
1618,A,775449368194646,-11.03157,-10.288193,0.16371155,1.5439606,-0.40797424,-0.78596497
1618,A,775449418548650,-3.8309784,-5.5743866,0.06150818,-0.5631561,0.63871765,-1.5597382
1618,A,775449468902654,-3.2561798,-10.264847,-0.69403076,-0.7451477,-2.3190918,-2.1137543
1618,A,775449519256658,-2.2551422,-9.4236145,-1.1618652,-0.6434326,-3.6670227,-2.5256195
1618,A,775449569610661,-1.0623779,-5.990387,-1.9299774,-0.52256775,-1.3244934,-2.1593475
1618,A,775449619964665,-2.489029,-7.695511,-4.2003784,-0.579895,-0.26000977,-2.1848145
1618,A,775449670318669,-4.4815063,-7.9005737,-3.209137,-0.3394928,-0.5111389,-1.8198547
1618,A,775449720672673,-6.720352,-9.33049,-1.9540558,0.11830139,1.4299469,0.08540344
1618,A,775449771026677,-7.392273,-7.969101,-0.95121765,1.8125916,8.851196,2.912445
1618,A,775449821380681,-9.38768,-8.492401,-0.3454895,0.8383026,5.493805,4.5138397
1618,A,775449871734685,-13.827454,-9.913132,-2.4051514,-0.7157135,0.16259766,3.2911835
1618,A,775449922088689,-14.372635,-9.750687,-2.1049194,-1.5065155,-3.168457,2.6224213
1618,A,775449972442693,-9.567764,-12.600922,-0.5984497,-0.82055664,-0.5644989,1.2721863
1618,A,775450022796697,-5.269943,-15.907455,1.3143616,-0.013320923,1.2861633,0.27111816
1618,A,775450073150701,-3.0805054,-12.419693,-3.938263,0.20578003,1.7053223,-0.81539917
1618,A,775450123504704,-0.5031128,-7.8726654,-0.462265,-0.41116333,-2.4102478,-2.3743896
1618,A,775450173858708,1.5739288,-6.4103546,-1.2855377,-1.3418732,-5.062271,-2.3848114
1618,A,775450224212712,2.244751,-5.9262085,-1.9371185,-0.27178955,-0.552124,-0.25805664
1618,A,775450274566716,-1.2157745,-5.5693207,-5.7403717,-0.25167847,1.7501678,0.5235443
1618,A,775450324920720,-12.311569,-8.64595,-3.4912567,0.5166321,1.1932678,1.7614288
1618,A,775450375274724,-14.808655,-10.356476,8.248093,1.8811798,0.034698486,1.0812073
1618,A,775450425628728,-10.900223,-9.112213,-0.14198303,2.012329,-0.6165161,-0.54776
1618,A,775450475982732,-9.617752,-10.023834,-0.40402222,-0.13479614,0.4223175,-1.3312988
1618,A,775450526336736,-2.524643,-7.14534,-0.27980042,-0.9583435,-0.5154419,-1.8298035
1618,A,775450576690740,-3.1756897,-10.67395,-1.15271,-0.49861145,-2.8734436,-2.1716156
1618,A,775450627044744,-0.9082184,-6.0879517,-2.4873657,-0.5155945,-2.1004028,-2.085266
1618,A,775450677398747,-1.8644104,-6.18631,-3.302948,-0.7357788,-0.007659912,-1.9367371
1618,A,775450727752751,-4.560684,-7.605789,-3.0135803,-0.39242554,0.26496887,-1.8170776
1618,A,775450778106755,-6.077423,-8.24968,-1.8978729,-0.10757446,-1.2913666,-1.1349487
1618,A,775450828460759,-7.3310547,-8.404617,-0.8808899,0.7432709,3.478485,0.7631378
1618,A,775450878814763,-8.170303,-7.818329,-0.33680725,0.9078827,6.1387634,3.9915771
1618,A,775450929168767,-10.406052,-8.325882,-0.9661865,0.5302429,4.5791016,4.8057404
1618,A,775450979522771,-13.1596985,-8.712494,-2.7887878,-0.51986694,0.7881012,3.2078857
1618,A,775451029876775,-12.685028,-9.262466,-2.8885498,-1.6669312,-1.3999023,1.5342865
1618,A,775451080230779,-8.817215,-14.057068,3.7109375,-0.9224701,-0.37301636,0.6599579
1618,A,775451130584783,-3.0397491,-16.191193,2.9358673,-0.30419922,1.0833282,-0.12075806
1618,A,775451180938786,0.6950836,-11.704788,-2.704956,-0.11766052,0.8790741,-1.2776642
1618,A,775451231292790,1.8739319,-6.679291,-1.2549286,-1.2377472,-4.5968018,-2.661621
1618,A,775451281646794,1.8695068,-5.6168213,-0.06150818,-0.79963684,-3.8591766,-1.1126251
1618,A,775451332000798,1.1156921,-6.442108,0.6487427,0.0011291504,0.09729004,0.24679565
1618,A,775451382354802,-5.548111,-5.8444824,-5.058609,0.43276978,1.480835,0.9699249
1618,A,775451432708806,-16.032501,-8.811874,3.1807556,0.96621704,2.0366669,1.4067535
1618,A,775451483062810,-13.377731,-8.094299,4.0234222,2.104828,-0.030548096,0.053741455
1618,A,775451533416814,-11.163162,-11.354614,0.2077179,1.6616669,-1.1568451,-0.9371033
1618,A,775451583770818,-5.1684723,-6.5315857,0.21504211,-0.72605896,0.79145813,-1.2758179
1618,A,775451634124822,-3.3930511,-9.566772,-0.10119629,-1.2207031,-0.7605133,-1.6793365
1618,A,775451684478826,-4.1116333,-9.315109,-1.7438965,-0.5614929,-2.9890594,-2.0367126
1618,A,775451734832829,-2.6269073,-6.403061,-2.8722076,-0.53234863,-1.6860809,-1.8382263
1618,A,775451785186833,-3.4257202,-7.087204,-3.0831757,-1.2433014,-0.311615,-1.4533234
1618,A,775451835540837,-4.0874786,-7.047516,-3.6090088,-0.48217773,0.62361145,-1.4772797
1618,A,775451885894841,-5.756607,-7.9480896,-1.7195587,0.16764832,-0.4187622,-1.2728271
1618,A,775451936248845,-7.4507446,-8.696304,-1.4939728,0.41680908,2.2602844,-0.30249023
1618,A,775451986602849,-7.586273,-7.889633,-0.017105103,-0.03755188,0.74658203,3.0328827
1618,A,775452036956853,-10.066589,-8.515808,-1.3237152,0.9836273,1.1148529,5.030609
1618,A,775452087310857,-11.440552,-8.831451,-2.4217377,0.35261536,3.2219696,4.2519226
1618,A,775452137664861,-11.647949,-5.794998,11.596771,-1.3352203,2.500183,2.3201141
1618,A,775452188018865,-11.991364,-10.345505,8.837875,-1.8509064,-1.3397369,0.5266571
1618,A,775452238372869,-9.854385,-15.707642,-0.29971313,-0.25231934,-1.5258789E-4,0.097457886
1618,A,775452288726872,-4.5701447,-15.307449,-1.0084991,-0.4634552,2.285263,-1.0109406
1618,A,775452339080876,6.871002,-7.7180786,1.3125,-2.6788635,-5.171692,-2.814392
1618,A,775452389434880,3.1664429,-5.91391,-0.46798706,-0.3242798,-1.6379395,-2.8614197
1618,A,775452439788884,2.0474396,-5.2225037,0.29748535,0.6946411,-0.75668335,0.4332428
1618,A,775452490142888,-2.4941406,-7.4752045,8.772278,0.14157104,3.746933,-0.003189087
1618,A,775452540496892,-6.4266815,-9.515579,-16.98024,0.35850525,2.6374664,1.4474945
1618,A,775452590850896,-17.042465,-6.7054443,-2.9422607,1.0046539,1.7312622,1.9655762
1618,A,775452641204900,-6.7911224,-6.1424866,1.661499,2.2233276,-1.005249,-0.067855835
1618,A,775452691558904,-12.696335,-15.565979,-1.3770752,0.9303436,-0.37174988,-1.2161102
1618,A,775452741912908,-1.6142578,-3.2006683,-0.2635498,-0.7121582,0.21902466,-1.7769623
1618,A,775452792266911,-3.2315063,-11.47171,-1.9296417,-0.15104675,-2.9825592,-2.1625366
1618,A,775452842620915,-1.6512756,-7.1082764,-0.7178955,-0.7168884,-4.164139,-2.4097595
1618,A,775452892974919,1.225174,-5.4842834,-2.469925,-0.31987,-0.5583954,-2.261673
1618,A,775452943328923,-3.9821625,-8.698105,-3.0126648,0.3013916,1.3866882,-2.0328674
1618,A,775452993682927,-4.7822266,-8.07312,-3.334793,0.47946167,-0.46936035,-1.0192108
1618,A,775453044036931,-6.4595795,-8.310074,-0.2727356,-0.97125244,-1.1476593,-0.15777588
1618,A,775453094390935,-8.689697,-8.841705,-0.39752197,-2.0986633,0.16305542,2.45372
1618,A,775453144744939,-9.7252655,-7.5867004,-1.618988,0.46717834,5.310547,5.3154144
1618,A,775453195098943,-11.841232,-8.372269,-3.9447632,2.0987701,3.7968597,4.1879425
1618,A,775453245452947,-12.281067,-8.458679,-0.795105,-1.4157562,-2.8223114,2.4090118
1618,A,775453295806951,-13.411118,-10.10704,17.659653,-1.7436218,-1.6891022,1.3151093
1618,A,775453346160954,-8.628983,-15.414459,-2.681305,-0.617157,0.179245,0.5924072
1618,A,775453396514958,-3.354065,-18.231842,2.644699,-0.36602783,2.2130737,-0.7730713
1618,A,775453446868962,-0.4873352,-10.00798,-4.1029663,-0.64775085,-1.4362946,-2.1159363
1618,A,775453497222966,2.5120697,-5.450348,0.036361694,-2.6097565,-8.628723,-2.688858
1618,A,775453547576970,1.8831177,-6.690155,0.19737244,0.16069031,-1.3853912,-0.25404358
1618,A,775453597930974,0.20777893,-5.8562927,-0.5561676,0.6692047,2.7641754,0.47277832
1618,A,775453648284978,-12.253876,-6.7997437,3.4473572,0.8538513,2.8028564,0.8968811
1618,A,775453698638982,-18.001938,-12.377838,10.794174,1.490387,1.0957031,0.83644104
1618,A,775453748992986,-9.658981,-6.450943,0.31143188,2.7248383,-3.2852783,-0.8137207
1618,A,775453799346990,-10.36232,-12.618576,0.5604553,0.5037079,-0.8512268,-0.57429504
1618,A,775453849700994,-2.4714355,-4.078003,-0.59861755,-1.68013,2.6722107,-1.2027893
1618,A,775453900054997,-5.490494,-10.244324,-1.8993835,-0.79811096,0.028198242,-1.7582245
1618,A,775453950409001,-6.4759827,-10.28804,-3.0779877,-0.102127075,-3.9109192,-2.1582947
1618,A,775454000763005,-1.4499512,-6.4125366,-0.79823303,-0.387146,-1.9924469,-2.0167084
1618,A,775454051117009,-3.940567,-7.3872223,-1.947052,-1.059845,-0.81663513,-1.9321136
1618,A,775454101471013,-4.4125214,-7.637192,-3.9008942,-0.99905396,-0.23968506,-1.709198
1618,A,775454151825017,-4.8032837,-7.4203796,-2.2756348,-0.13035583,1.0806885,-0.6600647
1618,A,775454202179021,-7.1529083,-8.513321,-1.4974976,0.7489929,2.821869,1.9551697
1618,A,775454252533025,-10.194122,-10.205444,-1.3817749,0.52075195,1.2323761,4.7019806
1618,A,775454302887029,-11.05426,-8.466568,-0.851593,0.7641907,2.5504913,4.6936493
1618,A,775454353241033,-11.951721,-7.963852,1.7391205,-0.52445984,2.063736,3.2140503
1618,A,775454403595036,-10.346497,-8.22728,6.0411835,-2.0354767,-0.40194702,1.0475006
1618,A,775454453949040,-10.533691,-14.463211,0.8919525,-1.236084,-0.5529785,-0.109054565
1618,A,775454504303044,-5.2217712,-15.078415,-0.8073883,-0.2607727,0.74772644,-0.51171875
1618,A,775454554657048,2.4361267,-11.081375,-0.71125793,-0.8658905,-1.2215576,-1.4351349
1618,A,775454605011052,3.9973602,-7.9410553,-1.4340668,-1.2280884,-2.7860107,-2.2088776
1618,A,775454655365056,0.008346558,-7.142273,-1.2397614,-0.30696106,-1.2914124,-1.1151276
1618,A,775454705719060,-1.4875946,-5.6692657,1.7353668,0.25517273,0.5161743,0.3156891
1618,A,775454756073064,-5.5007324,-6.378708,-5.8762817,0.53048706,2.2390137,0.43315125
1618,A,775454806427068,-11.857925,-6.14653,-9.623108,0.8757782,2.1669922,0.8826752
1618,A,775454856781072,-13.012909,-6.4157104,1.3807831,1.363266,0.8198242,0.25880432
1618,A,775454907135076,-7.7345886,-9.00882,0.40065002,1.4088287,-0.6664429,-0.5398712
1618,A,775454957489079,-5.9452972,-7.4624023,0.1448822,0.56204224,-1.5849609,-1.0716248
1618,A,775455007843083,-3.8456268,-8.734192,-0.9831238,-0.6354675,-0.72813416,-1.5547333
1618,A,775455058197087,-3.2723083,-9.265152,-1.5309753,-0.6385193,-0.74406433,-1.8925629
1618,A,775455108551091,-1.8761902,-5.3873596,-2.108307,0.04324341,-2.033783,-1.9600983
1618,A,775455158905095,-3.2625732,-7.024765,-2.6925201,-0.2278595,-1.5061493,-1.8215027
1618,A,775455209259099,-4.3888855,-8.548538,-3.4036102,-0.68336487,-0.1466217,-1.9402313
1618,A,775455259613103,-5.217987,-8.055298,-3.5499878,-0.7475128,-0.63279724,-1.6328125
1618,A,775455309967107,-6.768158,-8.105438,-3.1213074,0.716629,3.592987,0.113967896
1618,A,775455360321111,-7.9178925,-8.399033,-1.0402222,1.1138458,5.3858643,3.756134
1618,A,775455410675115,-9.848862,-8.432388,-0.4300995,0.089141846,4.0939636,4.9083557
1618,A,775455461029119,-13.168457,-8.095871,-1.8847809,-0.5988312,1.428299,3.4863129
1618,A,775455511383122,-15.071777,-9.44455,-3.5501099,-1.6020966,-0.93322754,1.6846619
1618,A,775455561737126,-11.352158,-13.560257,-1.5552826,-0.4273224,-1.1485748,0.7668915
1618,A,775455612091130,-7.2411194,-16.36676,0.56121826,-0.25057983,1.1457214,-0.25628662
1618,A,775455662445134,-0.7279358,-13.743546,-3.4098053,-0.14537048,0.86787415,-1.3069305
1618,A,775455712799138,2.3473969,-8.115097,-1.594986,-1.7685852,-5.3586884,-2.5896606
1618,A,775455763153142,2.2039185,-6.0175934,0.5261841,-0.756897,-3.943985,-1.2876587
1618,A,775455813507146,0.9772339,-6.2096405,-1.5392761,0.93984985,-0.18669128,0.8901062
1618,A,775455863861150,-6.611511,-5.296936,-5.6571503,0.7110748,2.0895233,0.38619995
1618,A,775455914215154,-16.757355,-8.881378,6.6817627,0.4015808,2.54216,0.89582825
1618,A,775455964569158,-9.887833,-4.284485,3.3655853,1.0806122,1.1242523,0.8034668
1618,A,775456014923161,-8.244202,-11.508957,2.497406,1.6977234,-1.0916748,-0.6757965
1618,A,775456065277165,-6.483551,-8.475433,0.5290375,0.59584045,-0.65245056,-1.4009094
1618,A,775456115631169,-1.876831,-4.1323547,-0.022781372,-0.58255005,-0.90167236,-1.6792755
1618,A,775456165985173,-2.7609253,-11.349304,-2.0561676,-0.98931885,-2.4895325,-2.003601
1618,A,775456216339177,-2.597229,-7.7427673,-1.777359,-0.09399414,-1.746933,-2.1681366
1618,A,775456266693181,-2.4958038,-6.847519,-2.3447418,-0.57754517,-1.6263885,-1.9805298
1618,A,775456317047185,-4.269333,-8.134399,-3.8339996,-0.2394867,0.2519989,-2.1109772
1618,A,775456367401189,-4.9230347,-7.671402,-2.0669098,-0.25115967,-0.5756073,-1.6147461
1618,A,775456417755193,-6.4996796,-7.8944244,-2.42688,-0.6682434,1.157608,0.2605896
1618,A,775456468109197,-7.9857635,-8.575531,-0.50183105,-0.25827026,3.1109009,4.912842
1618,A,775456518463201,-10.814484,-8.710495,-1.8860626,0.8352661,1.1638489,5.218994
1618,A,775456568817204,-13.714722,-8.510056,-2.783432,0.13529968,3.9006653,3.9389954
1618,A,775456619171208,-13.628769,-4.390091,16.209274,-2.0028687,-2.3235931,1.7563324
1618,A,775456669525212,-11.654541,-14.362396,3.5399323,-0.82185364,-1.5439911,0.35650635
1618,A,775456719879216,-10.825165,-18.98944,0.3406067,0.18560791,1.7856445,-0.12075806
1618,A,775456770233220,-0.035842896,-13.36496,-6.2436066,-0.010482788,1.0184937,-1.4375153
1618,A,775456820587224,4.6880493,-8.269653,-1.0415039,-3.0742035,-9.483887,-3.2251282
1618,A,775456870941228,3.8384705,-4.993103,0.29214478,-0.031066895,-1.6784668,-1.3478394
1618,A,775456921295232,2.8875122,-5.866028,-2.869629,0.54849243,0.143219,1.0040131
1618,A,775456971649236,-8.287994,-3.5494385,-2.0953827,0.020614624,3.0363007,-0.39909363
1618,A,775457022003240,-19.278595,-12.06778,7.573654,0.080444336,2.6618042,1.5242462
1618,A,775457072357244,-10.357452,-0.90289307,-3.3567657,1.1337585,1.813446,1.2563324
1618,A,775457122711247,-9.335892,-11.622986,2.2794647,2.3284302,-1.7967682,-1.0229492
1618,A,775457173065251,-9.927353,-10.684387,-0.8655548,0.7607727,-2.4513702,-1.4392395
1618,A,775457223419255,-0.031143188,-1.3791809,0.19476318,-1.1257477,-0.55229187,-1.476471
1618,A,775457273773259,-3.2907257,-13.096451,-2.3884583,-1.4833832,-1.6309509,-2.1940918
1618,A,775457324127263,-2.0825195,-6.844696,-2.975113,0.34880066,-1.246872,-2.2737274
1618,A,775457374481267,-2.2459412,-5.953491,-0.9240875,-0.1461792,-2.2695007,-1.910492
1618,A,775457424835271,-3.7991943,-8.026184,-3.0686493,-0.54603577,-0.5973358,-2.0880432
1618,A,775457475189275,-4.581711,-8.004929,-3.4124298,-1.1342316,-0.11668396,-1.031189
1618,A,775457525543279,-7.091156,-8.010468,-3.0787048,0.83335876,6.7148895,0.7421417
1618,A,775457575897283,-8.263351,-8.393158,-1.2166748,-0.20600891,1.887558,5.3185425
1618,A,775457626251286,-12.088867,-9.7686615,-1.9290161,1.3492737,2.9929962,4.4892426
1618,A,775457676605290,-12.660431,-8.116226,-0.7248535,-1.1727142,2.1882935,4.152359
1618,A,775457726959294,-9.417892,-6.893875,0.6511841,-1.338028,-3.2575226,1.7780457
1618,A,775457777313298,-10.014374,-15.372482,3.3555298,-0.57632446,-0.18702698,0.6539154
1618,A,775457827667302,-9.563675,-18.355453,-2.8818207,-0.11697388,1.9642181,-0.41044617
1618,A,775457878025707,0.15362549,-11.687515,-2.003601,-0.6246033,-1.4917755,-2.0854645
1618,A,775457928379711,2.5670013,-8.341736,-1.254364,-2.611847,-7.468231,-3.7124176
1618,A,775457978733715,3.8410034,-6.1032715,-1.3356018,0.3252411,-0.47453308,-1.4094391
1618,A,775458029087719,1.6042023,-5.331131,0.1887207,0.585022,1.2609711,0.39170837
1618,A,775458079441723,-8.337555,-7.999405,6.508194,-0.121292114,2.8488007,0.35977173
1618,A,775458129795727,-10.204849,-10.068497,-12.89119,0.23132324,2.0884705,1.9290924
1618,A,775458180149730,-11.501587,-4.0088806,-0.3370819,1.4768372,0.34199524,1.1813354
1618,A,775458230503734,-10.03154,-10.281525,0.9891815,2.078659,-2.1605988,-0.5621338
1618,A,775458280857738,-8.659103,-8.932953,-0.7374115,0.036849976,-0.43414307,-1.1696777
1618,A,775458331211742,-1.3298798,-4.5157013,-0.6193695,-1.265274,1.1340942,-1.5082397
1618,A,775458381565746,-2.3106537,-10.742142,-2.0426178,-0.13542175,-1.8729401,-2.0399933
1618,A,775458431919750,-1.1447754,-6.9785767,-1.9768677,0.190094,-2.3703613,-2.137329
1618,A,775458482273754,-2.4691467,-7.070709,-2.8237,-0.67318726,-1.3769989,-2.3657227
1618,A,775458532627758,-3.887207,-7.7243958,-3.5095825,-0.5846863,-0.08068848,-2.559906
1618,A,775458582981762,-4.8609314,-7.7158356,-3.0271912,-0.22265625,-0.3014984,-1.5422363
1618,A,775458633335766,-7.0992126,-8.900223,-2.4054718,-2.2888184E-4,2.0641174,1.5742645
1618,A,775458683689770,-8.888809,-8.817032,-1.1441956,0.53868103,4.679779,5.1238403
1618,A,775458734043773,-12.151886,-8.68364,-1.1283722,0.08206177,3.2794647,5.2588043
1618,A,775458784397777,-14.37204,-6.617462,5.431885,-1.1341248,0.9607086,3.2944489
1618,A,775458834751781,-14.774384,-8.5685425,11.454254,-1.7696075,-1.9571075,1.347702
1618,A,775458885105785,-12.512039,-17.184616,-0.4214325,-0.48841858,-0.119506836,0.26567078
1618,A,775458935459789,-5.353958,-16.96994,-1.2149811,-0.32554626,0.95132446,-0.5762329
1618,A,775458985813793,1.723465,-11.379272,-2.3965454,-2.1239166,-1.6933746,-2.0976105
1618,A,775459036167797,4.1562195,-6.752411,-0.5704956,-1.4883423,-3.037445,-2.7614288
1618,A,775459086521801,2.9019775,-4.556244,-0.72029114,0.2027893,-0.46791077,-1.1542969
1618,A,775459136875805,0.74879456,-5.380081,-0.032440186,0.24093628,1.703476,0.11810303
1618,A,775459187229809,-3.0907288,-8.174072,-7.1023254,0.1879425,2.7536316,0.78726196
1618,A,775459237583812,-12.148392,-8.697342,-11.527664,0.49394226,1.4146576,1.7322693
1618,A,775459287937816,-13.469223,-7.238159,1.8589783,1.5392151,-0.07775879,0.53619385
1618,A,775459338291820,-9.642212,-11.477432,1.500412,1.6235046,-1.9486237,-1.0572357
1618,A,775459388645824,-7.1004333,-9.27623,-1.9342804,-0.50579834,-1.1820679,-1.4927063
1618,A,775459438999828,-2.5720062,-7.9192657,-0.39712524,-1.2638092,-1.4356232,-1.8166656
1618,A,775459489353832,-2.3789673,-9.387299,-1.3078461,-0.37875366,-2.710968,-2.1460876
1618,A,775459539707836,-1.4764862,-7.272003,-2.5220795,-0.53559875,-2.2583618,-1.9730377
1618,A,775459590061840,-2.215744,-7.732483,-3.144394,-1.1160736,-0.47392273,-1.8786774
1618,A,775459640415844,-3.8364563,-7.8733063,-2.9833832,-0.6709442,0.3977661,-1.8566284
1618,A,775459690769848,-6.120178,-8.514725,-1.948822,-0.37471008,-0.8899536,-1.0576782
1618,A,775459741123852,-7.7541504,-8.49884,-1.58284,0.28431702,2.6196442,2.1022491
1618,A,775459791477855,-8.474121,-7.8164215,-0.16197205,0.68185425,3.8559265,5.624649
1618,A,775459841831859,-11.181763,-8.321091,-0.9664459,0.3165741,4.6138306,5.2589417
1618,A,775459892185863,-14.445587,-7.8470764,3.3952484,-1.6362915,-0.17984009,2.7233276
1618,A,775459942539867,-15.395874,-12.384628,3.5561523,-1.6794739,-1.9173279,0.9290161
1618,A,775459992893871,-10.583527,-17.527863,0.8526459,-0.17771912,0.36636353,0.3218994
1618,A,775460043247875,-3.7564392,-16.633743,0.43215942,-0.56427,1.9020233,-0.7548828
1618,A,775460093601879,1.6233063,-11.098404,-0.33113098,-2.007553,-2.4732819,-1.7776642
1618,A,775460143955883,2.463028,-6.6627655,0.17706299,-0.66789246,-2.3965302,-2.6451416
1618,A,775460194309887,2.7429504,-5.7305145,-0.19889832,0.3500061,-0.88427734,-0.8578949
1618,A,775460244663891,-2.1255798,-5.207855,6.0728455,-0.11035156,1.8452454,0.058670044
1618,A,775460295017895,-4.4888153,-7.265045,-11.625015,-0.43884277,1.7189941,0.5897522
1618,A,775460345371898,-15.616226,-8.016083,-1.6901398,-0.19607544,1.6031189,1.8647461
1618,A,775460395725902,-11.735168,-7.428116,1.1685486,1.559555,-0.47805786,-0.007873535
1618,A,775460446079906,-12.238144,-14.662384,-0.28884888,1.3785706,-2.2065735,-0.9129944
1618,A,775460496433910,-5.2347107,-6.058655,-0.15759277,0.3433838,-1.8816376,-1.243393
1618,A,775460546787914,-3.252182,-7.4415436,0.6569061,-0.9844208,0.17651367,-1.7161102
1618,A,775460597141918,-5.198578,-12.619064,-1.8280945,-0.5579834,-1.0351563,-2.0643005
1618,A,775460647495922,-1.9037323,-6.506714,-2.4731903,-0.008102417,-1.6329956,-2.0048523
1618,A,775460697849926,-3.8088531,-7.2094574,-2.6725464,-0.23327637,-0.89512634,-2.0105133
1618,A,775460748203930,-4.756668,-7.911377,-2.4641266,-0.52285767,-0.6803436,-2.1756592
1618,A,775460798557934,-5.9999237,-7.771469,-2.5770721,-0.9994049,-1.3438416,-1.0470428
1618,A,775460848911937,-7.2309875,-7.9097443,-2.3592072,1.4833069,7.613678,1.0112152
1618,A,775460899265941,-7.9753113,-7.939499,-1.203949,1.1721344,5.3421783,5.0595093
1618,A,775460949619945,-11.539383,-8.518967,-1.4010925,0.17903137,5.0615234,4.497055
1618,A,775460999973949,-14.910355,-8.763062,-0.54093933,-0.9949951,-1.2197266,3.0621948
1618,A,775461050327953,-12.628815,-9.768723,-3.5053864,-2.0129852,-1.53862,1.4091034
1618,A,775461100681957,-8.474106,-15.107895,2.2565002,-0.49993896,0.057998657,0.49952698
1618,A,775461151035961,-5.0162354,-16.151306,1.3369598,-0.45991516,1.9041595,-0.52575684
1618,A,775461201389965,0.19229126,-11.115753,-4.536438,-0.018966675,0.25250244,-1.6108551
1618,A,775461251743969,2.7902527,-6.8625336,-0.30368042,-2.8563843,-9.056366,-3.3385315
1618,A,775461302097973,2.958191,-5.9658966,-0.107666016,-0.19673157,-1.4729767,-1.0681915
1618,A,775461352451977,1.5723877,-6.191574,-0.4983368,0.08804321,0.42793274,0.5332489
1618,A,775461402805980,-9.083069,-6.12027,-2.172226,0.2552185,1.811554,0.31166077
1618,A,775461453159984,-19.615265,-11.684555,12.268402,0.5396881,2.0261078,1.701828
1618,A,775461503513988,-11.449661,-3.1224518,-3.1145782,1.5370789,0.67144775,0.9328308
1618,A,775461553867992,-11.695633,-12.814209,2.3821106,1.8621826,-0.9955902,-0.67752075
1618,A,775461604221996,-5.276657,-5.565979,-0.42451477,0.25050354,-1.6130219,-1.2360535
1618,A,775461654576000,-1.6826172,-4.2565765,0.26417542,-1.5360565,-0.45069885,-1.6245728
1618,A,775461704930004,-4.159195,-14.4711,-3.1016998,-0.45272827,-2.3156738,-2.2475739
1618,A,775461755284008,-0.48747253,-5.565445,-3.1166534,-0.115493774,-1.7499084,-2.1390686
1618,A,775461805638012,-2.4787903,-7.043686,-5.2842712,-0.94207764,-1.217926,-1.8811798
1618,A,775461855992016,-4.7112885,-8.339844,-2.3598175,-0.7621002,0.28556824,-2.009842
1618,A,775461906346020,-5.8650055,-8.595764,-2.2755432,-0.44511414,-0.57110596,-1.3097839
1618,A,775461956700023,-6.802292,-7.646454,-1.925354,-0.88549805,-0.2210083,0.4670868
1618,A,775462007054027,-8.650726,-8.68573,-0.9872284,1.0631561,5.201828,4.1137238
1618,A,775462057408031,-10.959869,-9.027512,-0.66560364,1.1604309,4.0547943,5.207321
1618,A,775462107762035,-12.254257,-7.651108,-0.055099487,0.11689758,4.5150757,3.6146545
1618,A,775462158116039,-14.826004,-8.619949,7.504318,-2.096115,-3.6032104,1.4949036
1618,A,775462208470043,-13.461853,-14.989288,-2.217865,-0.9741821,-1.185379,0.5241394
1618,A,775462258824047,-6.3470764,-16.567017,-0.9783478,-0.07965088,1.419632,-0.036758423
1618,A,775462309178051,0.038513184,-11.804382,-2.5032501,-1.1370544,1.7652588,-1.3998871
1618,A,775462359532055,1.8869019,-8.173416,-1.35112,-0.84384155,-2.7622375,-2.1514435
1618,A,775462409886059,2.1140442,-5.3328705,-0.35102844,-0.5692291,-2.7940826,-1.928772
1618,A,775462460240062,1.0499725,-5.70166,1.7680206,0.6130676,-0.39219666,0.101867676
1618,A,775462510594066,-3.5615845,-6.391403,5.0523376,0.7443695,2.5917664,0.081588745
1618,A,775462560948070,-9.952698,-6.827835,-13.780212,0.58154297,2.7472382,0.74420166
1618,A,775462611302074,-16.437439,-8.291809,3.7092743,1.0651093,2.4051208,0.918396
1618,A,775462661656078,-8.805405,-9.836258,0.63414,1.9528046,-0.34158325,-0.45135498
1618,A,775462712010082,-10.776062,-14.120331,0.15892029,1.2889557,-1.5212402,-0.9785614
1618,A,775462762364086,-2.2558746,-4.153061,0.063964844,-0.28500366,-1.9317169,-1.3122559
1618,A,775462812718090,-3.6042175,-9.789337,-0.19734192,-1.444107,-2.2604828,-1.9798737
1618,A,775462863072094,-3.379364,-9.444412,-2.0256195,-1.0720673,-2.2386475,-2.1761017
1618,A,775462913426098,-2.0574493,-5.836151,-2.319046,-0.24299622,-0.9620209,-1.8157196
1618,A,775462963780102,-3.842804,-7.9223633,-3.498642,-0.30633545,-0.83573914,-1.7902222
1618,A,775463014134105,-5.222412,-8.315063,-2.5465698,-0.6295624,-0.90541077,-1.802185
1618,A,775463064488109,-6.543289,-8.444946,-1.6708221,-0.043151855,2.2642365,0.12025452
1618,A,775463114842113,-7.7243195,-8.214554,-1.8012543,1.0608215,6.4216156,3.6307678
1618,A,775463165196117,-9.063126,-8.390915,-1.2370148,0.63204956,4.855667,5.1424713
1618,A,775463215550121,-13.437485,-9.542267,-1.4992828,-0.08073425,2.3946838,3.802475
1618,A,775463265904125,-14.276749,-10.405991,1.0258942,-1.5052795,-1.8701477,2.125763
1618,A,775463316258129,-8.718277,-12.269836,5.6347656,-0.98446655,-0.9535675,0.93266296
1618,A,775463366612133,-5.6647644,-16.125076,4.195465,-0.47209167,1.2453156,0.008239746
1618,A,775463416966137,-2.3144836,-14.26059,-2.678772,-0.5371094,1.1980286,-1.2624359
1618,A,775463467320141,1.2982178,-8.45401,-2.8633575,-1.1527252,-3.8199768,-2.539215
1618,A,775463517674145,2.347412,-6.0832825,-0.41253662,-1.2576599,-4.7744293,-1.8822937
1618,A,775463568028148,1.7897949,-6.5594025,1.0208893,0.115722656,-0.6720123,-0.07623291
1618,A,775463618382152,-4.25972,-6.0819855,-2.176712,0.388031,0.90249634,0.7078247
1618,A,775463668736156,-14.551331,-8.811081,2.6490936,0.5000763,1.8526917,1.482544
1618,A,775463719090160,-13.3433075,-7.2008057,6.881668,1.476471,1.2800446,0.47381592
1618,A,775463769444164,-11.90094,-10.859741,0.2074585,1.6099548,-0.8453827,-0.9663086
1618,A,775463819798168,-8.533142,-9.755096,0.3501892,0.38882446,-1.5942078,-1.1242218
1618,A,775463870152172,-2.8569489,-7.2207947,0.43154907,-0.7299347,-0.4484253,-1.4614868
1618,A,775463920506176,-3.8077545,-11.465515,-1.8092804,-0.9325409,-1.3221741,-2.0000458
1618,A,775463970860180,-2.4156494,-7.8056335,-2.5387573,-0.56381226,-1.9444275,-2.0653992
1618,A,775464021214184,-2.2219086,-5.8903656,-1.6290131,-0.56729126,-1.3011475,-1.8913269
1618,A,775464071568187,-3.9489746,-7.303055,-2.2270813,-0.54867554,-0.6663513,-1.91893
1618,A,775464121922191,-5.5829163,-8.33078,-2.2894287,-0.5784912,-1.047287,-1.4206085
1618,A,775464172276195,-7.0026245,-8.524139,-1.949173,0.6945343,4.179474,0.77015686
1618,A,775464222630199,-7.7207336,-8.402527,-0.8144989,1.0235901,5.2471924,4.4279633
1618,A,775464272984203,-10.281387,-8.812836,-0.5952759,0.4772644,5.006897,4.813339
1618,A,775464323338207,-13.003006,-7.709717,-0.99372864,-0.9213104,0.08534241,3.250122
1618,A,775464373692211,-14.943817,-10.021759,-1.5380096,-1.7926788,-1.8881073,1.4809875
1618,A,775464424046215,-10.169434,-14.449844,1.7374268,-0.4540863,-0.34220886,0.57377625
1618,A,775464474400219,-5.7157745,-16.098953,2.2624207,-0.59059143,1.9298248,-0.46772766
1618,A,775464524754223,-0.34080505,-12.446426,-3.6822205,-0.5489807,0.15086365,-1.7098694
1618,A,775464575108227,2.353897,-7.496933,-1.1242218,-1.9002991,-6.388092,-3.3631134
1618,A,775464625462230,3.2334747,-5.5758514,0.2894287,-0.32611084,-2.5916595,-1.4754028
1618,A,775464675816234,2.2698517,-6.3198547,-0.7932892,0.4593048,0.54556274,0.5867462
1618,A,775464726170238,-5.4128265,-6.203003,-10.189758,0.12361145,1.0880737,0.54307556
1618,A,775464776524242,-16.896393,-13.071091,11.44429,0.18203735,1.8199921,1.7916565
1618,A,775464826878246,-9.633728,-4.2456055,3.1316528,1.4216309,1.8817749,0.6031189
1618,A,775464877232250,-13.466431,-14.992828,0.24737549,1.476181,-0.87294006,-0.6877594
1618,A,775464927586254,-6.246231,-6.8252716,0.19032288,0.3972168,-2.3007507,-1.1138
1618,A,775464977940258,-3.4360504,-6.704071,0.89208984,-0.51553345,-0.7652588,-1.5664825
1618,A,775465028294262,-2.930481,-11.710129,-1.4203796,-0.7358856,-1.7085571,-2.2525787
1618,A,775465078648266,-1.0092773,-7.059372,-3.0656738,-0.57759094,-2.008072,-2.3837738
1618,A,775465129002270,-2.4446106,-6.0364685,-0.967865,-0.79644775,-1.4201508,-1.9775848
1618,A,775465179356273,-4.326477,-7.6739044,-2.2400818,-0.29606628,-0.048416138,-2.1131287
1618,A,775465229710277,-5.565689,-8.317825,-3.248993,-0.77297974,-1.3872375,-1.1070404
1618,A,775465280064281,-7.7072754,-8.702652,-2.5141602,1.484024,8.185318,1.0032959
1618,A,775465330418285,-8.029907,-7.785614,0.9349823,0.040740967,3.6508942,6.4799957
1618,A,775465380772289,-11.427032,-8.448914,-1.4054108,0.9850769,3.328186,4.5454865
1618,A,775465431126293,-13.748444,-7.893753,-1.2154388,-0.9182434,-0.12538147,2.6164093
1618,A,775465481480297,-10.385376,-8.417343,1.4508972,-2.3098145,-2.527176,1.0391388
1618,A,775465531834301,-7.6023254,-16.00447,3.7147064,-0.23007202,-0.8622284,0.18424988
1618,A,775465582188305,-7.137039,-18.594711,5.6496124,-0.37986755,2.3706665,-0.5839081
1618,A,775465632542309,1.8345337,-12.04866,-7.397064,0.05769348,0.53170776,-1.5184631
1618,A,775465682896312,2.6705933,-6.134369,0.06375122,-3.1059113,-9.137833,-3.3237762
1618,A,775465733250316,2.2750244,-5.72908,-0.40571594,-0.058883667,-1.555481,-0.855896
1618,A,775465783604320,1.4713287,-6.554123,-4.0603485,0.40805054,0.78456116,0.6311188
1618,A,775465833958324,-8.963394,-4.616211,-4.8148804,0.44566345,1.6262512,0.44795227
1618,A,775465884312328,-19.537231,-13.062073,11.442444,0.7436676,2.1815796,1.6313629
1618,A,775465934666332,-9.961853,-3.3572998,-1.8685455,1.8166962,0.54545593,-0.3230896
1618,A,775465985020336,-12.35199,-13.87468,0.8335724,1.3688507,-0.9775543,-0.9199524
1618,A,775466035374340,-3.6946564,-4.2378235,-0.12487793,-0.0074768066,-1.7715759,-1.1596832
1618,A,775466085728344,-2.8407288,-8.734619,-0.095062256,-0.87667847,-0.05480957,-1.4896088
1618,A,775466136082348,-4.7045746,-11.965454,-1.3178864,-0.37121582,-0.8211212,-2.0268097
1618,A,775466186436352,-2.0422668,-5.405258,-1.1611328,0.19224548,-1.4907379,-2.096466
1618,A,775466236790355,-3.4257813,-7.15094,-2.7290802,-0.37698364,-1.5959167,-2.0269623
1618,A,775466287144359,-4.629593,-8.43277,-2.137848,-0.46643066,-0.16409302,-2.4991455
1618,A,775466337498363,-5.2770233,-7.742462,-3.0950928,-0.8523712,-1.04245,-1.6413269
1618,A,775466387852367,-6.7312775,-8.089767,-2.7093353,-1.3034363,1.9918365,2.1048584
1618,A,775466438206371,-8.779373,-8.985153,-1.7613068,0.36439514,6.220627,5.763321
1618,A,775466488560375,-11.556107,-9.18811,-1.8981781,0.6749573,3.6990662,4.371643
1618,A,775466538914379,-15.429642,-9.159271,1.2009277,-0.9839325,-1.7238312,3.1217194
1618,A,775466589268383,-10.635254,-5.5369873,14.914642,-1.7111206,-2.913208,1.5883026
1618,A,775466639622387,-9.89743,-15.963028,-2.5792236,-0.25704956,-0.28530884,0.5248413
1618,A,775466689976391,-5.6046753,-17.628723,0.47979736,0.059310913,2.6324463,-0.40821838
1618,A,775466740330395,1.1602936,-9.925369,-5.607788,-0.7131958,-1.2865295,-2.2637024
1618,A,775466790684398,2.6471863,-6.0140076,-0.09233093,-2.4806213,-8.450516,-3.1648407
1618,A,775466841038402,2.8543396,-6.066391,0.13145447,-0.33525085,-0.9139404,-0.69088745
1618,A,775466891392406,1.179184,-5.6101074,-2.590042,0.2472992,0.8593292,1.0178375
1618,A,775466941746410,-9.745926,-7.599869,3.9696503,0.4441986,1.5511627,1.4234314
1618,A,775466992100414,-16.73227,-11.725052,13.367065,1.1160736,1.4993896,1.6342163
1618,A,775467042454418,-10.332733,-5.357712,-0.78027344,1.5206604,-0.5444336,-0.42974854
1618,A,775467092808422,-10.342361,-10.9913025,0.86886597,0.48980713,-2.1935883,-1.0711517
1618,A,775467143162426,-3.8726654,-5.79335,0.3070221,-0.434906,-1.4542694,-1.4127197
1618,A,775467193516430,-3.700348,-10.2655945,-2.1424408,-0.5950165,-0.07221985,-1.9010925
1618,A,775467243870434,-2.682495,-10.497162,-4.6032104,-0.1751709,-0.5615082,-2.183731
1618,A,775467294224437,-1.9573059,-5.292053,-1.3962402,-0.21955872,-1.3073273,-2.098816
1618,A,775467344578441,-3.7845001,-7.1596375,-2.1558838,-0.49909973,-0.97592163,-2.194458
1618,A,775467394932445,-5.6117554,-8.079849,-2.401703,-0.42053223,-0.8640747,-2.0269318
1618,A,775467445286449,-5.992111,-7.5440826,-2.5310059,-0.053634644,2.5985565,-0.09265137
1618,A,775467495640453,-6.976715,-7.685913,-1.779602,-0.02607727,6.4788666,3.7666626
1618,A,775467545994457,-10.028687,-8.999619,-1.5034943,0.047912598,4.5368195,5.284317
1618,A,775467596348461,-14.63205,-9.924988,-1.5371246,-0.2341156,0.73446655,3.73172
1618,A,775467646702465,-12.38382,-9.708313,7.1242523,-1.5463104,-3.5862427,2.4945984
1618,A,775467697056469,-7.6792297,-12.025528,8.330017,-0.5054321,-2.184082,1.7377319
1618,A,775467747410473,-7.4763794,-16.289291,-2.8452148,-0.18693542,1.5661774,0.043914795
1618,A,775467797764477,-2.4562225,-13.727646,-3.004486,-0.42138672,1.0303345,-1.6681366
1618,A,775467848118480,1.3283844,-8.30072,-2.6094513,-0.8039093,-2.987152,-2.928711
1618,A,775467898459520,4.1258698,-6.4148254,-0.059020996,-0.8972473,-3.084076,-2.0459442
1618,A,775467948813524,2.9201813,-7.478821,-1.5279083,0.055618286,-0.28204346,-0.20085144
1618,A,775467999167528,-2.547882,-6.4395447,-11.606766,0.2541046,1.160492,0.50775146
1618,A,775468049521532,-13.187134,-9.125198,-3.3287354,0.45422363,1.9972534,1.4064331
1618,A,775468099875536,-12.942551,-7.965439,4.8947754,1.3732758,1.1367645,0.44293213
1618,A,775468150229540,-11.645615,-11.833954,0.22021484,1.7844391,-1.2091064,-0.9537811
1618,A,775468200583544,-7.651306,-9.167465,0.53034973,0.6010437,-2.09375,-1.1268768
1618,A,775468250937548,-3.1021118,-6.493408,0.7359619,-1.0453949,-0.59391785,-1.3733063
1618,A,775468301291552,-4.182434,-10.723465,-1.0429382,-1.2177887,-0.33770752,-1.870758
1618,A,775468351645556,-2.422226,-7.397156,-1.943039,-0.28790283,-1.3321228,-1.8542786
1618,A,775468401999559,-3.0760498,-5.971573,-1.8184357,-0.3430786,-1.714508,-1.8802643
1618,A,775468452353563,-4.2720795,-7.551895,-2.5745544,-0.38502502,-0.66441345,-2.2509766
1618,A,775468502707567,-5.515503,-8.417618,-2.0996552,-0.7976532,-1.447525,-1.6942291
1618,A,775468553061571,-7.02124,-8.430191,-2.4284515,0.719223,5.6848297,0.7423248
1618,A,775468603415575,-7.3861847,-7.8636475,-0.3531952,1.33815,6.08815,5.073166
1618,A,775468653769579,-11.125,-8.918442,-0.9866333,0.3072052,2.7214355,5.5082855
1618,A,775468704123583,-14.380463,-8.03392,-0.62705994,-0.43829346,-0.10115051,3.1894073
1618,A,775468754477587,-14.688599,-10.610672,-1.8509064,-1.9113464,-2.1775208,1.2989655
1618,A,775468804831591,-10.536819,-16.365173,-3.6769867,0.13278198,-1.5298462,0.40794373
1618,A,775468855185595,-6.1452026,-18.117035,0.8412628,-0.74653625,1.7522888,-0.7423096
1618,A,775468905539598,-0.4008026,-13.070053,-3.576477,-1.7268219,-2.0868835,-2.2071838
1618,A,775468955893602,3.2682037,-6.9222565,-1.9228973,-0.6047363,-1.9494324,-3.207306
1618,A,775469006247606,3.748886,-5.397232,-0.44558716,0.3319702,-1.1728821,-0.8100128
1618,A,775469056601610,2.191742,-6.1647644,-0.07835388,-0.6298523,1.3398895,0.124420166
1618,A,775469106955614,-3.184311,-7.127487,-15.404175,-0.6212921,2.0986328,1.1900177
1618,A,775469157309618,-16.602005,-10.573624,1.4122162,0.38787842,1.9155273,2.3401031
1618,A,775469207663622,-10.53923,-7.1164703,0.46961975,2.1058197,-0.16526794,-0.093048096
1618,A,775469258017626,-11.697235,-12.266357,-0.5699768,1.1986694,-1.5953369,-1.091095
1618,A,775469308371630,-3.8409424,-4.7471313,0.7741699,0.0064849854,-2.0170593,-1.4280548
1618,A,775469358725634,-2.5833282,-10.518784,-0.6897125,-0.749115,-0.9100342,-1.7685089
1618,A,775469409079638,-1.9898071,-8.557892,-3.5891876,-0.4868927,-0.36082458,-2.085785
1618,A,775469459433641,-2.0144348,-5.511566,-2.6293335,0.055358887,-1.3196869,-2.0188751
1618,A,775469509787645,-3.74617,-6.945587,-1.7160797,-0.16227722,-1.0784149,-1.8445587
1618,A,775469560141649,-5.3746033,-8.136642,-3.081604,-0.32788086,-0.80599976,-1.9192505
1618,A,775469610495653,-6.373871,-7.985214,-2.67482,-1.2433014,-1.4196167,-1.5473175
1618,A,775469660849657,-7.93779,-7.936264,-3.1425781,1.2021179,9.761108,1.5476074
1618,A,775469711203661,-8.415237,-7.952011,-0.8678589,0.17199707,3.774887,7.072098
1618,A,775469761557665,-11.392838,-7.8798523,-1.533783,0.02633667,4.9362793,4.5692596
1618,A,775469811911669,-15.619553,-8.685425,-0.534729,-2.096161,-3.0683136,2.7278137
1618,A,775469862265673,-14.402145,-12.564529,-2.0027008,-1.7843628,-2.0650024,0.7797394
1618,A,775469912619677,-6.1564636,-17.038177,6.189041,1.0325775,0.36917114,0.6743927
1618,A,775469962973681,-3.2888489,-16.720337,-1.0677032,-1.1181183,3.4415283,-0.87638855
1618,A,775470013327684,1.8946686,-9.173828,-3.940796,-1.2665405,-3.3253021,-2.3128662
1618,A,775470063681688,2.119339,-5.5613403,0.67315674,-1.0682373,-3.0933228,-3.005188
1618,A,775470114035692,3.2566528,-5.890457,0.065093994,0.2027893,-0.49105835,-0.23010254
1618,A,775470164389696,-0.13847351,-6.3913116,8.284775,0.054534912,2.2318115,0.2758026
1618,A,775470214743700,-5.801712,-6.095688,-18.51509,0.089401245,2.459793,1.3221741
1618,A,775470265097704,-19.123993,-9.292343,7.842331,0.716568,3.0850983,2.0323792
1618,A,775470315451708,-8.982681,-7.0114136,0.2632904,2.1314545,-0.07833862,-0.6307831
1618,A,775470365805712,-13.880234,-16.717163,0.116744995,1.163147,-2.199524,-1.484375
1618,A,775470416159716,-1.7967682,-3.0480042,0.64071655,0.10031128,-2.6477509,-1.4109192
1618,A,775470466513720,-3.8697662,-11.163406,0.31526184,-1.0078125,-1.8529358,-1.9895172
1618,A,775470516867723,-3.4222412,-10.763428,-3.4477081,-0.8803253,-0.7386322,-2.0597076
1618,A,775470567221727,-1.6957245,-4.760437,-1.873642,-0.08340454,-1.2964478,-2.1082916
1618,A,775470617575731,-3.9916992,-7.167816,-2.4661407,-0.005508423,-0.8736267,-1.9845123
1618,A,775470667929735,-6.1772156,-8.954971,-3.4179535,-0.55462646,-1.2730865,-1.7224579
1618,A,775470718283739,-6.252533,-8.164108,-1.3348083,-1.0815277,0.6539459,0.05404663
1618,A,775470768637743,-8.304947,-8.191284,-2.7109222,1.0410004,7.4906006,2.9386597
1618,A,775470818991747,-9.227402,-8.038834,-1.0565033,0.6840668,4.2521515,5.56308
1618,A,775470869345751,-14.234268,-9.395615,-1.5071716,-0.40075684,2.75354,3.8764954
1618,A,775470919699755,-14.817154,-9.097748,-0.43829346,-1.8470001,-2.4069672,2.0133514
1618,A,775470970053759,-12.772034,-13.6662445,-3.602127,-1.2455292,-1.1707153,0.7264252
1618,A,775471020407763,-6.710739,-15.924881,-0.08428955,-0.1620636,1.1697693,0.060455322
1618,A,775471070761766,-3.1630402,-13.892883,-1.6521149,-1.0227661,0.82662964,-1.2876282
1618,A,775471121115770,2.071289,-9.013428,-3.090454,-1.279892,-2.865265,-2.3192596
1618,A,775471171469774,3.0060577,-5.404312,0.004333496,-0.39549255,-2.20932,-1.7836304
1618,A,775471221823778,1.3309479,-6.1177826,1.893219,0.18721008,-0.17733765,0.201828
1618,A,775471272177782,-3.3705597,-6.886612,-0.41819763,0.18759155,1.873352,0.76379395
1618,A,775471322531786,-10.656845,-7.4284973,-12.008362,0.6558533,2.5054016,1.5821533
1618,A,775471372885790,-17.290009,-8.217621,3.1935425,1.2299347,1.370224,0.7011566
1618,A,775471423239794,-10.788849,-9.630157,0.10215759,1.3185883,-0.6882019,-0.9246979
1618,A,775471473593798,-6.2046356,-7.449112,0.56573486,0.64256287,-1.798523,-1.2962952
1618,A,775471523947802,-2.706421,-7.841461,-0.08673096,-0.12226868,-2.8713226,-1.8041687
1618,A,775471574301806,-2.195465,-11.088882,-1.9252472,-0.76275635,-1.853302,-2.067215
1618,A,775471624655809,-1.1804047,-6.12175,-2.396347,-0.7405548,-0.5194702,-2.187973
1618,A,775471675009813,-2.9636536,-6.6007233,-2.2261047,-0.30639648,-0.664917,-1.8115082
1618,A,775471725363817,-4.8424683,-7.5886993,-1.8581848,-0.2727356,-0.85935974,-1.4816284
1618,A,775471775717821,-6.6885986,-8.185623,-1.7772827,-0.46316528,-0.9405365,-1.2211914
1618,A,775471826071825,-7.37973,-7.8229218,-2.1813965,0.09223938,3.0688171,0.2821808
1618,A,775471876425829,-7.8337708,-7.4632874,-1.5316467,0.7426758,6.0996246,3.6957397
1618,A,775471926779833,-9.621613,-8.201843,-1.1704559,0.6067352,4.5889893,5.082428
1618,A,775471977133837,-12.119659,-8.336029,-2.0782623,-0.4455719,1.7518005,3.1398468
1618,A,775472027487841,-11.108322,-8.053787,1.8884583,-1.7169342,-1.9661255,1.7148132
1618,A,775472077841845,-8.629211,-12.008087,5.8019714,-0.8643799,-1.4820251,0.8950653
1618,A,775472128195848,-6.5481415,-17.538498,4.860016,-0.14552307,0.86672974,0.10380554
1618,A,775472178549852,-1.974472,-14.387711,-0.8207092,0.062423706,1.7987976,-0.95462036
1618,A,775472228903856,1.4796448,-7.575363,-2.205902,-1.6734924,-4.894272,-2.423584
1618,A,775472279257860,2.276947,-5.691452,-0.36795044,-1.500061,-5.3498535,-1.8434448
1618,A,775472329611864,1.6893921,-6.159439,-1.6990051,0.34568787,-1.0008545,0.42565918
1618,A,775472379965868,-3.846405,-5.481415,-3.2737885,0.77474976,0.90626526,0.50868225
1618,A,775472430319872,-14.660324,-8.932037,8.19841,0.76568604,2.0503693,0.70158386
1618,A,775472480673876,-13.001465,-5.2937927,6.4237213,1.3875275,2.093399,1.0037994
1618,A,775472531027880,-9.996841,-9.111618,0.96806335,2.4892883,-1.1440735,-0.3499756
1618,A,775472581381884,-8.301071,-10.194595,0.9163513,0.73872375,-2.3978271,-1.1413422
1618,A,775472631735888,-2.333786,-4.556717,0.20535278,-1.8031158,-0.49954224,-1.295578
1618,A,775472682089891,-2.0255127,-8.719833,-0.3199463,-1.3901062,-0.86073303,-1.9913635
1618,A,775472732443895,-2.342163,-8.718475,-0.7839203,0.1572113,-1.403305,-2.210373
1618,A,775472782797899,-3.1002808,-6.703171,-3.050888,-0.04710388,-1.4015045,-1.865509
1618,A,775472833151903,-4.2817993,-7.538925,-2.485382,-0.42964172,-0.42922974,-1.9575958
1618,A,775472883505907,-5.202057,-8.081039,-1.2289734,-0.30667114,-0.3340454,-1.7349396
1618,A,775472933859911,-6.0783844,-7.6758575,-1.8365784,-1.1597137,-1.566391,-0.51246643
1618,A,775472984213915,-7.931534,-8.702133,-1.8816223,0.23103333,4.4902954,3.7758636
1618,A,775473034567919,-10.193359,-9.216064,-1.1411285,1.1529388,3.4519806,5.126541
1618,A,775473084921923,-11.847382,-8.182556,-1.4104767,1.5813293,3.157364,4.3476715
1618,A,775473135275927,-15.070435,-8.49881,1.0495911,-2.1337433,-2.7681122,2.3100739
1618,A,775473185629931,-12.509705,-12.322266,-2.644287,-0.36431885,-2.0020447,1.051117
1618,A,775473235983934,-9.197479,-17.982635,6.038513,0.07598877,1.1248322,-0.3978424
1618,A,775473286337938,-2.523468,-15.038208,-0.42922974,-0.2587433,1.8557434,-1.5714874
1618,A,775473336691942,3.0935974,-10.2140045,1.1863403,-2.670456,-7.5993805,-3.4525604
1618,A,775473387045946,5.9774323,-5.627884,-0.86346436,-0.4356842,-1.8132172,-2.436081
1618,A,775473437399950,2.9067078,-6.218979,-3.0774841,-0.12669373,-0.34284973,0.07878113
1618,A,775473487753954,-6.9989166,-3.8362274,4.838806,-0.3892212,0.46652222,0.63764954
1618,A,775473538107958,-13.911087,-11.27066,-3.670395,0.0382843,1.7583618,2.098236
1618,A,775473588461962,-13.8350525,-5.099472,-3.800232,1.0852661,0.892395,1.143158
1618,A,775473638815966,-13.899979,-11.457779,-0.4280548,1.1003418,-1.3861084,-1.0788879
1618,A,775473689169970,-5.3611603,-5.425812,0.095581055,0.17070007,-1.4516449,-1.3178711
1618,A,775473739523973,-3.579071,-6.044464,0.052627563,-0.43107605,-1.6558533,-1.9332733
1618,A,775473789877977,4.5927124,-12.347977,-3.9670868,-0.41990662,-1.0292816,-2.1122437
1618,A,775473840231981,-1.2362213,-6.463211,0.21464539,-0.10543823,0.34005737,-2.164383
1618,A,775473890585985,-1.6638031,-6.1298065,-2.4121094,-0.36569214,-1.0159149,-1.8968658
1618,A,775473940939989,-5.386505,-8.041458,-1.4786072,0.31663513,-0.72088623,-2.4354553
1618,A,775473991293993,-6.6251373,-8.256073,-1.5833893,0.34796143,-1.8875122,-2.027359
1618,A,775474041647997,-7.132263,-7.990799,-2.4347076,-2.1762238,-1.1263885,2.1583252
1618,A,775474092002001,-8.081589,-7.800583,-1.3847961,0.6766205,12.005585,5.8156433
1618,A,775474142356005,-10.069244,-7.933441,-1.9389648,1.8361206,4.3131866,3.9845276
1618,A,775474192710009,-16.658539,-9.840042,-2.5460358,-1.9238739,-0.8564911,2.3361664
1618,A,775474243064013,-16.131943,-10.948486,5.700577,-2.176651,-4.0855255,1.5208435
1618,A,775474293418016,-9.705154,-15.777267,-8.331009,0.31910706,-1.9814148,0.4857483
1618,A,775474343772020,-8.24173,-19.162628,3.2319489,-0.38970947,1.9694977,0.034454346
1618,A,775474394126024,0.19668579,-9.891037,-7.4454803,-1.4943237,4.8600616,-1.802002
1618,A,775474444480028,1.5211029,-6.1027985,0.029251099,-1.9619293,-8.029251,-2.8044891
1618,A,775474494834032,1.8213959,-5.2483063,-0.02734375,-0.4133606,-2.159851,-1.2540436
1618,A,775474545188036,2.1036987,-5.6265564,-2.3308716,-0.052963257,-1.7769928,0.16404724
1618,A,775474595542040,-10.602844,-6.776993,15.4279785,0.07797241,-0.29797363,-0.04020691
1618,A,775474645896044,-18.639877,-10.431656,2.8108368,0.34716797,0.5736084,1.5727692
1618,A,775474696250048,-8.52887,-2.1137695,-3.1235504,1.2741241,1.5210419,1.4396667
1618,A,775474746604052,-11.344223,-11.881836,4.0588226,1.0575104,-1.7670135,-1.2527161
1618,A,775474796958056,-11.608826,-11.677612,-0.29638672,0.08468628,-0.431015,-1.5501251
1618,A,775474847312059,0.4537964,-2.015152,-0.20170593,-0.42410278,0.5523987,-1.886795
1618,A,775474897666063,-1.5653076,-12.167755,-1.4544678,-0.32389832,-0.9108124,-2.3598022
1618,A,775474948020067,-3.0372467,-8.901657,-1.2986145,-0.9206238,-1.3140717,-1.8927155
1618,A,775474998374071,-2.1545715,-5.0352936,-2.2787323,-1.0965729,-0.32310486,-1.9099884
1618,A,775475048728075,-5.55986,-7.4792023,-2.5541077,0.12371826,0.43460083,-2.5363617
1618,A,775475099082079,-7.349121,-8.986053,-2.5316925,0.6064606,-0.7822418,-1.482666
1618,A,775475149436083,-6.79451,-7.5058136,-0.64933777,-0.32644653,2.2951355,1.7842865
1618,A,775475199790087,-8.045746,-7.639786,-0.37882996,0.76649475,6.621826,5.565613
1618,A,775475250144091,-11.679932,-8.313538,-0.8716278,0.42686462,2.8173828,4.536682
1618,A,775475300498095,-15.282654,-8.779343,3.2332458,-1.733017,2.2579346,2.8736115
1618,A,775475350852098,-13.111984,-9.224686,12.059113,-1.8800507,-2.747818,1.0840454
1618,A,775475401206102,-11.515793,-17.068176,-4.6656647,-0.38368225,-0.77975464,-0.122406006
1618,A,775475451560106,-6.680435,-16.983215,0.022857666,-0.0042266846,1.1009369,-0.6210022
1618,A,775475501914110,3.0750885,-9.889847,-1.3393097,-1.7480164,-3.4186401,-2.3054504
1618,A,775475552268114,3.597824,-6.40683,-0.12957764,-2.0064087,-6.8289337,-2.9746552
1618,A,775475602622118,3.4982452,-4.4900208,-0.2950592,0.29760742,0.9473877,-0.9195404
1618,A,775475652976122,-2.2925873,-5.273178,3.9690857,-0.38204956,1.0678864,0.48233032
1618,A,775475703330126,-14.766281,-9.931778,7.274292,-0.51956177,1.8835297,1.3516693
1618,A,775475753684130,-16.29184,-11.832214,-3.8496246,0.42062378,1.2976379,1.8187103
1618,A,775475804038134,-11.41832,-6.8688965,-1.993393,1.328064,-1.0163269,-0.021911621
1618,A,775475854392138,-9.820999,-9.708313,0.47969055,0.96429443,-2.1944733,-1.0885773
1618,A,775475904746141,-4.5193787,-6.1664276,0.24150085,-0.19163513,-1.9192047,-1.2237396
1618,A,775475955100145,-0.79878235,-8.617935,-0.7649994,-0.49005127,0.0065460205,-1.927063
1618,A,775476005454149,0.93325806,-8.989655,-0.5341339,0.023025513,0.5148163,-2.0215912
1618,A,775476055808153,-2.6132202,-6.316803,-2.3759613,0.017608643,-0.86564636,-2.1101685
1618,A,775476106162157,-3.660019,-7.155258,-2.9458618,-0.20471191,-1.3052368,-2.4417877
1618,A,775476156516161,-5.984009,-8.31015,-0.9544525,-0.6279297,-1.576828,-2.1276245
1618,A,775476206870165,-6.203598,-7.651306,-2.2781677,-1.0799408,1.283081,-0.6847534
1618,A,775476257224169,-7.1876373,-7.4791718,-2.0753632,-0.5929718,6.0789948,3.1467285
1618,A,775476307578173,-10.214218,-8.873138,-1.5790405,0.97598267,5.0432434,5.3107147
1618,A,775476357932177,-13.210388,-9.060837,-1.0218964,-0.08711243,1.7913208,3.795929
1618,A,775476408286181,-11.35437,-5.8875732,9.783142,-1.8574982,-2.5204468,2.2655182
1618,A,775476458640184,-9.716583,-10.024048,9.129669,-0.88505554,-5.2085876,1.2124481
1618,A,775476508994188,-9.534485,-17.733627,0.59288025,-0.36289978,-2.0473633,0.33491516
1618,A,775476559348192,-2.5430145,-15.111481,-0.8535614,-2.151474,4.644165,-0.8801575
1618,A,775476609702196,2.1901398,-8.524887,-2.0645142,-2.0323944,-1.9903717,-3.3312225
1618,A,775476660056200,2.8783875,-5.3301544,-0.42836,-0.5669708,-3.593567,-2.6929321
1618,A,775476710410204,2.3883667,-5.5555725,-1.1999207,-0.4993286,1.302124,-0.6270447
1618,A,775476760764208,-0.89601135,-5.7473755,7.3632355,-0.4557953,1.0170593,0.5933838
1618,A,775476811118212,-9.799438,-11.969299,-1.0976105,-0.07498169,0.21351624,1.6539154
1618,A,775476861472216,-9.312485,-6.7289124,-5.863907,0.7852478,-0.839859,1.5644989
1618,A,775476911826220,-14.443939,-12.701752,-0.3227539,2.307129,-4.847519,0.7308197
1618,A,775476962180223,-9.063904,-9.11496,-0.15176392,-0.5417938,2.9895477,-1.3064575
1618,A,775477012534227,-1.4865417,-2.3846283,0.10708618,-0.8721161,5.534088,-1.4756165
1618,A,775477062888231,0.69914246,-6.2881775,-5.865158,1.1790924,-0.77149963,-2.2427673
1618,A,775477113242235,-0.35154724,-8.647186,-2.7424774,0.26255798,-4.4791718,-2.6707153
1618,A,775477163596239,-0.7926941,-6.7730255,-0.91482544,-2.449646,-2.161911,-2.5816193
1618,A,775477213950243,-3.0656738,-7.1176453,-2.420929,-0.7211609,2.2664185,-2.9819946
1618,A,775477264304247,-5.4166107,-9.15686,-4.1123047,1.4160919,-0.10499573,-1.7313995
1618,A,775477314658251,-8.082581,-10.520538,-2.3545227,1.2981567,3.4046173,2.1529846
1618,A,775477365012255,-8.457382,-8.423309,1.2272491,0.5924835,2.965561,6.7953644
1618,A,775477415366259,-12.567078,-8.771698,-1.146637,0.31330872,1.601181,5.7413177
1618,A,775477465720263,-17.939133,-8.685684,-1.3600006,-1.5056152,2.7160492,3.0455475
1618,A,775477516074266,-14.805405,-12.022614,3.4459534,-1.6701508,-1.7320099,0.9798889
1618,A,775477566428270,-9.741394,-17.194809,-1.5663147,-0.39196777,-0.7244568,0.16505432
1618,A,775477616782274,-6.3485413,-18.618973,2.7810364,-0.431427,2.1509094,-0.7379303
1618,A,775477667136278,7.9867706,-11.533264,-1.0450134,-1.6132507,-2.5930176,-2.556076
1618,A,775477717490282,5.726471,-6.834427,-1.591217,-0.9590759,-2.3879242,-2.9944
1618,A,775477767844286,2.3977814,-5.2822113,0.16609192,0.10054016,-0.44963074,-0.6257019
1618,A,775477818198290,1.155365,-7.3016815,0.14199829,-0.68807983,0.50149536,0.066726685
1618,A,775477868552294,-3.740631,-7.299988,-17.002747,-0.09384155,3.3947601,1.031662
1618,A,775477918918586,-17.814468,-7.852112,6.9769135,0.31752014,1.2258606,4.6855927
1618,A,775477969272590,-14.011169,-9.454559,1.2009125,0.96621704,-2.151886,-0.42793274
1618,A,775478019626594,-9.417816,-8.480576,0.023468018,0.71595764,-1.0569458,-1.3735962
1618,A,775478069980597,-3.1510773,-3.9360962,0.7587738,0.17951965,-0.0315094,-1.1690826
1618,A,775478120334601,-3.0363464,-13.251862,-2.677536,-0.032318115,-0.88386536,-2.0930634
1618,A,775478170688605,-0.6746826,-7.766037,-1.4020386,-0.22793579,-2.2748718,-2.3718872
1618,A,775478221042609,-1.5869751,-5.54158,-1.9609222,-0.57917786,-1.0227356,-2.4617157
1618,A,775478271396613,-4.0144806,-7.500046,-2.7019958,-0.78300476,-0.5011902,-2.185852
1618,A,775478321750617,-5.712204,-8.128632,-3.2616577,-0.5023346,-0.2589569,-1.6018982
1618,A,775478372104621,-6.8420563,-8.274521,-2.0662994,-0.8867035,-1.0227966,-0.6619568
1618,A,775478422458625,-7.9239197,-7.925537,-1.4489136,2.3783722,7.6304626,0.8166809
1618,A,775478472812629,-10.442596,-8.847244,-1.8126068,2.087082,5.8984833,5.036026
1618,A,775478523166633,-11.90239,-7.8630676,-1.7608337,-0.26159668,2.632782,4.541168
1618,A,775478573520636,-12.576462,-7.3324585,-0.87461853,0.13204956,-1.1632385,2.3168335
1618,A,775478623874640,-12.770401,-9.431641,-4.584961,-2.4302673,-2.3586426,1.0460968
1618,A,775478674228644,-7.7978363,-15.499313,3.1314697,-0.71939087,-1.9656372,0.05142212
1618,A,775478724582648,-6.0708313,-17.40303,5.588043,0.25891113,0.51286316,-0.32658386
1618,A,775478774936652,-3.609085,-11.521637,-5.850769,-1.6223297,3.4276276,-1.7130737
1618,A,775478825290656,1.4840851,-5.934326,-1.1282196,-0.8903351,-5.53981,-3.327011
1618,A,775478875644660,0.50593567,-6.3597565,-0.41685486,-0.19593811,-1.1875763,-0.8115082
1618,A,775478925998664,0.26057434,-7.3458557,-2.8961334,-0.122787476,1.0782471,0.8796234
1618,A,775478976352668,-3.4638977,-6.43248,0.18197632,0.4726715,1.6964264,1.5910187
1618,A,775479026706672,-13.244125,-9.837433,-14.102768,0.8618469,2.0071106,2.1493683
1618,A,775479077060676,-14.01239,-6.722595,-1.228836,1.2389069,-1.0526581,-0.19833374
1618,A,775479127414679,-13.113373,-12.47551,1.4114685,0.830307,-1.0253754,-1.1274719
1618,A,775479177768683,-1.9849854,-3.4893188,0.8243408,-0.09442139,-1.7154083,-1.446228
1618,A,775479228122687,-5.293289,-10.173569,-1.532074,-0.32754517,-1.3603058,-2.1904907
1618,A,775479278476691,-3.124878,-10.571564,-3.015686,-0.29792786,-0.7696686,-2.180603
1618,A,775479328830695,-2.4279938,-5.6887207,-1.1938782,-0.37989807,-0.4844513,-1.8690186
1618,A,775479379184699,-4.4634857,-7.643814,-2.22995,-0.45254517,-0.15423584,-1.3825684
1618,A,775479429538703,-6.94664,-8.086456,-1.2264862,0.07215881,0.26660156,-0.8705902
1618,A,775479479892707,-7.515793,-7.8537292,-2.5110474,0.42684937,-0.7497864,-0.639801
1618,A,775479530246711,-7.4001923,-6.732895,-1.5841827,0.933548,2.0233002,-0.024276733
1618,A,775479580600715,-8.253708,-7.126816,-1.163208,1.825943,7.8235016,2.1179352
1618,A,775479630954719,-9.06485,-7.259552,-0.73013306,0.66897583,4.423996,4.345215
1618,A,775479681308722,-10.209,-7.2248535,-1.4080048,-0.11897278,3.2851257,2.2807617
1618,A,775479731662726,-9.378952,-6.8082275,-1.2161102,-2.3115692,-2.5840454,0.9636841
1618,A,775479782016730,-8.371506,-9.96788,-1.2221069,-2.3154755,-3.1316223,0.28526306
1618,A,775479832370734,-7.9118347,-14.205124,1.074173,-0.52908325,-1.8468323,-0.06100464
1618,A,775479882724738,-2.8909607,-11.845139,0.5793457,0.26164246,0.70869446,-0.3065796
1618,A,775479933078742,-1.7610626,-7.5001526,-3.1312714,-0.8538208,3.2293854,-1.4050446
1618,A,775479983432746,-1.4457855,-6.195877,-0.7390442,-0.6806183,0.39500427,-2.2945862
1618,A,775480033786750,-1.4024506,-5.996414,-0.30752563,0.16621399,-3.5746002,-1.0650177
1618,A,775480084140754,-0.97914124,-6.628296,-1.3912811,0.24327087,0.11846924,1.0544739
1618,A,775480134494758,-3.589035,-7.009247,-7.492264,0.51467896,1.3037262,1.5106049
1618,A,775480184848761,-12.483826,-8.461197,-7.112808,0.9720154,1.2975311,1.8603973
1618,A,775480235202765,-17.360504,-10.861206,4.8849792,1.1100311,-1.0686951,0.5700836
1618,A,775480285556769,-9.593491,-9.447433,3.2436218,0.5864563,-1.2962952,-1.2398071
1618,A,775480335910773,-2.4942932,-4.3262787,-0.04951477,0.106918335,0.27638245,-1.552124
1618,A,775480386264777,-1.7625275,-9.225403,-5.542328,-0.13284302,-1.092102,-1.9223633
1618,A,775480436618781,-2.1556091,-11.993927,-6.601166,-0.7845764,-2.4061127,-2.1345978
1618,A,775480486972785,-2.560318,-7.5466614,-0.45037842,-1.0075226,-1.3431091,-1.9222565
1618,A,775480537326789,-4.4907074,-8.082886,-2.3144531,-0.7991791,-0.19848633,-1.6242828
1618,A,775480587680793,-5.5470886,-7.8303986,-3.3793335,-0.81274414,-0.2479248,-1.3889465
1618,A,775480638034797,-6.2369995,-7.5311127,-1.9631348,-0.6846466,-0.8170471,-1.0480804
1618,A,775480688388801,-7.512207,-7.971405,-0.8374481,1.4588623,3.259079,0.27267456
1618,A,775480738742804,-8.670181,-8.220642,-1.1987915,1.852951,3.879425,2.827835
1618,A,775480789096808,-9.359024,-7.7283936,-1.2967834,0.95121765,3.705246,4.18071
1618,A,775480839450812,-11.225098,-8.153748,-0.9490967,0.38095093,3.2497406,3.8938751
1618,A,775480889804816,-9.084122,-7.6890564,-1.1318207,-0.6593933,-0.35588074,2.3503113
1618,A,775480940158820,-8.105164,-8.972992,-2.0298462,-1.7400208,-1.3676147,0.7565155
1618,A,775480990512824,-9.315933,-14.303299,-2.2341003,-0.7502594,-0.24369812,0.01725769
1618,A,775481040866828,-4.046463,-14.046158,-3.073288,0.029052734,1.1296692,-0.39668274
1618,A,775481091220832,2.6425781,-8.38913,-1.7689819,-0.107788086,0.09614563,-1.411438
1618,A,775481141574836,-0.1795044,-7.8372803,-0.52130127,-1.333725,-3.9180145,-1.7435608
1618,A,775481191928840,-2.026123,-6.6956024,0.07295227,-0.37379456,-2.391739,-0.19760132
1618,A,775481242282844,0.25079346,-6.148758,2.408371,0.6749878,-0.3882904,0.43588257
1618,A,775481292636847,-6.9025574,-5.791107,-8.547104,0.7650299,1.2028198,0.70854187
1618,A,775481342990851,-16.92601,-5.8717194,0.39414978,0.61016846,3.8684082,0.96791077
1618,A,775481393344855,-13.415939,-8.620071,1.1384583,0.63879395,-0.07699585,-0.9173279
1618,A,775481443698859,-7.8743286,-8.465973,-0.7038269,0.88237,-2.146225,-1.4145813
1618,A,775481494052863,-2.7903137,-5.133377,1.995636,-0.17297363,-2.5099792,-2.0088196
1618,A,775481544406867,-1.9997101,-8.730911,-0.14910889,-1.0588074,-3.0877838,-2.1109467
1618,A,775481594760871,-3.5135193,-7.3438873,-1.644104,-0.7539978,-0.14630127,-1.8953094
1618,A,775481645114875,-3.6964264,-6.470001,-1.3054047,-0.61486816,0.3553009,-1.3571014
1618,A,775481695468879,-5.878647,-8.249191,-1.7101593,-0.67349243,-0.35221863,-0.7311249
1618,A,775481745822883,-8.313858,-7.6408997,-0.9658966,0.023223877,0.5171356,-0.7043915
1618,A,775481796176886,-8.332153,-7.755905,-1.3465271,0.23851013,-0.75520325,-0.6574707
1618,A,775481846530890,-6.695572,-7.2711334,-2.7521973,-0.49172974,-1.9253998,-0.164505
1618,A,775481896884894,-7.079056,-8.011642,-1.8999634,-0.14350891,3.1665497,2.666687
1618,A,775481947238898,-8.015747,-7.9391327,-2.1712341,0.991745,1.8774719,4.9644165
1618,A,775481997592902,-9.981598,-7.698517,-2.17099,1.640625,4.1595306,3.961609
1618,A,775482047946906,-11.618591,-6.6558533,-1.9889221,-1.9036255,-2.143982,1.6145172
1618,A,775482098300910,-15.528,-13.04332,-4.318939,-1.7061615,-2.1520233,0.6924896
1618,A,775482148654914,-7.9017487,-15.4874115,2.2955475,0.21252441,-0.12275696,0.15614319
1618,A,775482199008918,-1.298584,-13.096573,-1.9882202,-0.55215454,2.0632935,-0.33569336
1618,A,775482249362922,0.6379242,-9.748138,0.6480713,0.26927185,0.9017639,-1.3364716
1618,A,775482299716926,1.1550903,-5.7523193,-0.0042419434,-2.5547333,-7.1186066,-2.7615356
1618,A,775482350070929,-0.7210083,-5.90094,-1.7515564,-1.0402832,-1.4502716,-0.4368744
1618,A,775482400424933,-0.37750244,-6.2504883,-0.4795227,1.1904602,0.6411438,0.31425476
1618,A,775482450778937,-10.431076,-4.4513702,-1.5653839,1.0113983,1.1998901,-0.22601318
1618,A,775482501132941,-19.359116,-8.6922,4.525421,0.5954437,2.09346,0.82554626
1618,A,775482551486945,-7.79039,-2.1271973,-1.1652222,-0.03652954,2.085434,1.8030396
1618,A,775482601840949,-11.263763,-13.753906,0.7602539,0.45599365,-0.8400116,-0.61335754
1618,A,775482652194953,-5.4645233,-5.24736,-0.92544556,0.4908142,-1.9736023,-1.2253418
1618,A,775482702548957,-1.3250885,-2.2395172,0.35992432,0.34864807,-2.6134644,-1.5739746
1618,A,775482752902961,-6.087265,-13.394165,-2.7850952,-0.026977539,-0.6338043,-1.945816
1618,A,775482803256965,-2.2125397,-6.782425,-1.2714844,-0.303833,-0.83291626,-1.9467773
1618,A,775482853610969,-3.2636566,-6.292465,-1.4238129,-0.51882935,-1.4017487,-1.8636932
1618,A,775482903964972,-5.411316,-7.54364,-1.6634216,-1.1952972,-0.958374,-1.4996033
1618,A,775482954318976,-6.7715454,-8.478287,-3.1118011,-1.4112854,-0.5734863,-1.1377106
1618,A,775483004672980,-7.05954,-6.909088,-2.7651978,-0.69299316,0.101867676,-0.0070648193
1618,A,775483055026984,-8.468033,-7.608673,-2.4918518,2.3350983,6.0162354,1.0867157
1618,A,775483105380988,-9.444229,-7.896469,-0.78852844,0.6838684,0.58473206,4.2984924
1618,A,775483155734992,-10.844406,-7.873352,-0.49363708,0.37934875,3.0966644,3.9013672
1618,A,775483206088996,-11.495895,-7.610092,-0.9090271,-0.6087036,2.297348,2.7666473
1618,A,775483256443000,-10.378433,-9.120804,-5.0694427,-1.9325409,-1.9474945,1.0938416
1618,A,775483306797004,-8.823181,-13.563705,11.745209,-1.0691986,-0.71250916,0.2414093
1618,A,775483357151008,-5.9340363,-14.183395,-0.17689514,0.21951294,1.226532,0.109054565
1618,A,775483407505011,0.6935425,-10.630569,-4.771805,0.22341919,0.56747437,-0.82606506
1618,A,775483457859015,0.5144043,-7.1646576,0.23799133,-0.7062683,-1.8372192,-1.6533966
1618,A,775483508213019,-1.2392883,-6.245682,0.10951233,-1.2898865,-3.4972534,-1.52771
1618,A,775483558567023,-2.0555573,-6.549759,-0.55215454,0.087905884,-0.9447632,0.06463623
1618,A,775483608921027,-4.874588,-5.288925,-3.4019928,1.0641022,1.0711975,0.18803406
1618,A,775483659275031,-12.684692,-4.9298553,-9.472885,0.6647339,1.6512909,0.4777069
1618,A,775483709629035,-16.203827,-5.6703796,4.0886993,0.68743896,1.2430267,0.71424866
1618,A,775483759983039,-8.876175,-8.633194,0.9203491,0.99942017,-1.0349884,-0.3609314
1618,A,775483810337043,-11.022629,-12.526764,0.083618164,0.6884613,-0.43554688,-0.9609833
1618,A,775483860691047,-3.1557465,-4.2651367,-0.4729309,-0.1028595,-0.09100342,-1.3201447
1618,A,775483911045051,-4.8441315,-8.694748,-1.1364441,-0.6392975,-0.846817,-1.7625122
1618,A,775483961399054,-4.0738983,-8.621445,-1.8576202,-0.57788086,-1.7683563,-1.9256439
1618,A,775484011753058,-2.9103851,-6.1456757,-1.6930542,-0.4915619,-0.8220062,-1.7296295
1618,A,775484062107062,-4.659607,-7.7762756,-2.9728394,-0.8215637,-0.17340088,-1.4907379
1618,A,775484112461066,-5.3427887,-7.5899506,-3.0893402,-0.7475281,-0.18470764,-1.2670746
1618,A,775484162815070,-7.027237,-7.7139587,-2.0872345,-0.44207764,-0.9036865,-0.9153595
1618,A,775484213169074,-7.604187,-7.3978577,-1.2431335,0.511673,0.8309784,0.2814026
1618,A,775484263523078,-8.524857,-7.7226715,-1.2799225,1.2888336,3.0071564,2.9909363
1618,A,775484313877082,-9.927765,-8.072327,-0.60569763,0.6838379,1.9321136,4.633499
1618,A,775484364231086,-11.998764,-8.085556,-0.9177246,0.4005127,2.7705994,3.4800873
1618,A,775484414585090,-13.3732605,-8.428223,-2.9708252,-0.9259491,0.42967224,1.8578186
1618,A,775484464939094,-10.2890625,-11.1006775,0.2552185,-1.2162628,-1.8813934,0.66567993
1618,A,775484515293097,-6.462677,-14.126083,5.6371,-0.52178955,0.16534424,0.01979065
1618,A,775484565647101,-3.170227,-12.497406,-2.1164246,0.07861328,1.553772,-0.7471466
1618,A,775484616001105,1.1565094,-8.638367,-4.1073,-1.1805573,-2.8756714,-1.8851624
1618,A,775484666355109,0.7999878,-6.584015,-0.9185333,-1.7690277,-4.350891,-1.8145599
1618,A,775484716709113,-0.27641296,-5.653137,-0.54260254,0.1872406,-0.73202515,-0.3237915
1618,A,775484767063117,-4.564789,-5.196396,-1.7343445,1.0849457,0.9085541,0.29878235
1618,A,775484817417121,-11.175049,-6.386383,-5.6727905,1.045105,2.4128113,0.7303009
1618,A,775484867771125,-14.911087,-6.774811,-6.0815887,1.1564941,2.131073,0.67785645
1618,A,775484918125129,-13.197174,-8.663391,-1.3359985,1.1154327,0.28567505,-0.47720337
1618,A,775484968479133,-7.4341125,-7.81958,0.2773285,0.7309265,-0.8581238,-1.1797028
1618,A,775485018833136,-2.8671722,-5.013153,0.16879272,0.2180481,-2.3085327,-1.5799408
1618,A,775485069187140,-2.8762054,-9.730988,-1.8967438,-0.8230133,-2.1552887,-1.8447266
1618,A,775485119541144,-3.0293884,-9.0876465,-1.6747894,-0.707428,-0.2947693,-1.9095306
1618,A,775485169895148,-3.5569916,-6.6472015,-1.3071136,-0.21827698,-0.74980164,-1.6167297
1618,A,775485220249152,-4.90361,-7.3180847,-1.9350891,-0.23017883,-0.8400574,-1.3266296
1618,A,775485270603156,-6.168396,-8.01503,-1.2958832,-0.3642273,-0.38648987,-1.2356567
1618,A,775485320957160,-6.804199,-7.3871765,-2.1291504,-0.7421417,-1.1485748,-0.6663208
1618,A,775485371311164,-7.371216,-7.1531677,-2.7883606,0.9740753,3.717392,1.0001373
1618,A,775485421665168,-8.180496,-7.541031,-1.4769745,1.1685028,3.4892578,4.220627
1618,A,775485472019172,-10.366287,-8.165817,-1.3451538,1.0688934,3.6736755,4.186142
1618,A,775485522373176,-11.404572,-7.1067505,-1.6461182,-0.39031982,1.2592316,2.2570953
1618,A,775485572727179,-13.660294,-9.914398,-3.6498413,-1.8231812,-1.5970764,1.0307617
1618,A,775485623081183,-9.164566,-12.894424,1.5458221,-0.8736572,-1.4312439,0.38575745
1618,A,775485673435187,-6.3908997,-14.857574,3.592041,-0.41345215,1.2516022,-0.1893158
1618,A,775485723789191,1.0409546,-11.2582855,-5.51622,0.30181885,2.123642,-1.1147766
1618,A,775485774143195,1.3221741,-7.2654114,-3.3097992,-1.9260559,-6.0607605,-2.6957092
1618,A,775485824497199,0.5050659,-6.2693024,-0.9328766,-1.3169403,-3.3861237,-1.271759
1618,A,775485874851203,0.5743408,-6.3863983,-1.0644836,0.3505249,-0.9063721,0.37052917
1618,A,775485925205207,-6.1730347,-5.3133545,-3.7735748,1.1300507,0.6897583,0.65704346
1618,A,775485975559211,-16.815384,-9.514526,-3.0901947,1.4290466,3.0225983,1.0829926
1618,A,775486025913215,-14.167633,-7.1101685,-2.1412811,1.3609467,0.47824097,-0.571228
1618,A,775486076267219,-13.685883,-12.249023,0.5698395,1.1574402,-1.8683014,-0.84054565
1618,A,775486126621222,-4.024521,-4.8004303,1.0875854,-0.36164856,-0.174057,-1.1016693
1618,A,775486176975226,-1.6965332,-7.036087,1.1167908,-1.0646057,-1.7345428,-1.8923798
1618,A,775486227329230,-4.587311,-10.5168,-5.255188,-1.3550873,-2.7024536,-1.8054962
1618,A,775486277683234,-1.7449341,-6.3622437,-0.55960083,-0.22229004,0.95957947,-1.6382446
1618,A,775486328037238,-3.932907,-7.3009796,-1.6557922,-0.16601563,-1.238617,-1.2794952
1618,A,775486378391242,-5.4639435,-7.9070435,-2.5830383,-0.24986267,-0.9763794,-1.6910553
1618,A,775486428745246,-5.6342773,-8.199631,-1.1295929,-0.39785767,-0.5011749,-1.5992432
1618,A,775486479099250,-7.0397797,-7.963791,-3.1644897,-1.2038116,-2.3096313,0.20332336
1618,A,775486529453254,-7.4121857,-7.3938446,-2.8238373,1.074295,6.206894,3.8143616
1618,A,775486579807258,-8.618286,-7.516739,-1.7811584,0.8027649,3.6899261,5.545761
1618,A,775486630161261,-13.231476,-8.590912,-1.4363861,0.6898041,3.6150208,3.9954224
1618,A,775486680515265,-15.756012,-8.732727,0.74005127,-2.1497955,-2.5026398,1.4287872
1618,A,775486730869269,-11.972321,-12.825485,-2.9322052,-1.40979,-1.645813,0.29934692
1618,A,775486781223273,-7.87648,-17.533081,1.7594299,0.120666504,0.92077637,-0.046829224
1618,A,775486831577277,-0.22615051,-12.863083,-1.3637238,0.008300781,1.8913574,-1.121582
1618,A,775486881931281,2.160736,-9.248093,-0.42826843,-1.7087097,-4.304764,-2.221283
1618,A,775486932285285,2.829422,-4.9073944,0.8320465,-0.40370178,-1.18573,-2.313736
1618,A,775486982639289,0.7499542,-5.118225,-0.11514282,0.53590393,-0.9169769,0.11665344
1618,A,775487032993293,-3.5108337,-6.281906,5.955063,1.0364685,1.5917816,-0.23213196
1618,A,775487083347297,-8.243347,-7.726486,-19.025452,0.80122375,1.9623566,0.7302246
1618,A,775487133701301,-18.240189,-7.4119263,-1.8746338,0.82341003,2.3757935,1.506485
1618,A,775487184055304,-7.1127777,-7.4453735,0.974411,1.7907867,-0.43481445,-0.7162018
1618,A,775487234409308,-10.463257,-11.756851,-0.96936035,0.85176086,-1.4291382,-1.1274261
1618,A,775487284763312,-1.8828125,-3.2390137,0.19923401,-0.6932068,-1.9915771,-1.159729
1618,A,775487335117316,-4.8709564,-11.430588,-1.9971008,-0.86505127,-0.4864807,-1.7889252
1618,A,775487385471320,-3.274704,-8.099045,-1.9106903,-0.12294006,-0.27015686,-1.8449402
1618,A,775487435825324,-2.6901703,-5.672821,-2.4223175,-0.16841125,-1.2802124,-1.8138275
1618,A,775487486179328,-5.193344,-7.7697144,-1.9491425,-0.5621338,-1.0970612,-1.697937
1618,A,775487536533332,-5.6723785,-7.6449127,-2.2680206,-0.74554443,-1.0652618,-1.5597839
1618,A,775487586887336,-6.8043365,-7.492584,-3.129593,-0.5935364,0.0680542,-0.7314606
1618,A,775487637241340,-7.87059,-7.643387,-2.3780212,1.3148651,5.140579,1.491272
1618,A,775487687595344,-9.015442,-7.9345245,-0.8043976,0.665329,3.1003418,5.959671
1618,A,775487737949347,-12.650467,-8.859375,-1.1229401,-0.14924622,3.388382,4.4785156
1618,A,775487788303351,-12.723221,-7.181366,-0.91404724,-1.7287598,3.297882,2.6808777
1618,A,775487838657355,-13.967514,-11.759888,-0.4515381,-1.5073395,-2.2495117,0.7068634
1618,A,775487888998108,-5.3918457,-15.5867,9.025101,-0.049041748,0.17552185,0.0050964355
1618,A,775487939352112,-4.7978973,-16.246414,0.9476013,-0.6886902,1.8207397,-0.8401947
1618,A,775487989706116,8.550781,-8.69072,5.966202,-0.34277344,-2.1976624,-2.1233978
1618,A,775488040060120,1.6312103,-6.2821045,-0.89151,-1.6042175,-6.1938477,-2.5206146
1618,A,775488090414124,0.13330078,-6.677292,-1.4479828,-0.73747253,-0.6699524,-0.917572
1618,A,775488140768128,-2.6932373,-5.241043,-3.6133118,0.47297668,1.3594666,-0.29840088
1618,A,775488191122132,-12.969742,-5.62648,-5.9451904,0.5547943,0.41612244,0.5355835
1618,A,775488241476135,-15.549332,-9.394409,1.029541,0.7728882,0.6473541,1.0505371
1618,A,775488291830139,-9.232132,-8.195374,0.8148804,1.4157715,-1.262146,0.33073425
1618,A,775488342184143,-10.19931,-11.264694,-0.9775543,1.0660095,-1.8748932,-0.87039185
1618,A,775488392538147,-2.6598663,-3.0423126,-0.040023804,-0.6762085,1.2215729,-1.1492615
1618,A,775488442892151,-2.9903564,-7.187378,-1.0894318,-0.65885925,1.5123291,-1.5772552
1618,A,775488493246155,-3.043045,-10.320923,-2.9235992,-0.04425049,-1.6543884,-2.0281067
1618,A,775488543600159,-1.2232819,-6.062729,-3.251709,-0.807251,-2.0223846,-2.057846
1618,A,775488593954163,-2.684555,-7.252426,-3.9535065,-1.1618042,-0.47242737,-2.1253662
1618,A,775488644308167,-5.5610657,-8.017471,-2.7717743,-0.53486633,-0.100860596,-1.9289856
1618,A,775488694662171,-6.7395325,-7.9959717,-2.8270874,0.6670685,1.7612457,-0.82328796
1618,A,775488745016175,-7.7507324,-8.201248,-1.0282593,1.3684082,4.0648193,2.5611725
1618,A,775488795370178,-9.960953,-8.481842,-0.06361389,0.59524536,3.021103,5.242096
1618,A,775488845724182,-13.086929,-8.351883,-0.36621094,0.28997803,2.8581085,4.712036
1618,A,775488896078186,-13.827789,-7.8411865,-0.77497864,-0.7872925,0.50416565,2.8657837
1618,A,775488946432190,-10.229645,-10.251938,2.7593994,-1.2402954,-1.5260162,1.0392151
1618,A,775488996786194,-8.796936,-15.780045,3.0993805,-0.34509277,-0.31803894,0.067489624
1618,A,775489047140198,-4.730713,-15.162933,-0.52505493,0.19075012,1.4712372,-0.8783417
