Subject-Id,Activity Label,Time stamp,Accel_x,Accel_y,Accel_z,Gyro_x,Gyro_y,Gyro_z
1626,A,598597208843465,0.9716797,-9.693069,3.1213531,1.6468201,-1.5949097,-0.08288574
1626,A,598597259197469,-1.5618439,-10.98436,-0.04689026,0.9102936,-1.4383392,-0.18916321
1626,A,598597309551473,-2.8281555,-13.751923,-0.44725037,0.2641449,-0.9246521,-0.39945984
1626,A,598597359905477,-0.018310547,-11.793289,-2.0324097,0.19387817,-0.76083374,-0.28804016
1626,A,598597410259481,1.9628296,-6.593796,-1.6802521,0.107543945,-0.81092834,0.11076355
1626,A,598597460613485,0.031906128,-5.536865,1.6932068,-0.5914917,-0.3289795,0.29699707
1626,A,598597510967489,-1.2705688,-5.812134,2.500229,-0.3050995,-0.55670166,-0.21133423
1626,A,598597561321493,-0.40507507,-6.6666718,1.7318726,0.44973755,-0.60813904,-0.0867157
1626,A,598597611675497,1.7847443,-10.489212,1.942337,0.029922485,-0.4135437,0.12731934
1626,A,598597662029501,5.745163,-12.225586,4.8844147,-0.5824585,-0.1690979,-0.22973633
1626,A,598597712383504,3.905777,-11.516495,4.275543,-0.82702637,0.12930298,0.16400146
1626,A,598597762737508,0.90826416,-10.975861,0.34074402,-0.6547699,0.7301636,0.7013855
1626,A,598597813091512,-1.3654938,-9.411743,-0.064315796,-0.28805542,1.6511841,0.24906921
1626,A,598597863445516,-1.9113007,-11.693649,-0.56388855,-0.3979187,1.6421814,-0.009628296
1626,A,598597913799520,-0.41174316,-8.975632,0.3088684,-0.48919678,1.0286865,0.14460754
1626,A,598597964153524,-0.08093262,-6.262085,1.0116882,-0.7792053,0.7864685,0.48039246
1626,A,598598014507528,-0.47357178,-8.0568695,0.6215668,-0.65031433,0.5316467,0.21684265
1626,A,598598064861532,-0.014755249,-7.5685883,0.83096313,-0.34109497,0.45936584,-0.1555481
1626,A,598598115215536,0.24568176,-8.727356,2.0884247,0.0054473877,-0.021072388,0.18275452
1626,A,598598165569540,1.0789032,-9.0924835,3.9388123,0.927124,-0.5532074,0.07371521
1626,A,598598215923543,0.14883423,-9.7344055,4.248703,0.9610596,-1.2525482,-0.21987915
1626,A,598598266277547,0.43281555,-9.625778,5.3878174,1.6447754,-1.4384155,-0.07141113
1626,A,598598316631551,0.78414917,-8.83493,2.0842896,1.2305756,-1.5503998,-0.184021
1626,A,598598366985555,-2.9909973,-15.406326,0.598114,0.38012695,-0.963089,-0.31063843
1626,A,598598417339559,-1.2560883,-15.071823,-0.1559143,0.18074036,-0.672287,-0.36984253
1626,A,598598467693563,1.4313965,-8.4253235,-0.18554688,0.08189392,-0.58369446,0.019088745
1626,A,598598518047567,2.0530243,-4.930832,1.1869812,-0.2314148,-0.6247101,0.57118225
1626,A,598598568401571,-1.1152496,-6.2275085,2.7253876,-0.7636719,-0.33374023,0.33831787
1626,A,598598618755575,-1.6274719,-6.7232513,1.91539,0.36395264,-0.19998169,-0.63090515
1626,A,598598669109579,0.15890503,-7.483017,1.1960144,0.64979553,-0.8584595,-0.051849365
1626,A,598598719463583,5.819107,-9.86557,3.99852,-0.5065613,-0.09350586,0.08782959
1626,A,598598769817586,5.4619446,-11.58342,7.267044,-0.92219543,-0.21810913,-0.23042297
1626,A,598598820171590,1.9050598,-12.293625,0.7981262,-0.9123535,0.43519592,0.2791443
1626,A,598598870525594,-1.5904694,-9.443329,-0.84928894,-0.40249634,1.3732147,0.66856384
1626,A,598598920879598,-2.8724823,-10.500565,0.64372253,-0.29510498,2.195343,0.0423584
1626,A,598598971233602,-2.9058075,-11.719559,5.3059998,-0.4303131,1.9494019,-0.20800781
1626,A,598599021587606,-0.16020203,-6.9525146,3.219864,-0.4892578,1.0966034,0.1210022
1626,A,598599071941610,0.18269348,-6.0954742,1.3211365,-0.9106293,0.9980774,0.3526001
1626,A,598599122295614,0.16337585,-8.891373,-0.078933716,-0.64230347,0.7674408,-0.20005798
1626,A,598599172649618,1.0734253,-8.259415,1.3374481,-0.33372498,0.29360962,0.054107666
1626,A,598599223003622,1.2599945,-9.596771,2.4302216,-0.37153625,0.08407593,0.37590027
1626,A,598599273357626,1.2060394,-8.999573,3.5964355,0.7950592,-0.25836182,0.28567505
1626,A,598599323711629,-0.8644104,-10.311783,3.7350616,0.8084259,-0.97935486,-0.39385986
1626,A,598599374065633,1.2971191,-10.271622,4.7935486,1.3125763,-1.6190033,0.06977844
1626,A,598599424419637,1.720993,-6.880142,2.079605,1.6433105,-1.3994598,-0.2674713
1626,A,598599474773641,-2.1370392,-13.9387665,-1.6923218,0.7059021,-0.81669617,-0.3560028
1626,A,598599525127645,-0.95147705,-13.829514,1.6672668,0.5471039,-1.0701752,-0.5040741
1626,A,598599575481649,0.5461273,-11.121918,-4.409836,0.3224182,-0.62358093,0.024978638
1626,A,598599625835653,2.206482,-4.445404,0.5516052,-0.31895447,-0.6433563,0.45014954
1626,A,598599676189657,-1.1779327,-6.34935,2.5775604,-1.041565,-0.5667114,0.4721527
1626,A,598599726543661,-1.0464478,-6.9621124,0.5110626,-0.106674194,-0.12901306,-0.69403076
1626,A,598599776897665,-0.548996,-7.2085724,1.5313721,1.1863251,-0.7916107,-0.02217102
1626,A,598599827251668,3.9782867,-9.476868,4.11438,-0.65618896,-0.37739563,0.20333862
1626,A,598599877605672,7.8612213,-10.295425,8.01976,-0.9186859,-0.2772827,1.6784668E-4
1626,A,598599927959676,2.8441315,-12.976913,2.1265259,-0.81407166,0.2106018,0.19831848
1626,A,598599978313680,2.0195007,-15.848389,0.6893463,-0.44032288,1.0514832,0.6826172
1626,A,598600028667684,-3.2050934,-7.205063,-1.5916595,-0.34321594,1.8155823,0.021575928
1626,A,598600079021688,-2.2268524,-11.962204,0.9327698,-0.1640625,1.996521,-0.19091797
1626,A,598600129375692,-0.4443817,-8.002304,1.7351837,-0.3751068,1.3067169,0.011779785
1626,A,598600179729696,0.15101624,-6.1195374,1.7895966,-0.5082092,1.0471191,0.28297424
1626,A,598600230083700,-0.007736206,-8.648834,0.686615,-1.0505676,1.0961456,-0.07064819
1626,A,598600280437704,0.13056946,-8.270081,0.850708,-0.40827942,0.63746643,-0.3252716
1626,A,598600330791708,0.9264221,-9.455475,1.8453827,-0.044158936,0.020431519,0.42642212
1626,A,598600381145711,1.6311493,-8.334656,3.6002655,0.57385254,-0.35025024,0.35031128
1626,A,598600431499715,1.2026672,-8.753082,4.922226,1.0075836,-0.848526,-0.24938965
1626,A,598600481853719,2.0325775,-10.54361,4.274414,1.2708893,-1.7700195,-0.14761353
1626,A,598600532207723,1.884552,-8.445358,2.354782,1.7000732,-1.4747162,-0.17842102
1626,A,598600582561727,-2.7108765,-11.6332245,-0.8977814,0.72314453,-1.293747,-0.08607483
1626,A,598600632915731,-1.9539795,-14.833466,2.1984253,0.33387756,-0.93421936,-0.2158966
1626,A,598600683269735,1.8657684,-10.985947,-2.932846,0.3354187,-1.1278534,0.13815308
1626,A,598600733623739,2.4736633,-4.805191,1.1836243,-0.15733337,-0.68284607,0.5
1626,A,598600783977743,-0.35910034,-5.670929,3.009903,-0.7121887,-0.33416748,0.37765503
1626,A,598600834331747,-1.2473297,-5.979355,2.0055084,-0.029769897,-0.3397827,-0.23838806
1626,A,598600884685751,-1.2141418,-6.553131,1.769104,0.85598755,-1.0163879,-0.185318
1626,A,598600935039754,3.0987244,-9.193695,3.7814941,-0.27868652,-0.80667114,0.29119873
1626,A,598600985393758,7.4760284,-12.643555,5.618515,-0.9676666,-0.05230713,-0.264328
1626,A,598601035747762,3.2841797,-13.647736,4.6680756,-0.781662,0.104904175,-0.0010070801
1626,A,598601086101766,0.5370636,-12.533676,0.777298,-0.12780762,1.6335449,0.55532837
1626,A,598601136455770,-4.2776184,-8.682571,-0.124938965,0.03366089,2.2419739,0.21798706
1626,A,598601186809774,-4.2374268,-11.138794,1.6817322,-0.36698914,2.5331726,-0.40830994
1626,A,598601237163778,-3.3057709,-9.1662445,2.069458,-0.7414093,2.0819244,-0.47200012
1626,A,598601287517782,1.1813965,-6.212677,2.6446686,-0.92445374,1.6131287,-0.21292114
1626,A,598601337871786,0.6571655,-8.257843,1.1855011,-1.0412445,1.2752228,-0.025421143
1626,A,598601388225790,0.9253845,-8.824341,0.8918915,-0.681015,0.6545105,-0.16293335
1626,A,598601438579793,1.8480377,-8.924347,2.0189056,-0.20108032,0.31776428,0.23477173
1626,A,598601488933797,1.9803467,-9.704285,3.4054108,0.49526978,0.037872314,0.48301697
1626,A,598601539287801,1.5126495,-10.247864,4.6057587,1.256958,-0.9420471,0.09361267
1626,A,598601589641805,1.1152496,-9.920792,5.7850037,1.4172516,-2.0779572,-0.03678894
1626,A,598601639995809,1.7711182,-7.2710266,3.159256,1.8482513,-1.8858795,0.03955078
1626,A,598601690349813,0.34046936,-11.557571,0.5714264,1.0129852,-1.4304352,-0.14157104
1626,A,598601740703817,-1.5457458,-17.427032,0.6376953,0.33146667,-0.9420929,-0.31944275
1626,A,598601791057821,1.5115051,-10.838242,-1.7051239,0.1650238,-1.0154419,-0.10877991
1626,A,598601841411825,2.1182861,-5.22937,1.0767365,-0.16595459,-0.97758484,0.38583374
1626,A,598601891765829,0.37254333,-5.1718597,3.7075958,-0.59269714,-0.635025,0.4594574
1626,A,598601942119833,-1.9479828,-6.277008,1.9623871,-0.10121155,-0.12727356,-0.30517578
1626,A,598601992473836,-1.1259155,-7.1910553,1.5498505,0.41581726,-0.49794006,-0.29330444
1626,A,598602042827840,4.488037,-9.42009,3.819992,-0.2930603,-0.46150208,0.15933228
1626,A,598602093181844,7.4029083,-12.177139,6.3055573,-0.92871094,-0.10342407,-0.21382141
1626,A,598602143535848,3.4483643,-12.83252,3.6945953,-0.85549927,0.19836426,0.14208984
1626,A,598602193889852,-0.24357605,-11.260025,-1.1197205,-0.19683838,1.6974945,0.4554596
1626,A,598602244243856,-4.621216,-10.078659,-0.5772705,-0.2649536,1.9019318,0.11608887
1626,A,598602294597860,-3.2344666,-10.351318,2.2328339,-0.5135956,2.279953,-0.3236847
1626,A,598602344951864,-0.96421814,-8.7278595,2.6781158,-0.62254333,1.7865753,-0.09147644
1626,A,598602395305868,0.9401245,-6.3253326,1.6747742,-0.8734894,1.1501923,0.15229797
1626,A,598602445659872,0.260849,-7.9102936,1.204483,-0.8096924,0.78193665,-0.10984802
1626,A,598602496013876,0.41140747,-8.268646,1.0158844,-0.46331787,0.3561859,-0.0019989014
1626,A,598602546367879,2.1791077,-8.712204,3.2261963,0.15711975,-0.26872253,0.57188416
1626,A,598602596721883,2.096466,-9.235657,4.1788635,0.9657135,-0.57444763,0.2129364
1626,A,598602647075887,0.9499512,-10.24762,4.7077026,1.2401733,-1.210495,-0.07614136
1626,A,598602697429891,1.6722412,-9.357025,4.4561462,1.7173157,-1.4131927,-0.007858276
1626,A,598602747783895,0.30497742,-9.369751,0.32676697,1.3387451,-1.131897,-0.19558716
1626,A,598602798137899,-1.4924011,-13.846909,0.67378235,0.33372498,-0.78056335,-0.38876343
1626,A,598602848491903,0.5328369,-14.008652,-0.67544556,0.09854126,-0.6292114,-0.32232666
1626,A,598602898845907,2.4253845,-7.6743164,-2.624649,0.03215027,-0.6263275,0.08778381
1626,A,598602949199911,1.0181427,-4.867401,1.2838593,-0.27941895,-0.41114807,0.36723328
1626,A,598602999553915,-0.83251953,-5.9390717,3.0410614,-0.40559387,-0.19166565,-0.21281433
1626,A,598603049907918,-0.5014801,-6.1900787,2.2674103,0.58592224,-0.46739197,-0.36108398
1626,A,598603100261922,2.211029,-7.5919037,2.815155,-0.08337402,-0.5264282,0.032836914
1626,A,598603150615926,7.0675354,-11.200439,4.833679,-0.9446106,0.044204712,-0.21220398
1626,A,598603200969930,5.934082,-12.7586975,4.974365,-1.0187836,0.034606934,-0.04623413
1626,A,598603251323934,4.0588074,-14.945602,0.98587036,-0.6008301,0.70487976,0.6356964
1626,A,598603301677938,-0.027038574,-11.059952,-1.4883118,-0.16763306,2.0045013,0.22706604
1626,A,598603352031942,-3.0319214,-11.444962,0.7503357,-0.4195099,2.6896973,-0.4401703
1626,A,598603402385946,-1.2121582,-8.958069,2.9709473,-0.71409607,1.9553528,-0.35125732
1626,A,598603452739950,0.49760437,-5.24852,2.1659698,-0.87475586,1.1852722,0.041381836
1626,A,598603503093954,0.86994934,-7.8276367,0.7758789,-0.99671936,0.9768677,0.07014465
1626,A,598603553447958,1.6493073,-8.929337,1.0792847,-0.43911743,0.40193176,-0.0790863
1626,A,598603603801961,2.829193,-9.625549,2.5897522,-0.33267212,0.30178833,0.22723389
1626,A,598603654155965,1.898819,-8.830048,4.292557,0.63661194,0.26394653,0.067840576
1626,A,598603704509969,0.71469116,-9.956711,5.3494415,0.84757996,-0.97740173,-0.06236267
1626,A,598603754863973,1.7537689,-9.484253,5.486908,1.7976532,-1.9672699,0.08218384
1626,A,598603805217977,2.133072,-5.5269775,3.166809,1.7164307,-1.5434875,-0.0368042
1626,A,598603855571981,-1.3185883,-15.115036,-0.053726196,0.7356262,-1.4183807,-0.09965515
1626,A,598603905925985,0.9224701,-15.967499,-0.1923523,0.35188293,-1.3431091,-0.22375488
1626,A,598603956279989,1.743927,-10.425598,-1.0279388,0.27902222,-1.0677948,0.12336731
1626,A,598604006633993,3.4315796,-5.2285614,1.7185669,-0.1443634,-1.0218658,0.6734619
1626,A,598604056987997,0.42134094,-5.014572,3.1660767,-0.602478,-0.57473755,0.5241089
1626,A,598604107342001,-1.5096588,-5.9916534,1.7635803,-0.21736145,-0.17250061,-0.5466614
1626,A,598604157696004,-0.8466034,-6.914383,1.4674225,0.88075256,-1.3529358,0.03967285
1626,A,598604208050008,6.0373535,-9.382843,4.930359,-0.43289185,-0.11399841,-0.10498047
1626,A,598604258404012,6.676071,-11.256287,5.7889557,-0.82728577,-0.2510376,-0.26272583
1626,A,598604308758016,4.5897217,-11.201202,3.4362183,-1.1263123,0.16824341,0.39492798
1626,A,598604359112020,2.264923,-16.373718,0.036117554,-0.43302917,1.1960907,0.6405182
1626,A,598604409466024,-2.8206482,-10.289291,-3.5741425,-0.36172485,2.2118683,-0.01159668
1626,A,598604459820028,1.3159943,-10.811951,2.233139,-0.5601654,2.4166412,-0.31973267
1626,A,598604510174032,1.2503204,-6.1605225,3.4755707,-0.6725464,1.4346313,-0.03201294
1626,A,598604560528036,0.9148102,-5.7440796,1.5541534,-0.7265625,1.1295013,0.095062256
1626,A,598604610882040,0.88645935,-8.065018,0.9239807,-0.82102966,0.59532166,0.08030701
1626,A,598604661236043,2.0019073,-8.534714,1.7093658,-0.292511,0.064437866,0.16117859
1626,A,598604711590047,2.8010406,-10.23703,1.9885101,-0.33532715,-0.056167603,0.3431549
1626,A,598604761944051,1.5679779,-8.59256,4.7933197,0.85095215,-0.45025635,0.23652649
1626,A,598604812298055,1.7415161,-9.836731,5.0096436,1.0753326,-1.8265686,-0.09474182
1626,A,598604862652059,2.5264893,-8.892487,4.3952484,1.7215576,-1.4540863,0.22575378
1626,A,598604913006063,1.3517914,-6.843094,2.455719,1.5031586,-1.4794312,-0.14889526
1626,A,598604963360067,-1.3401794,-17.275925,0.16673279,0.433609,-0.84825134,-0.30451965
1626,A,598605013714071,1.2454834,-13.57103,0.16273499,0.29388428,-0.91716003,-0.38146973
1626,A,598605064068075,1.9241943,-8.469864,-1.5955505,0.32763672,-0.86808777,0.005264282
1626,A,598605114422079,2.7541504,-4.0125275,2.6519012,-0.2884369,-0.8551636,0.38212585
1626,A,598605164776083,-0.642334,-5.40329,3.36911,-0.7858124,-0.5518799,0.060043335
1626,A,598605215130086,-0.9530182,-5.558365,1.6204071,0.820755,-0.026016235,-0.64730835
1626,A,598605265484090,1.092926,-7.4205627,2.3359985,0.3738556,-1.1336517,0.4386139
1626,A,598605315816943,10.59523,-11.024612,6.0578766,-0.9130249,0.2007904,-0.22549438
1626,A,598605366170947,5.36763,-13.243759,4.4528046,-0.874588,-0.40335083,-0.095321655
1626,A,598605416524951,4.1079407,-13.051926,0.30966187,-1.1217804,0.41906738,0.674057
1626,A,598605466878955,-2.1930084,-7.0605164,-0.78944397,-0.37400818,1.3658905,0.63023376
1626,A,598605517232959,-3.755951,-10.669846,-1.5340271,-0.6865082,2.3652344,-0.22529602
1626,A,598605567586963,5.596405,-10.019257,4.8505554,-0.9819031,1.8012543,-0.2341919
1626,A,598605617940967,2.4998016,-5.22612,2.089981,-0.6378479,0.86242676,0.13398743
1626,A,598605668294971,1.2429962,-6.199951,2.0323029,-0.80300903,0.9833374,0.33639526
1626,A,598605718648975,0.82533264,-8.221893,0.9822693,-0.5812988,0.44483948,-0.09249878
1626,A,598605769002978,2.7043457,-8.713516,3.0025635,-0.2652893,0.2068634,-0.019851685
1626,A,598605819356982,1.875061,-9.950409,2.663559,-0.14100647,0.078186035,0.3543396
1626,A,598605869710986,2.1754303,-7.8863373,4.87825,1.3630676,-0.3365326,-0.012649536
1626,A,598605920064990,1.0423431,-11.917343,4.4308624,1.4215393,-1.4710541,-0.10673523
1626,A,598605970418994,2.4508514,-8.450653,4.0513,1.8888855,-1.0324249,-0.03404236
1626,A,598606020772998,1.7692261,-8.265427,0.17617798,1.0696869,-1.441742,-0.18165588
1626,A,598606071127002,0.40570068,-16.83702,0.22996521,0.25289917,-0.8291168,-0.3197174
1626,A,598606121481006,2.0797882,-12.715942,-2.329544,0.48425293,-0.88505554,-0.20161438
1626,A,598606171835010,2.5473938,-5.2255554,-0.38438416,0.30119324,-0.7431793,0.3319397
1626,A,598606222189014,1.843689,-4.004318,3.0459595,-0.604599,-0.75868225,0.5705414
1626,A,598606272543017,-0.81396484,-5.571167,2.9838562,-0.20924377,-0.50450134,-0.19154358
1626,A,598606322897021,-0.93548584,-6.6880493,1.7167053,0.83714294,-0.8409271,-0.2708435
1626,A,598606373251025,3.2315826,-9.815292,2.7557983,-0.3015442,-0.96661377,0.30033875
1626,A,598606423605029,10.068817,-12.091629,5.5937805,-0.6644287,-0.455307,-0.15644836
1626,A,598606473959033,5.32782,-12.995483,4.0102997,-0.86865234,-0.26611328,0.27178955
1626,A,598606524313037,3.1728516,-11.229675,0.8811035,-0.22148132,1.5872955,0.63352966
1626,A,598606574667041,-3.9877167,-8.775879,-0.89938354,-0.19580078,1.9389038,0.23942566
1626,A,598606625021045,-2.742508,-11.865784,1.4998779,-0.6015625,2.1498566,-0.21887207
1626,A,598606675375049,-1.9996185,-8.315109,1.8144073,-0.6584778,1.7472076,-0.28250122
1626,A,598606725729053,1.015152,-5.576004,2.984848,-0.7797394,1.1217651,-0.16532898
1626,A,598606776083057,1.3583527,-7.2747498,1.6120911,-1.0349884,0.96043396,0.022537231
1626,A,598606826437060,2.6937714,-8.137268,1.4103088,-0.30290222,0.40489197,-0.030181885
1626,A,598606876791064,3.146408,-8.367035,1.80867,-0.29205322,0.3775177,0.28022766
1626,A,598606927145068,1.6578064,-9.495789,3.3592072,0.40679932,0.018127441,0.24989319
1626,A,598606977499072,0.65696716,-9.519928,5.1729584,1.5282288,-0.550354,0.090789795
1626,A,598607027853076,2.4822998,-9.995331,4.833008,1.7178192,-1.1242981,-0.06373596
1626,A,598607078207080,3.5417328,-7.055954,2.4645844,1.8729248,-0.75483704,-0.2240448
1626,A,598607128561084,0.757843,-11.477692,-0.7676239,0.82206726,-0.7610321,-0.43928528
1626,A,598607178915088,0.5432739,-16.170639,0.24610901,0.12832642,-0.5669708,-0.51701355
1626,A,598607229269092,3.6901855,-8.805969,-3.6282196,-0.020202637,-0.7444916,0.009689331
1626,A,598607279623096,3.3705444,-3.9050903,-0.8685913,-0.25004578,-0.82192993,0.6900482
1626,A,598607329977100,0.5344391,-5.9084167,2.595871,-0.5222931,-0.65834045,0.3301239
1626,A,598607380331103,-0.732193,-5.821808,3.0812225,0.5344391,-0.3554535,-0.61660767
1626,A,598607430685107,1.6959534,-7.243622,2.7628174,0.64411926,-0.53601074,-0.07913208
1626,A,598607481039111,7.4013977,-10.056168,4.9438934,-0.94410706,-0.45336914,-0.07751465
1626,A,598607531393115,7.674286,-12.494705,4.673355,-0.81921387,-0.17071533,-0.25512695
1626,A,598607581747119,3.049881,-12.504105,-0.018997192,-0.67459106,0.26637268,0.40672302
1626,A,598607632101123,1.5965881,-10.372116,-1.401001,-0.32989502,1.3499603,0.2936554
1626,A,598607682455127,-0.7358246,-11.065201,-1.5174408,-0.4766693,1.7109375,-0.13050842
1626,A,598607732809131,-1.0221405,-9.96608,-0.67500305,-0.6826782,1.3045349,-0.0095825195
1626,A,598607783163135,0.29985046,-6.195709,0.6245575,-0.48098755,0.65452576,0.31176758
1626,A,598607833517139,1.4532013,-6.7479553,1.3877563,-0.5301361,0.5744629,0.25164795
1626,A,598607883871142,0.9146118,-8.462769,1.3800354,-0.42294312,0.26885986,0.1564331
1626,A,598607934225146,2.7067719,-8.429504,2.3532867,-0.26086426,0.064712524,0.39385986
1626,A,598607984579150,2.945938,-8.828293,3.3255768,0.06808472,-0.114227295,0.2301178
1626,A,598608034933154,1.2563934,-9.802032,4.4346924,0.6950226,-0.68940735,-0.13696289
1626,A,598608085287158,1.6676483,-9.990189,4.727478,1.2587585,-1.4176636,-0.12863159
1626,A,598608135641162,2.8283386,-6.8825226,4.016205,1.562561,-1.5262299,-0.12312317
1626,A,598608185995166,0.9105072,-9.720139,1.5833588,1.0934753,-1.024353,-0.18733215
1626,A,598608236349170,0.25872803,-15.348145,0.6361389,0.5774689,-0.9290619,-0.25401306
1626,A,598608286703174,2.2109833,-13.026077,-0.732666,0.37020874,-0.8939972,-0.08729553
1626,A,598608337057178,2.7499542,-5.7250824,-0.706192,0.06491089,-0.7307129,0.30020142
1626,A,598608387411182,1.2509155,-3.9449463,1.9310913,-0.49291992,-0.41648865,0.50297546
1626,A,598608437765185,-0.07130432,-5.9309845,2.140625,-0.44839478,-0.08442688,-0.24371338
1626,A,598608488119189,-0.45513916,-6.6043243,1.5500793,0.69441223,-0.56004333,-0.39248657
1626,A,598608538473193,3.0306091,-8.089813,3.098999,0.26338196,-0.56710815,-0.1691742
1626,A,598608588827197,7.7148743,-9.711151,5.353882,-0.61720276,-0.41505432,-0.1307373
1626,A,598608639181201,7.3361053,-12.343735,4.0691986,-1.0269928,-0.47398376,0.20474243
1626,A,598608689535205,4.921524,-15.157669,1.979248,-0.70188904,0.4094696,0.7339325
1626,A,598608739889209,0.08244324,-10.923355,-0.84887695,-0.26087952,2.0513306,0.27388
1626,A,598608790243213,-0.26623535,-11.625473,-0.6604767,-0.6582947,2.5281982,-0.3067932
1626,A,598608840597217,-0.029006958,-8.548294,2.4231262,-0.9091339,1.8414307,-0.1903534
1626,A,598608890951221,1.0085449,-5.1484375,2.9629364,-0.81843567,1.0789337,0.10345459
1626,A,598608941305225,1.9758148,-6.917389,1.7494812,-0.8114929,0.93318176,0.11148071
1626,A,598608991659228,2.218628,-8.533417,1.0974579,-0.4650116,0.6145172,0.09144592
1626,A,598609042013232,3.0844421,-9.329971,2.6213684,-0.3368683,0.10864258,0.3529663
1626,A,598609092367236,2.884964,-8.27124,4.7269745,0.49247742,-0.11453247,0.27215576
1626,A,598609142721240,1.8166504,-9.987579,4.5697784,0.88238525,-0.44024658,-0.06576538
1626,A,598609193075244,3.122116,-10.089142,4.5414276,1.7730408,-1.2178802,-0.029922485
1626,A,598609243429248,2.8655548,-7.1018066,4.2348633,1.6942444,-1.1734924,-0.22203064
1626,A,598609293783252,-0.2434082,-12.407684,0.5825043,0.54429626,-0.52467346,-0.46746826
1626,A,598609344137256,1.1695099,-15.297989,0.80148315,0.057678223,-0.7432709,-0.5405731
1626,A,598609394491260,2.615631,-10.19252,-1.4684296,0.18061829,-0.79148865,-0.19110107
1626,A,598609444845264,3.4480438,-4.314377,1.3242035,0.16630554,-1.0070801,0.55752563
1626,A,598609495199267,1.1629181,-4.6836395,3.1667175,-0.89009094,-0.9921417,0.23190308
1626,A,598609545553271,-0.0382843,-5.201538,2.4325104,1.2048187,-0.31956482,-0.50730896
1626,A,598609595907275,0.9303131,-7.262665,2.2417145,0.22268677,-1.3495331,0.15008545
1626,A,598609646261279,10.971771,-11.082336,3.973877,-0.4860077,-0.511261,-0.21858215
1626,A,598609696615283,7.153946,-12.432526,5.978714,-0.9039612,-0.84243774,0.010345459
1626,A,598609746969287,5.4811096,-13.856934,1.6699829,-0.6066742,0.9243469,0.82980347
1626,A,598609797323291,-0.14945984,-11.154297,-0.61035156,-0.43312073,1.9788513,0.35421753
1626,A,598609847677295,-3.64357,-12.26683,-0.23783875,-0.8021698,2.5181427,-0.28819275
1626,A,598609898031299,-2.8352509,-9.907288,0.918869,-0.76052856,1.8103333,-0.21414185
1626,A,598609948385303,1.9755554,-4.509918,3.3564148,-0.5318756,0.96061707,0.13046265
1626,A,598609998739307,1.3982849,-7.069687,0.8396759,-1.2381287,0.7409363,-0.06227112
1626,A,598610049093310,2.3546295,-8.222534,1.3522034,-0.4112854,0.4636383,-0.11413574
1626,A,598610099447314,3.4584045,-7.6584167,0.93595886,-0.38200378,0.17036438,0.4453888
1626,A,598610149801318,3.2591705,-9.45871,4.7402344,0.32044983,-0.117385864,0.59187317
1626,A,598610200155322,1.1603241,-9.519394,4.7668,1.23909,0.018920898,0.22389221
1626,A,598610250509326,3.1392212,-10.365433,5.572342,2.0435486,-1.4234619,0.18746948
1626,A,598610300863330,3.4975433,-5.5262604,4.406494,1.8174286,-0.68769836,-0.21430969
1626,A,598610351217334,0.41464233,-10.916412,-3.8296814,0.66145325,-0.81321716,-0.37242126
1626,A,598610401571338,0.37860107,-17.223557,2.3153992,0.034317017,-0.39297485,-0.59284973
1626,A,598610451925342,3.2578583,-10.595764,-4.887314,0.03378296,-0.654541,-0.1083374
1626,A,598610502279346,4.8384857,-1.9625397,-1.7171631,0.09498596,-0.79725647,0.6199951
1626,A,598610552633350,0.048233032,-5.0666504,2.8128357,-0.64068604,-0.64227295,0.52534485
1626,A,598610602987353,-0.79293823,-5.7676697,2.760727,0.2390747,-0.35816956,-0.87083435
1626,A,598610653341357,0.6457367,-7.2996216,2.319931,0.778656,-1.0617676,0.014633179
1626,A,598610703695361,11.5634,-10.165649,3.5546265,-0.7554016,-0.032592773,-0.3008423
1626,A,598610754049365,7.2431793,-10.703232,8.190384,-0.8309326,-0.839386,-0.041915894
1626,A,598610804403369,3.3094025,-12.729996,-1.4364166,-0.9171295,0.7524414,0.6181183
1626,A,598610854757373,-2.731964,-10.17424,0.17277527,-0.6722107,1.2234497,0.6319275
1626,A,598610905111377,-2.6860504,-12.038712,-1.4906464,-0.8244324,2.1169891,-0.10910034
1626,A,598610955465381,0.75546265,-10.194809,3.973053,-0.8202667,1.8251953,-0.1950531
1626,A,598611005819385,1.8406677,-4.8829803,3.024994,-0.32434082,1.1520538,-0.12620544
1626,A,598611056173389,0.7514038,-6.0177155,1.6838531,-0.93013,1.3293304,0.046707153
1626,A,598611106527392,1.8560944,-8.087814,1.7073059,-0.92541504,0.45884705,-0.28347778
1626,A,598611156881396,3.9385376,-7.8659363,2.2419739,-0.23661804,0.35855103,0.21339417
1626,A,598611207235400,3.30719,-9.808044,1.1253204,-0.22680664,0.20433044,0.20962524
1626,A,598611257589404,1.781311,-8.566238,6.6390686,1.4015808,-0.09899902,-0.02835083
1626,A,598611307943408,2.3735962,-10.878555,4.258194,1.2478027,-1.4115295,0.007080078
1626,A,598611358297412,3.4505463,-6.726227,5.899826,2.0038605,-0.94259644,0.12945557
1626,A,598611408651416,2.499054,-9.468582,-0.21774292,0.9716797,-1.4212036,-0.30015564
1626,A,598611459005420,1.5997467,-17.01567,1.238205,0.40515137,-0.486969,-0.40177917
1626,A,598611509359424,4.190918,-11.814636,-1.389267,0.5157776,-0.78507996,-0.086639404
1626,A,598611559713428,2.7934723,-4.575287,0.4358673,0.16984558,-0.8141632,0.44169617
1626,A,598611610067432,0.8851776,-4.2583466,3.2987213,-0.5116272,-0.9868164,0.5249939
1626,A,598611660421435,-0.6068115,-5.8156433,2.3888855,-0.10499573,-0.6672363,-0.40126038
1626,A,598611710775439,0.7850647,-6.6966705,1.4700928,1.3860779,-0.6828308,-0.12825012
1626,A,598611761129443,5.790558,-8.93219,3.1315765,-0.6040497,-0.9008789,0.2338562
1626,A,598611811483447,9.814163,-9.857101,6.4301605,-0.89123535,-0.22723389,-0.20935059
1626,A,598611861837451,6.063904,-13.644577,2.5413818,-0.79599,-0.005355835,0.32099915
1626,A,598611912191455,4.9931793,-15.934097,2.37854,-0.40550232,1.4878082,0.6867676
1626,A,598611962545459,-2.6012573,-7.8965607,-0.17263794,-0.5608368,2.023468,-0.032806396
1626,A,598612012899463,-1.507904,-11.369476,1.6156616,-0.80570984,2.2580261,-0.41674805
1626,A,598612063253467,1.0847015,-7.7221985,1.5659485,-0.7881012,1.4954834,-0.28775024
1626,A,598612113607471,2.3376465,-5.068863,2.4425964,-1.0596313,0.99191284,0.03555298
1626,A,598612163961475,1.7311707,-7.7996674,0.72195435,-0.9785156,0.720871,0.09251404
1626,A,598612214315478,2.000473,-8.914856,0.89720154,-0.39842224,0.14160156,0.032684326
1626,A,598612264669482,3.4194489,-9.425903,3.1651306,-0.12464905,-0.06462097,0.36264038
1626,A,598612315023486,3.1800385,-8.470184,5.213043,0.9151459,-0.5615387,0.20896912
1626,A,598612365377490,3.196762,-9.55336,5.29451,1.4292145,-1.3449097,-0.013381958
1626,A,598612415731494,3.677002,-8.205978,3.9253082,1.9859619,-1.5900421,0.21488953
1626,A,598612466085498,1.4034729,-8.727188,1.9389343,1.5237885,-1.2017975,-0.10896301
1626,A,598612516439502,-0.001083374,-16.559036,-0.08152771,0.5364075,-1.1387024,-0.36608887
1626,A,598612566793506,2.9793396,-12.79216,-0.37071228,0.4629364,-0.9295807,-0.09806824
1626,A,598612617147510,3.7437286,-6.621582,-1.3240204,0.2621765,-0.8962097,0.52944946
1626,A,598612667501514,2.1840363,-4.574524,2.9527588,-0.54582214,-0.84988403,0.64501953
1626,A,598612717855517,-0.8596802,-5.5451813,2.415329,-0.25320435,-0.3361969,-0.1565094
1626,A,598612768209521,-0.34577942,-6.1247406,1.4423676,0.78630066,-0.26098633,-0.39564514
1626,A,598612818563525,4.672394,-8.27449,2.9819183,-0.035949707,-0.5314636,-0.09915161
1626,A,598612868917529,9.468262,-11.572449,6.4976196,-0.8498688,-0.20794678,-0.34020996
1626,A,598612919271533,5.279724,-13.758713,4.6782074,-0.825943,-0.03805542,0.39094543
1626,A,598612969625537,2.4304352,-12.494797,-0.80081177,-0.41352844,1.4124298,0.5740204
1626,A,598613019979541,-2.2162933,-10.068176,0.32437134,-0.5832367,1.8223114,-0.027145386
1626,A,598613070333545,-1.5607452,-11.3576355,1.482666,-0.71240234,2.387848,-0.42889404
1626,A,598613120687549,0.69351196,-8.053879,2.2034912,-0.75138855,1.9824066,-0.34428406
1626,A,598613171041553,1.8839264,-5.2731323,2.3074188,-0.92108154,1.2198181,-0.08155823
1626,A,598613221395557,0.9059601,-6.642761,1.7396393,-0.9812927,0.6609497,-0.11767578
1626,A,598613271749560,2.6775665,-7.8842926,1.650528,-0.4693451,0.22575378,0.084350586
1626,A,598613322103564,4.230713,-8.724442,2.5769043,-0.14131165,-0.022537231,0.44491577
1626,A,598613372457568,4.0594482,-8.570923,4.7014923,0.45765686,-0.0030670166,0.12831116
1626,A,598613422811572,3.5923462,-9.523987,5.379486,1.2223969,-0.9316406,-0.0688324
1626,A,598613473165576,3.261673,-8.5699005,4.8236694,2.000763,-1.3471222,-0.035812378
1626,A,598613523519580,2.3315277,-7.112488,2.4505157,1.7763519,-1.150238,-0.14248657
1626,A,598613573873584,1.3921509,-13.095886,0.91444397,0.7294922,-0.9629669,-0.45802307
1626,A,598613624227588,3.4981384,-14.918518,-1.6638947,0.46673584,-0.74076843,-0.40805054
1626,A,598613674581592,4.8963776,-6.858551,-2.4182434,0.39968872,-0.79367065,0.14845276
1626,A,598613724935596,2.217575,-3.94812,1.5613403,-0.24250793,-0.73921204,0.62849426
1626,A,598613775289600,-0.30723572,-5.7552643,2.6444855,-0.7472229,-0.51568604,0.035247803
1626,A,598613825643603,-1.1686859,-5.659027,1.8437653,0.32356262,-0.49897766,-0.3381195
1626,A,598613875997607,1.8341675,-7.0564423,2.1049652,0.47763062,-0.8714447,0.08106995
1626,A,598613926351611,9.855545,-9.4943695,4.548218,-0.2743683,-0.568573,-0.02128601
1626,A,598613976705615,9.785828,-11.455734,5.5014343,-0.72058105,-0.6348419,0.0079956055
1626,A,598614027059619,6.575119,-13.631027,3.7630005,-0.4921875,0.21487427,0.3829193
1626,A,598614077413623,1.365097,-9.6588745,0.7498627,-0.39987183,0.958725,0.48579407
1626,A,598614127767627,-1.8582153,-8.863235,1.723999,-0.5879364,1.5082703,0.1219635
1626,A,598614178121631,-0.3323822,-11.24585,2.4689026,-0.48008728,1.549881,-0.08255005
1626,A,598614228475635,1.6265106,-7.863388,2.0109406,-0.38835144,1.1043854,0.10055542
1626,A,598614278829639,1.6349182,-6.446747,1.5380249,-1.0361176,0.97714233,0.23831177
1626,A,598614329183642,1.7078094,-7.9557037,1.2875671,-0.8400879,0.6671448,-0.17939758
1626,A,598614379537646,2.6493073,-7.7816772,1.2159576,-0.5409241,0.35525513,0.04084778
1626,A,598614429891650,3.332199,-8.727463,2.7486572,-0.24952698,-0.044692993,0.5479126
1626,A,598614480245654,2.7344818,-8.287537,4.864502,1.0238647,-0.04559326,0.344635
1626,A,598614530599658,2.4847717,-9.789154,5.3030243,1.1587982,-0.9521942,-0.12483215
1626,A,598614580953662,3.338562,-7.7621765,5.0545197,1.7040558,-1.1942444,-0.021240234
1626,A,598614631307666,2.5637817,-7.8975677,1.5939941,1.3609009,-1.0622864,-0.12257385
1626,A,598614681661670,0.54823303,-15.33168,1.9354858,0.57914734,-0.13491821,-0.4671936
1626,A,598614732015674,3.2321014,-14.741348,-0.31607056,0.36592102,-0.49728394,-0.4945526
1626,A,598614782369678,3.7745514,-7.4868774,-1.3725891,0.22949219,-0.6521301,-0.09425354
1626,A,598614832723682,2.7997284,-4.6890564,1.6347961,-0.16087341,-0.5510864,0.51060486
1626,A,598614883077685,0.57992554,-5.9697723,2.4628906,-0.60562134,-0.45533752,0.23664856
1626,A,598614933431689,0.18959045,-6.0006866,1.6301117,0.4462738,-0.15556335,-0.5372162
1626,A,598614983785693,2.1316223,-6.7468567,2.5525208,0.026184082,-0.96284485,-0.0073394775
1626,A,598615034139697,10.28894,-9.519485,4.5229034,-0.7045288,-0.05621338,-0.16841125
1626,A,598615084493701,7.152115,-12.2469635,7.4219666,-1.2268829,-0.84625244,-0.13375854
1626,A,598615134847705,4.9577637,-12.500488,2.0450897,-0.8069916,0.41389465,0.6687317
1626,A,598615185201709,0.6752777,-8.863174,-0.20379639,-0.34196472,1.4106598,0.5537262
1626,A,598615235555713,-0.7961273,-11.953751,0.5564575,-0.6018677,2.2705994,-0.26184082
1626,A,598615285909717,-2.005844,-9.822586,2.3353424,-0.88031006,2.169342,-0.47206116
1626,A,598615336263721,1.6337128,-4.700165,3.6915588,-0.23936462,1.0499115,-0.026641846
1626,A,598615386634872,2.156952,-5.625229,1.5619049,-1.0371704,0.81814575,0.21626282
1626,A,598615436988875,2.357605,-8.126099,1.124939,-0.6981964,0.58488464,-0.23631287
1626,A,598615487342879,3.8785706,-7.938614,2.537323,-0.3746643,0.24179077,0.16490173
1626,A,598615537696883,3.9679413,-9.962143,2.025406,-0.17170715,-0.16477966,0.38172913
1626,A,598615588050887,1.6521606,-7.1756744,6.763611,1.4686584,0.005859375,0.51065063
1626,A,598615638404891,2.6564178,-11.289322,4.4499207,1.2182007,-1.5075684,-0.005935669
1626,A,598615688758895,4.102524,-6.617279,5.818054,2.2955627,-0.8774719,0.07234192
1626,A,598615739112899,2.5339203,-7.443741,-0.2740326,1.0859985,-0.96899414,-0.26097107
1626,A,598615789466903,1.0371399,-18.416046,1.624054,0.31877136,0.040756226,-0.6395569
1626,A,598615839820907,5.3574524,-13.594101,-4.1287537,0.2939453,-0.624176,-0.2853546
1626,A,598615890174911,4.5492096,-3.8718872,-0.70484924,0.4290161,-0.69984436,0.4060669
1626,A,598615940528914,1.2463074,-5.7002106,2.3166962,-0.5616455,-0.8603821,0.9002228
1626,A,598615990882918,-0.98349,-6.2556915,2.7583618,-0.6244354,-0.6167145,-0.30026245
1626,A,598616041236922,-0.67019653,-6.250778,1.2842255,1.1348877,-0.78163147,-0.50990295
1626,A,598616091590926,5.500717,-8.355804,1.8438568,0.28282166,-0.4002533,-0.07141113
1626,A,598616141944930,11.493881,-8.864105,6.1651154,-0.68618774,-0.53559875,-0.35102844
1626,A,598616192298934,5.833557,-11.231247,5.6255493,-0.9814148,-0.32543945,0.25782776
1626,A,598616242652938,6.7248383,-18.763123,0.112854004,-0.42359924,1.2516937,0.82699585
1626,A,598616293006942,-2.1979218,-7.5204315,0.05331421,-0.5848694,1.8470001,-0.023605347
1626,A,598616343360946,1.1195221,-14.385803,2.7541199,-0.86421204,2.1414948,-0.40647888
1626,A,598616393714950,1.2518158,-7.5477905,1.0105591,-0.500473,1.5831299,-0.37124634
1626,A,598616444068954,2.5981445,-5.108246,2.2065887,-0.7205963,0.9437866,0.18403625
1626,A,598616494422957,2.3549652,-8.63765,0.84643555,-0.82255554,0.4717865,-0.033935547
1626,A,598616544776961,1.4211578,-7.9582367,1.1925201,-0.7402344,0.34152222,-0.56121826
1626,A,598616595130965,2.8973236,-8.641708,1.5484772,-0.32032776,0.17607117,0.48695374
1626,A,598616645484969,4.1950836,-8.042831,5.677231,0.2962494,-0.09664917,0.6886444
1626,A,598616695838973,1.5930176,-9.317429,4.0198975,1.3178406,0.120513916,0.40667725
1626,A,598616746192977,2.520218,-9.816605,5.419739,1.411087,-1.3435822,-0.022079468
1626,A,598616796546981,3.867279,-6.4617157,3.854309,2.003128,-0.6700897,-0.165802
1626,A,598616846900985,2.2325745,-9.619507,-1.4845734,0.72657776,-0.708313,-0.531723
1626,A,598616897254989,2.1484833,-17.937912,3.2930908,0.15911865,-0.1237793,-0.6965637
1626,A,598616947608993,5.6265717,-11.959183,-3.105301,0.1693573,-0.81900024,-0.1038208
1626,A,598616997962997,3.3317719,-3.8197937,-1.5170746,0.291687,-0.53970337,0.51956177
1626,A,598617048317000,1.0698547,-6.7553864,1.9971466,-0.41879272,-0.3816986,0.6549988
1626,A,598617098671004,-0.26005554,-5.9066772,3.191803,-0.3428955,-0.54463196,-0.25590515
1626,A,598617149025008,0.7905731,-5.6482544,1.9973602,0.99320984,-0.53904724,-0.57136536
1626,A,598617199379012,4.9776917,-7.24057,3.0869446,-0.2575531,-0.578598,0.2806244
1626,A,598617249733016,11.543137,-10.025421,5.9977875,-1.1140289,-0.025802612,-0.13815308
1626,A,598617300087020,6.1656647,-13.950745,5.3595123,-1.3339844,0.003189087,-0.14302063
1626,A,598617350441024,4.2526703,-10.949997,1.3455353,-0.82240295,1.288971,0.7185669
1626,A,598617400795028,-0.5957031,-7.940689,-0.6844177,-0.66122437,2.0017853,0.124694824
1626,A,598617451149032,-2.1080322,-11.7948,0.42485046,-0.98236084,2.241394,-0.42704773
1626,A,598617501503036,0.09901428,-8.131378,3.2635956,-0.82984924,1.8796844,-0.43319702
1626,A,598617551857039,3.3392181,-4.585678,3.659256,-0.81684875,1.3006592,-0.3105774
1626,A,598617602211043,2.6278229,-6.941635,2.2956085,-1.0285645,0.8156128,-0.21847534
1626,A,598617652565047,3.1692505,-7.136627,1.5503998,-0.3420105,0.482193,0.03781128
1626,A,598617702919051,4.2685547,-7.4255524,1.503067,-0.32232666,0.1377716,0.48402405
1626,A,598617753273055,3.8956451,-9.794495,3.656128,0.1363678,-0.22311401,0.50901794
1626,A,598617803627059,2.011673,-9.297684,6.917389,1.4904785,-0.29589844,0.51597595
1626,A,598617853981063,3.1519165,-9.862549,3.8927765,1.4229431,-0.4990387,0.19833374
1626,A,598617904335067,4.8119965,-7.2450714,4.313446,2.2071228,-0.5430908,0.014846802
1626,A,598617954689071,2.6294556,-10.117111,0.44059753,1.0197754,-0.17454529,-0.55371094
1626,A,598618005043075,2.2685547,-17.853256,-0.58200073,0.0874176,-0.019180298,-0.7590027
1626,A,598618055397079,4.2521515,-10.865189,-1.7578125,-0.041244507,-0.47018433,-0.34381104
1626,A,598618105751082,3.209793,-3.756012,-1.5481262,0.065841675,-0.51226807,0.3032837
1626,A,598618156105086,2.0427856,-4.7520294,2.1094818,-0.2630005,-0.45736694,0.3400879
1626,A,598618206459090,-0.24884033,-4.6693573,3.3214874,0.2396698,-0.4841919,-0.48020935
1626,A,598618256813094,1.5221405,-5.452362,3.1805878,0.58480835,-0.65626526,-0.10385132
1626,A,598618307167098,7.365143,-9.091965,4.1230774,-1.1473083,-0.19326782,0.1713562
1626,A,598618357521102,10.156448,-12.994232,5.1129913,-1.373352,0.25439453,-0.1798706
1626,A,598618407875106,5.7706757,-13.784332,2.8592682,-1.3634644,0.6282654,0.31298828
1626,A,598618458229110,3.3683777,-12.802765,-2.4855194,-0.8075714,2.105423,0.30342102
1626,A,598618508583114,-0.26783752,-9.1801605,-0.2508545,-1.0666656,3.072525,-0.5468445
1626,A,598618558937118,-0.16770935,-9.193085,4.657425,-1.1237793,2.542282,-0.8039093
1626,A,598618609291122,1.0250549,-5.841858,3.1285706,-0.6525574,1.6766357,-0.47377014
1626,A,598618659645125,2.5089417,-5.490402,1.8320007,-0.6638489,0.90382385,-0.063690186
1626,A,598618709999129,3.1717377,-7.5267487,1.9132996,-0.7776184,0.26234436,-0.09156799
1626,A,598618760353133,4.4972076,-9.091629,1.60289,-0.4359436,0.0920105,0.30177307
1626,A,598618810707137,4.404175,-8.595215,4.5028687,0.67611694,-0.10107422,0.82592773
1626,A,598618861061141,3.1353455,-9.006912,7.1228485,1.7737732,-0.92118835,0.24247742
1626,A,598618911415145,3.3958893,-9.036163,4.6383514,2.0450745,-0.8548279,-0.15655518
1626,A,598618961769149,3.590561,-6.5722046,1.7624664,1.6832428,-0.11859131,-0.15455627
1626,A,598619012123153,2.125885,-12.756393,1.0497742,0.5827484,0.09358215,-0.73979187
1626,A,598619062477157,3.5333405,-16.054459,-0.37763977,0.20690918,0.03062439,-0.71894836
1626,A,598619112831161,5.5532227,-5.939087,-3.5854034,0.3210907,-0.7243805,-0.013702393
1626,A,598619163185164,3.0938873,-1.5614166,-0.12614441,-0.14987183,-1.2375336,0.6934967
1626,A,598619213539168,0.64460754,-4.149536,2.3844757,-0.3000946,-0.79325867,-0.07333374
1626,A,598619263893172,0.68122864,-5.436722,2.4304657,0.7270508,-0.17080688,-0.47042847
1626,A,598619314247176,6.179596,-8.184418,3.8783875,-0.30308533,-0.30392456,0.14045715
1626,A,598619364601180,10.279602,-9.909409,7.2244263,-1.1730042,-0.16873169,-0.15959167
1626,A,598619414955184,7.24028,-11.043915,3.2662354,-1.2949066,0.31318665,0.0079956055
1626,A,598619465309188,3.6785736,-11.354141,-0.82850647,-0.98361206,1.0712128,0.6526947
1626,A,598619515663192,0.83522034,-10.545944,-1.9053497,-0.88861084,2.1160278,0.21002197
1626,A,598619566017196,1.1542206,-10.425613,-0.16506958,-1.131485,2.586731,-0.48117065
1626,A,598619616371200,2.632965,-6.772751,2.6778564,-1.0970306,1.9535828,-0.78334045
1626,A,598619666725204,1.9145508,-4.4779205,2.6679535,-1.0895538,1.4201813,-0.54148865
1626,A,598619717079207,1.9488678,-6.170944,1.6358032,-0.5882416,0.56411743,-0.13702393
1626,A,598619767433211,3.8881073,-7.247467,2.025406,-0.7470398,0.18835449,0.07368469
1626,A,598619817787215,5.206848,-8.669678,2.901001,-0.5647888,0.06312561,-0.0067596436
1626,A,598619868141219,3.0506897,-8.694992,4.7627563,0.7689514,-0.0073242188,0.45845032
1626,A,598619918495223,3.6677704,-10.811295,5.1526794,1.5561523,-1.713913,0.5207367
1626,A,598619968849227,5.1553802,-8.568451,4.724182,2.2747498,-1.452713,0.31373596
1626,A,598620019203231,3.7028503,-7.6495514,1.7636566,1.9356842,-1.2917633,0.081222534
1626,A,598620069557235,3.0647278,-15.460327,3.5559845,0.9590759,-1.0287323,-0.39485168
1626,A,598620119911239,4.176422,-14.431107,-1.6195831,0.55604553,-0.8698883,-0.34687805
1626,A,598620170265243,4.234894,-3.3683014,-1.8955841,0.5297394,-0.7845459,0.07395935
1626,A,598620220619247,2.446167,-2.9490967,2.6727448,-0.31381226,-0.92614746,0.49150085
1626,A,598620270973250,0.270813,-4.917862,3.2433014,-0.42530823,-0.8134918,-0.3119049
1626,A,598620321327254,-0.8938446,-5.8551483,2.2516937,0.673584,-0.30015564,-0.2087555
1626,A,598620371681258,3.0696564,-7.788681,1.8478088,0.4738922,0.1938324,-0.15631104
1626,A,598620422035262,12.225143,-9.360016,6.37352,-0.51560974,-0.5233307,-0.12553406
1626,A,598620472389266,9.014343,-12.548798,6.4344788,-1.2140656,0.18399048,0.402359
1626,A,598620522743270,5.8166046,-17.31459,-1.2570343,-0.93299866,0.7904358,0.68045044
1626,A,598620573097274,-0.42774963,-8.705399,0.6951599,-0.8176422,1.6759796,0.086761475
1626,A,598620623451278,-0.7624054,-15.075607,1.2661438,-0.76342773,1.5453949,-0.3308258
1626,A,598620673805282,2.188034,-7.32666,3.0260468,-0.45303345,1.1595764,-0.40979004
1626,A,598620724159286,2.9270325,-2.894928,2.5456085,-0.70648193,0.80641174,0.039352417
1626,A,598620774513289,3.0994873,-7.3933716,1.6104431,-0.8416748,0.7145691,0.22761536
1626,A,598620824867293,2.2556305,-8.910187,0.69950867,-0.68911743,0.27546692,-0.278656
1626,A,598620875221297,2.9440002,-10.367752,2.448944,-0.55862427,0.07136536,0.3534546
1626,A,598620925575301,3.7278137,-7.0436096,5.681656,0.59825134,0.06736755,0.86898804
1626,A,598620975929305,3.1941986,-9.969513,4.0881195,1.0695801,-0.8264618,0.29040527
1626,A,598621026283309,4.5160065,-9.9670105,4.59346,2.0537567,-1.2527618,0.4273529
1626,A,598621076637313,3.7528229,-6.1253967,3.1567383,1.4016724,-0.7172699,-0.16244507
1626,A,598621126991317,3.9449768,-12.431091,0.78826904,0.42071533,-0.30477905,-0.6282654
1626,A,598621177345321,4.101227,-15.237228,-0.15090942,0.21409607,-0.5014496,-0.43881226
1626,A,598621227699325,2.1184235,-8.067703,-1.5646362,0.47387695,-0.5286255,0.1113739
1626,A,598621278053329,1.9891052,-3.5597687,4.539261,0.057647705,-0.6216583,0.66711426
1626,A,598621328407332,0.7110443,-4.4980774,2.4971466,-0.78681946,-0.8683319,0.1846466
1626,A,598621378761336,0.6826172,-4.0219574,2.3547668,0.7247772,-0.049087524,-0.55973816
1626,A,598621429115340,1.7593994,-6.135132,1.9927979,0.7114105,-0.464859,0.47737122
1626,A,598621479469344,14.015274,-10.428772,4.6644135,-0.8826752,-0.49276733,0.0036010742
1626,A,598621529823348,7.296875,-13.43132,8.590805,-1.3491821,-0.5074768,-0.3899231
1626,A,598621580177352,5.820511,-11.151978,-1.5653992,-1.3672943,1.1291656,0.42808533
1626,A,598621630531356,-0.56718445,-9.633957,2.4051666,-0.9624634,2.1033478,0.42945862
1626,A,598621680885360,-0.7804718,-12.6645355,-2.3715515,-1.1187286,2.7477264,-0.5299988
1626,A,598621731239364,-2.883072,-10.816498,4.322998,-0.89352417,2.4658966,-0.89120483
1626,A,598621781593368,2.08786,-3.5509186,5.0079193,-0.60180664,1.248764,-0.6636963
1626,A,598621831947372,2.3330688,-6.3302307,0.9423218,-0.80641174,1.0375977,-0.0050201416
1626,A,598621882301375,2.2865295,-7.6940002,1.8616333,-1.0113525,0.6386719,-0.3821106
1626,A,598621932655379,6.53006,-8.63768,2.5195007,-0.55578613,0.41773987,0.5101929
1626,A,598621983009383,5.6927795,-9.743286,2.5359955,0.4296112,0.20358276,0.7102661
1626,A,598622033363387,2.1352386,-7.7075806,6.0963593,1.5509644,-0.5436096,0.4298401
1626,A,598622083717391,3.3389435,-10.795151,3.1638641,2.1571503,-1.2439423,0.2615204
1626,A,598622134071395,5.3045654,-5.438324,4.7005005,1.5515137,-0.5828247,-0.43429565
1626,A,598622184425399,5.026947,-11.498932,-0.8336792,0.9246216,-0.53808594,-0.8001709
1626,A,598622234779403,4.4589386,-16.031143,2.3471375,0.29005432,-0.50665283,-0.72628784
1626,A,598622285133407,1.2754974,-7.942047,-2.399826,0.22117615,-0.38417053,-0.15696716
1626,A,598622335487411,2.9071808,-4.343872,4.1257477,-0.07676697,-0.3239746,0.55966187
1626,A,598622385841414,0.57899475,-6.0674744,1.7482758,-0.52272034,-0.49299622,0.2698059
1626,A,598622436195418,-0.22961426,-4.820755,2.1430511,-0.11073303,-0.637619,-0.7162781
1626,A,598622486549422,2.3348694,-4.9100647,2.694809,0.85884094,-1.0380554,0.6121979
1626,A,598622536903426,9.834488,-8.519623,5.517807,-1.0063477,-0.833725,0.60139465
1626,A,598622587257430,8.4721985,-13.246933,7.908783,-0.7087555,0.07324219,-0.016616821
1626,A,598622637611434,5.944519,-8.530914,3.571991,-1.3789368,0.7833557,0.28224182
1626,A,598622687965438,3.863922,-13.186462,0.4633789,-0.9514618,1.7326965,0.50450134
1626,A,598622738319442,-0.6756592,-8.609055,-2.5145416,-1.2151947,2.270279,-0.3366089
1626,A,598622788673446,-0.5943451,-9.745834,3.9513855,-0.9575043,1.6653748,-0.5287781
1626,A,598622839027450,3.691681,-6.097748,3.2822266,-0.353714,1.6786957,-0.88793945
1626,A,598622889381454,3.4789124,-4.2473907,1.6855164,-0.15678406,1.200943,-0.15901184
1626,A,598622939735457,3.585022,-7.5409393,2.5914001,-0.8331604,0.36035156,-0.06135559
1626,A,598622990089461,3.8879395,-8.234177,1.5510254,-0.8481903,0.43937683,-0.014709473
1626,A,598623040443465,3.4317932,-9.9170685,3.3855438,-0.21595764,0.6034088,0.37731934
1626,A,598623090797469,3.5611115,-8.093674,6.0016937,0.7280121,-0.19909668,0.45368958
1626,A,598623141151473,4.0298615,-9.335846,3.3164063,1.322998,-1.692749,0.21730042
1626,A,598623191505477,4.580353,-7.302353,2.9671936,1.9445801,-1.1292877,0.25146484
1626,A,598623241859481,2.8239746,-8.172684,1.757019,1.10495,-0.7899933,-0.13342285
1626,A,598623292213485,4.0526123,-16.00354,3.0719604,0.59469604,-0.7669983,-0.417984
1626,A,598623342567489,4.2070923,-12.774445,-1.4518585,0.52282715,-0.8918915,-0.269516
1626,A,598623392921493,2.689743,-5.0961914,1.1881866,0.31121826,-0.8027649,0.34217834
1626,A,598623443275497,2.7010345,-3.8441162,4.8503723,-0.42900085,-0.9082794,0.7528839
1626,A,598623493629500,0.47169495,-5.298691,2.071869,-0.5252991,-0.72831726,0.22143555
1626,A,598623543983504,0.5401306,-5.5159607,1.1209564,0.5170288,-0.16220093,-0.5612793
1626,A,598623594337508,3.9291687,-6.773285,2.4169617,0.506897,-0.1972351,0.05215454
1626,A,598623644691512,9.324295,-8.622559,5.9839935,-1.148468,-0.42417908,-0.24923706
1626,A,598623695045516,7.5191956,-10.225357,5.136688,-1.1845245,-0.48451233,-0.36672974
1626,A,598623745399520,4.4167175,-10.145142,-0.7877655,-1.0693054,0.5322418,0.51330566
1626,A,598623795753524,0.17732239,-12.434387,-0.9045868,-0.631073,2.2871704,0.21261597
1626,A,598623846107528,-1.5095367,-13.614746,0.99331665,-0.9326477,2.6001282,-0.5460205
1626,A,598623896461532,0.57507324,-8.560394,5.039871,-1.0851746,2.11557,-0.59103394
1626,A,598623946815536,1.6517181,-6.615341,2.828354,-1.1385956,1.5775299,-0.50442505
1626,A,598623997169539,1.1217651,-7.492035,1.3666534,-1.1774445,1.2110901,-0.66204834
1626,A,598624047523543,3.140396,-7.6441803,1.3583374,-0.66078186,0.66955566,-0.36868286
1626,A,598624097877547,5.16214,-7.123001,2.7341614,-0.49777222,0.3322296,0.418396
1626,A,598624148231551,5.1579742,-7.993683,4.816925,0.033416748,0.2129364,0.6766968
1626,A,598624198585555,3.9027557,-8.642654,5.449951,1.0498657,-0.53401184,0.57489014
1626,A,598624248939559,4.5961456,-9.242554,4.780426,1.963562,-1.1102448,0.38842773
1626,A,598624299293563,4.2877045,-6.230545,3.1275177,2.0484772,-0.7914734,0.1594696
1626,A,598624349647567,3.0840454,-11.233871,2.200653,0.93177795,-0.3703766,-0.4039154
1626,A,598624400001571,4.694046,-16.856613,0.33122253,0.33280945,-0.4270172,-0.6179657
1626,A,598624450355575,6.015808,-9.569458,-1.5648346,0.27124023,-0.7045746,-0.27389526
1626,A,598624500709579,4.381363,-4.121643,1.0753021,0.12361145,-0.85520935,0.39500427
1626,A,598624551063582,1.970108,-5.8318634,3.4814148,-0.5961914,-0.9368439,0.60183716
1626,A,598624601417586,0.59065247,-5.672226,2.7939606,-0.13922119,-0.32867432,-0.30477905
1626,A,598624651771590,1.651474,-5.1344757,1.9218597,0.3597107,-0.5614166,-0.48484802
1626,A,598624702125594,8.152985,-6.5035706,2.8960876,-0.45083618,-0.5927429,-0.33821106
1626,A,598624752479598,9.321457,-10.548752,6.6522217,-1.1233978,-0.38160706,-0.1734314
1626,A,598624802833602,8.320068,-15.48201,4.2808075,-1.1176453,0.18249512,0.3742981
1626,A,598624853187606,3.175354,-10.746216,1.0568085,-0.8641052,1.1005554,0.47554016
1626,A,598624903541610,-1.8287811,-10.362595,0.7972717,-0.8435364,1.8998718,-0.031829834
1626,A,598624953895614,-1.3261261,-11.369583,1.758667,-0.99331665,1.9608154,-0.54130554
1626,A,598625004249618,1.2210541,-5.495514,4.105591,-0.8304138,1.2282867,-0.45565796
1626,A,598625054603622,2.8136444,-5.055313,2.1491547,-0.67658997,0.74380493,-0.13664246
1626,A,598625104957625,2.6971588,-7.3046875,-0.4227295,-0.52711487,0.42303467,0.07267761
1626,A,598625155311629,3.8918152,-8.28566,1.2226563,-0.4139557,0.25723267,0.12123108
1626,A,598625205665633,5.023697,-7.5629883,4.262512,-0.43348694,-0.046447754,0.2700653
1626,A,598625256019637,3.6353302,-8.4787445,4.212204,0.8673706,-0.063568115,0.46270752
1626,A,598625306373641,3.4765167,-9.642136,4.640396,1.4461365,-0.82788086,0.47218323
1626,A,598625356715203,4.1846466,-8.01561,5.181427,2.1475372,-1.2767029,0.25598145
1626,A,598625407069207,3.3526,-7.0223846,1.6490784,1.5649261,-1.3048096,0.036895752
1626,A,598625457423211,3.5224,-14.539124,1.8097229,0.7878723,-1.1516876,-0.12666321
1626,A,598625507777215,6.150955,-15.270004,-1.420517,0.64649963,-1.3250275,0.019561768
1626,A,598625558131219,6.4743805,-6.4405365,-1.6470032,0.6411896,-0.963974,0.4300995
1626,A,598625608485222,3.3536987,-3.8161316,2.3452759,-0.13079834,-0.8270874,0.84198
1626,A,598625658839226,0.2766571,-5.140381,3.709198,-0.68865967,-0.74298096,0.113601685
1626,A,598625709193230,-1.1616669,-5.998474,2.1977234,0.74954224,-0.2942047,-0.4281006
1626,A,598625759547234,1.3780823,-7.322525,1.2174072,0.30230713,-0.6549835,0.10333252
1626,A,598625809901238,11.955994,-9.362534,4.8293457,-0.6208954,-0.4042511,-0.17680359
1626,A,598625860255242,10.15419,-11.534332,6.0298615,-1.429596,-0.8836365,-0.15504456
1626,A,598625910609246,8.872528,-12.423157,2.3102417,-1.2314606,0.5927124,0.49079895
1626,A,598625960963250,0.64782715,-10.0203705,-0.6869049,-0.5989075,2.28125,0.29640198
1626,A,598626011317254,-1.5904388,-12.84285,0.11628723,-0.8684082,2.264328,-0.32826233
1626,A,598626061671258,-0.15618896,-9.352707,4.4819794,-0.88734436,1.3867493,-0.5325928
1626,A,598626112025262,2.359558,-4.077881,3.8816528,-0.6560974,1.1976776,-0.34439087
1626,A,598626162379265,3.0033264,-7.0070953,0.7424469,-0.9402466,0.70466614,0.010467529
1626,A,598626212733269,3.449356,-7.1795044,1.1899261,-0.7737732,0.6698761,-0.40653992
1626,A,598626263087273,4.792221,-8.565048,2.3573456,-0.47673035,0.70918274,0.051208496
1626,A,598626313441277,3.6660004,-8.340744,3.1041565,-0.08677673,0.4571991,0.44699097
1626,A,598626363795281,3.280777,-8.356644,5.7796173,1.3030853,0.36723328,0.51651
1626,A,598626414149285,3.4843445,-9.518738,4.343231,1.8347473,-0.69703674,0.29190063
1626,A,598626464503289,4.219574,-5.779007,4.7819977,2.064392,-0.25187683,-0.03288269
1626,A,598626514857293,2.690506,-8.11055,-0.32817078,0.5443115,-0.51123047,-0.20866394
1626,A,598626565211297,5.014496,-17.530197,3.0707245,0.29870605,-0.6941986,-0.42182922
1626,A,598626615565301,6.463516,-10.515167,-5.945938,0.31228638,-0.71665955,-0.023422241
1626,A,598626665919305,5.1670685,-1.5162659,0.70280457,0.31684875,-1.1865234,0.7736206
1626,A,598626716273308,1.651535,-4.932144,2.6626282,-0.43188477,-1.371933,0.7173462
1626,A,598626766627312,0.3280487,-5.778595,2.9270172,0.36738586,-0.4462433,-0.68769836
1626,A,598626816981316,1.4705505,-6.1891174,2.3859863,0.72280884,-1.050354,0.12571716
1626,A,598626867335320,10.481064,-6.945755,2.9100342,-0.7531433,-0.3075714,-0.1895752
1626,A,598626917689324,8.925903,-9.701553,7.904602,-0.8731842,-0.66677856,-0.6796875
1626,A,598626968043328,6.1703644,-10.910843,-0.24461365,-0.8200531,0.2306366,0.42141724
1626,A,598627018397332,2.399063,-10.309494,0.9875488,-0.72943115,0.8278961,0.69459534
1626,A,598627068751336,-0.17556763,-11.163467,-2.9143524,-0.7766876,2.160965,-0.27871704
1626,A,598627119105340,-1.0847778,-14.071625,1.1423492,-0.77368164,1.673172,-0.26785278
1626,A,598627169459344,3.3036346,-4.880081,4.3629,-0.38945007,0.2650299,0.056533813
1626,A,598627219813347,2.0885468,-5.0134125,1.9571686,-0.5862274,0.76078796,0.093429565
1626,A,598627270167351,2.5787048,-8.447815,0.996521,-0.92614746,-0.01953125,-0.23265076
1626,A,598627320521355,5.978882,-6.6095734,3.0615845,0.0761261,0.05859375,0.13638306
1626,A,598627370875359,5.4700623,-8.862289,2.396759,-0.47161865,-0.3742218,0.82063293
1626,A,598627421229363,2.6121063,-6.8338776,5.193939,1.4302063,-0.12269592,0.5656433
1626,A,598627471583367,2.8001862,-9.838974,5.286133,1.4294281,-1.8200531,0.118515015
1626,A,598627521937371,4.394928,-7.5876923,4.9846344,2.3403625,-1.4426117,0.47940063
1626,A,598627572291375,3.1831207,-6.5030823,0.85583496,1.1282501,-1.0681458,0.032089233
1626,A,598627622645379,2.7771606,-19.062775,0.5934601,0.47862244,-0.3605652,-0.21810913
1626,A,598627672999383,7.6942444,-12.133316,-2.4006042,0.5894623,-1.0122986,-0.15473938
1626,A,598627723353387,4.921768,-5.6250153,-2.0489502,0.50704956,-0.5324402,0.28640747
1626,A,598627773707390,2.3347015,-4.2798157,3.3002472,-0.4282074,-0.4285431,0.5337982
1626,A,598627824061394,0.18000793,-6.2745667,2.5753937,-0.51257324,-0.46452332,-0.15649414
1626,A,598627874415398,0.53564453,-5.4290924,1.6180267,0.8871155,0.09803772,-0.61842346
1626,A,598627924769402,4.169113,-6.3789825,2.6675262,0.22184753,-1.053299,0.2131195
1626,A,598627975123406,14.658585,-8.389404,5.927231,-0.8077698,0.06576538,-0.32260132
1626,A,598628025477410,8.0372925,-12.455444,3.7891235,-1.2154999,-0.9885559,-0.16503906
1626,A,598628075831414,6.780319,-9.230652,2.3036346,-0.80615234,1.1591644,0.37600708
1626,A,598628126185418,1.2929535,-10.991318,-2.8253632,-0.88067627,1.890152,0.23570251
1626,A,598628176539422,-2.1328735,-10.605759,-0.70066833,-0.64390564,2.5432587,-0.46577454
1626,A,598628226893426,-0.510437,-10.904114,5.3792725,-0.8042145,1.8280487,-0.4008026
1626,A,598628277247430,2.5969238,-5.1441193,3.6943817,-1.0963593,0.953537,-0.4487152
1626,A,598628327601433,3.1659393,-5.4584045,1.7268524,-1.2584076,0.58647156,-0.04927063
1626,A,598628377955437,4.7221527,-6.826889,1.8858337,-1.009613,0.49087524,0.20140076
1626,A,598628428309441,6.021408,-7.2276306,3.3625183,-0.25358582,0.35404968,0.12030029
1626,A,598628478663445,4.349716,-9.200592,4.3451385,-0.36218262,0.18978882,0.23425293
1626,A,598628529017449,2.5364532,-8.691849,4.5158386,1.1705933,0.034118652,0.29486084
1626,A,598628579371453,4.3270264,-10.377182,6.0420685,1.5447235,-1.1714935,0.11419678
1626,A,598628629725457,4.949707,-6.6834717,4.4907837,2.1266174,-1.0511932,0.09034729
1626,A,598628680079461,3.349762,-7.7674255,2.292282,0.993454,-0.7701416,-0.36575317
1626,A,598628730433465,4.1427155,-16.421509,2.0650787,0.3602295,-0.6529236,-0.45217896
1626,A,598628780787469,5.908478,-12.728485,-1.7949524,0.6473236,-0.89559937,0.051330566
1626,A,598628831141472,4.8803864,-4.566101,-0.40489197,0.4320984,-0.9368286,0.7680664
1626,A,598628881495476,2.731018,-4.3831024,2.8302002,-0.44830322,-1.207489,0.7821808
1626,A,598628931849480,0.4366455,-4.6653137,2.4759521,0.052963257,-0.37475586,-0.33039856
1626,A,598628982203484,0.5918274,-6.297241,1.8345337,0.7852783,-0.8719635,-0.3793335
1626,A,598629032557488,6.4780884,-8.744614,2.3152008,-0.3865204,-1.0223846,-0.24209595
1626,A,598629082911492,10.228058,-9.570435,5.9372253,-0.8085022,-0.7432251,0.10083008
1626,A,598629133265496,9.19072,-12.122528,3.6251526,-1.02034,-0.3666687,0.55996704
1626,A,598629183619500,6.8829803,-11.991074,1.1688843,-0.38241577,1.5328522,0.5618744
1626,A,598629233973504,-1.7740936,-8.83429,-2.6151733,-0.7589874,2.2582092,-0.16775513
1626,A,598629284327508,0.77742004,-10.921051,2.5778046,-0.9905853,1.7758179,-0.4781189
1626,A,598629334681512,1.8024902,-5.8052826,3.2150726,-0.7884064,1.0710754,-0.2264862
1626,A,598629385035515,3.5164337,-4.751404,2.8413239,-0.87649536,0.6592865,0.14395142
1626,A,598629435389519,4.2843323,-7.0163116,1.4069824,-0.81007385,0.47531128,0.13032532
1626,A,598629485743523,4.676651,-8.011368,1.5674438,-0.2711792,0.4356842,0.15327454
1626,A,598629536097527,4.598526,-8.686096,3.3837433,-0.2084198,0.047683716,0.4516449
1626,A,598629586451531,3.5247498,-7.696289,5.6560974,0.46174622,0.2106018,0.23129272
1626,A,598629636805535,3.4656677,-9.172302,5.144577,1.4978485,-0.28096008,0.22514343
1626,A,598629687159539,4.3427277,-7.9064026,4.7352448,2.1349487,-0.8144531,0.10826111
1626,A,598629737513543,2.91951,-7.358429,1.6522369,1.2855072,-0.54418945,-0.2701416
1626,A,598629787867547,3.233261,-12.967209,0.04864502,0.37319946,-0.69325256,-0.4264679
1626,A,598629838221551,5.004776,-13.56929,-0.24690247,0.3865509,-0.72798157,-0.20855713
1626,A,598629888575555,5.4969025,-5.8969574,-2.247879,0.37554932,-0.7237091,0.41445923
1626,A,598629938929558,3.6655579,-3.107483,1.5925446,-0.0644989,-0.88856506,0.8410797
1626,A,598629989283562,0.56703186,-5.2479553,2.7778015,-0.39146423,-0.64508057,0.058044434
1626,A,598630039637566,-0.1506958,-5.3501434,2.4009094,0.4376831,-0.43374634,-0.3314972
1626,A,598630089991570,3.9906616,-6.3670807,2.4177094,0.3361969,-0.32963562,-0.2344513
1626,A,598630140345574,9.200623,-8.166107,4.486618,-0.50271606,-0.52227783,-0.3263855
1626,A,598630190699578,9.542252,-10.399719,3.5341644,-0.8318939,-0.22077942,0.30903625
1626,A,598630241053582,6.876465,-12.2092285,0.3746338,-0.82244873,0.74172974,0.6395111
1626,A,598630291407586,0.4771881,-9.897385,-2.168869,-0.7514343,1.4446106,0.2338562
1626,A,598630341761590,-1.8600311,-12.086548,0.32141113,-0.8398895,1.8169403,-0.20098877
1626,A,598630392115594,1.8195953,-9.678818,3.6402588,-0.6761017,1.451889,-0.30267334
1626,A,598630442469597,3.2213745,-5.1026764,2.405655,-0.68540955,1.2415924,-0.14587402
1626,A,598630492823601,3.342743,-7.064682,1.7469482,-1.0535736,0.8701019,-0.13691711
1626,A,598630543177605,3.4260712,-7.561371,1.873764,-0.61260986,0.5781708,-0.37025452
1626,A,598630593531609,3.6573486,-7.945984,2.2158966,-0.48143005,0.21650696,0.10029602
1626,A,598630643885613,4.241211,-7.497345,4.2044373,0.20422363,-0.24227905,0.6802063
1626,A,598630694239617,3.3482819,-8.999924,5.38916,0.7876129,-0.13859558,0.4499359
1626,A,598630744593621,4.0087585,-9.684967,5.0728607,1.5494843,-0.96650696,0.43034363
1626,A,598630794947625,4.730774,-6.9356384,4.3986664,1.9203033,-0.68151855,0.06781006
1626,A,598630845301629,3.1984863,-10.100418,0.22148132,0.77388,-0.3785553,-0.30447388
1626,A,598630895655633,3.3506317,-14.541489,0.6071472,0.2267456,-0.45436096,-0.4386444
1626,A,598630946009637,4.4373016,-9.503754,-1.1517639,0.308609,-0.5493927,-0.15919495
1626,A,598630996363640,4.523773,-3.748932,0.17756653,0.1691742,-0.7850647,0.40174866
1626,A,598631046717644,1.8587952,-4.878723,2.7274628,-0.41072083,-0.8532562,0.4915924
1626,A,598631097071648,0.35783386,-5.74823,2.712799,0.07411194,-0.51179504,-0.4920807
1626,A,598631147425652,1.5096741,-6.0872498,1.8715057,0.56095886,-0.55700684,-0.15705872
1626,A,598631197779656,8.129456,-8.055206,4.0618744,-0.5578003,-0.02722168,-0.10334778
1626,A,598631248133660,10.172867,-9.350525,5.950058,-0.9178314,-0.47483826,-0.42977905
1626,A,598631298487664,7.2809143,-11.069214,2.642212,-0.9822235,-0.2202301,0.014221191
1626,A,598631348841668,3.6667786,-9.852356,-0.48135376,-0.66571045,0.2772827,0.6419678
1626,A,598631399195672,1.1364746,-8.5858,-2.1666107,-0.6315613,1.6356659,-0.064819336
1626,A,598631449549676,1.9626923,-12.134628,-0.30993652,-0.8696289,1.8197021,-0.37434387
1626,A,598631499903680,3.0464325,-7.073227,2.347046,-0.65953064,1.0212555,-0.09458923
1626,A,598631550257683,2.9101715,-4.5006714,2.3270721,-0.97262573,0.74742126,0.11732483
1626,A,598631600611687,2.6551056,-7.5131836,1.0805664,-0.6933899,0.62153625,-0.22454834
1626,A,598631650965691,3.2200928,-7.947159,1.2235565,-0.364563,0.23869324,0.066329956
1626,A,598631701319695,5.58638,-8.516785,3.1333008,-0.363266,-0.16426086,0.38237
1626,A,598631751673699,3.7484589,-7.239273,5.487198,0.971817,-0.05458069,0.6658478
1626,A,598631802027703,4.1298065,-9.727203,5.025131,1.2024994,-1.0026093,0.44073486
1626,A,598631852381707,4.6647186,-7.683502,5.079071,2.1475067,-0.96507263,0.28102112
1626,A,598631902735711,3.493927,-6.4721985,1.9299011,1.2738647,-0.9347992,-0.016540527
1626,A,598631953089715,2.9302368,-15.107315,1.1263123,0.4250183,-0.32232666,-0.291687
1626,A,598632003443719,5.6986084,-14.504959,-1.1250305,0.38859558,-0.8796692,-0.2989502
1626,A,598632053797722,5.2424927,-5.5865936,-1.1103821,0.47094727,-0.6496124,0.09240723
1626,A,598632104151726,3.3853912,-3.650879,1.888092,0.050231934,-1.0434418,0.7424927
1626,A,598632154505730,0.5752106,-5.528824,3.4564362,-0.56791687,-0.88449097,-0.16409302
1626,A,598632204859734,-0.08415222,-5.811157,2.3273468,1.386383,-0.3828125,-0.58662415
1626,A,598632255213738,3.4827576,-7.6140137,2.0979614,0.16241455,-1.2337189,0.16125488
1626,A,598632305567742,12.304047,-8.07515,6.029648,-0.6079254,-0.30827332,-0.47517395
1626,A,598632355921746,9.431442,-11.19339,4.146179,-1.3250732,-0.755249,-0.053512573
1626,A,598632406275750,9.975632,-12.828186,3.4749603,-0.48631287,1.5673065,0.8561554
1626,A,598632456629754,-3.424179,-10.833618,-0.82032776,-0.8311157,1.5924377,0.2709198
1626,A,598632506983758,-1.033493,-12.82074,2.3234406,-1.080658,1.833786,-0.24630737
1626,A,598632557337762,1.9937439,-9.36087,1.5138245,-0.96533203,1.1868439,-0.26791382
1626,A,598632607691765,3.809723,-4.8778076,2.298935,-0.86468506,1.0509491,-0.18615723
1626,A,598632658045769,2.2189636,-7.026184,1.2532196,-0.6462097,0.67149353,-0.026397705
1626,A,598632708399773,2.7114563,-7.0798798,1.7057495,-0.7630005,0.27041626,-0.4116516
1626,A,598632758753777,4.44928,-7.269455,2.5445251,-0.39079285,0.122283936,0.51651
1626,A,598632809107781,5.253586,-7.5325775,3.518692,-0.24746704,-0.06741333,0.6110687
1626,A,598632859461785,3.8784943,-9.53685,5.363785,1.1813202,0.17344666,0.3993988
1626,A,598632909815789,3.503479,-9.766113,4.7883453,1.2460785,-1.3545837,0.3150177
1626,A,598632960169793,4.9082336,-6.6637726,4.9703674,2.315094,-0.663147,0.22047424
1626,A,598633010523797,2.4295197,-7.3188324,-0.29414368,1.0664673,-0.53652954,-0.29440308
1626,A,598633060877801,3.5062866,-17.9572,3.9063873,0.320755,-0.39208984,-0.5784607
1626,A,598633111231805,7.150635,-12.306335,-3.2936401,0.3494873,-0.6443176,-0.3287964
1626,A,598633161585808,4.8141937,-3.2707672,-0.97994995,0.24409485,-0.39537048,0.22369385
1626,A,598633211939812,2.0028076,-5.1588287,3.4814606,-0.4202881,-0.9450836,0.69007874
1626,A,598633262293816,0.5447693,-6.1717834,2.3931732,-0.41915894,-0.43270874,-0.40525818
1626,A,598633312647820,0.7205658,-6.444412,1.7354126,1.0903778,0.10069275,-0.2659912
1626,A,598633363001824,6.083832,-8.008545,2.94458,-0.4124756,-0.5251465,-0.02268982
1626,A,598633413355828,12.629837,-8.736832,7.536209,-0.7332306,0.09420776,-0.6596222
1626,A,598633463709832,6.331085,-12.094482,3.3532562,-1.0792694,-0.7948761,0.18319702
1626,A,598633514063836,6.980896,-12.618851,-1.1977081,-0.7046051,1.1436768,0.5890045
1626,A,598633564417840,0.6992798,-10.767166,-1.8681183,-0.65522766,2.8797913,-0.54541016
1626,A,598633614771844,2.6973724,-10.529282,1.8173676,-1.1716461,2.0678253,-0.5353699
1626,A,598633665125847,1.7171173,-7.2458344,2.9802856,-0.8040161,0.5567932,-0.23675537
1626,A,598633715479851,2.761139,-4.449692,1.7703247,-0.63583374,0.55410767,-0.3191223
1626,A,598633765833855,1.938324,-8.29657,-0.16557312,-0.79229736,0.27305603,0.037139893
1626,A,598633816187859,6.307266,-6.556793,3.1417694,-0.06616211,-0.024398804,0.28385925
1626,A,598633866541863,6.264496,-7.618286,3.5276642,-0.11451721,-0.08036804,0.46681213
1626,A,598633916895867,2.3428802,-8.025192,4.838379,0.86369324,-0.32902527,0.5374298
1626,A,598633967249871,4.3251343,-9.172775,5.855606,1.6102753,-1.3528442,0.3100586
1626,A,598634017603875,3.4066162,-7.1522217,3.6636047,2.3171082,-1.108963,0.48806763
1626,A,598634067957879,3.0914917,-7.896225,3.1704865,0.87867737,-1.0960541,-0.07312012
1626,A,598634118311883,6.0346985,-15.55246,0.73228455,0.5507202,-0.6725311,-0.3607483
1626,A,598634168665887,6.4826508,-12.037964,-2.2217255,0.6128845,-1.0330658,-0.10626221
1626,A,598634219019890,3.7285461,-4.6562195,0.16287231,0.46699524,-0.8882141,0.4142456
1626,A,598634269373894,1.7593689,-4.350754,3.4664764,-0.3821106,-1.1650238,0.52537537
1626,A,598634319727898,0.95529175,-5.175949,2.5088348,-0.3159027,-0.7467346,-0.19581604
1626,A,598634370081902,1.2958374,-5.988266,1.9278107,0.92567444,-0.5814972,-0.083602905
1626,A,598634420435906,6.7785797,-8.203171,2.9708252,0.14001465,-0.63464355,0.121414185
1626,A,598634470789910,11.833832,-9.866837,5.8866577,-0.583725,-0.35073853,-0.4197693
1626,A,598634521143914,6.7676697,-11.03125,3.4136505,-0.6967163,-0.9391937,0.42832947
1626,A,598634571497918,5.0523987,-10.302109,1.7317505,-0.46768188,0.52989197,1.1844635
1626,A,598634621851922,0.7938385,-11.47168,-0.36976624,-0.65390015,1.7179565,0.31404114
1626,A,598634672205926,-0.24609375,-13.280762,0.4421234,-1.1101685,1.8638611,-0.27601624
1626,A,598634722559930,1.4079742,-7.422821,3.4819489,-0.9752197,1.2207489,-0.35508728
1626,A,598634772913933,2.8989563,-5.15921,2.9028015,-0.60728455,0.70632935,-0.07421875
1626,A,598634823267937,3.1352844,-7.8973236,0.9199524,-0.6217804,0.12797546,0.123306274
1626,A,598634873621941,4.0654297,-7.1374817,1.927536,-0.61683655,0.054519653,0.15504456
1626,A,598634923975945,4.9886475,-7.339554,3.1948242,-0.27189636,0.21130371,0.54618835
1626,A,598634974329949,4.8002777,-8.000305,3.7631226,0.31549072,0.085128784,0.59614563
1626,A,598635024683953,3.6351776,-8.672653,4.0428467,1.4788208,-0.6194,0.27970886
1626,A,598635075037957,2.9064636,-8.536804,4.92778,2.0504303,-0.9380951,0.115493774
1626,A,598635125391961,3.5929718,-8.456726,2.1629028,1.4902649,-0.61528015,-0.14549255
1626,A,598635175745965,4.376358,-13.082916,0.6319885,0.8269348,-0.62034607,-0.43988037
1626,A,598635226099969,5.3732452,-14.043442,-1.5484161,0.6541443,-0.5502014,-0.42245483
1626,A,598635276453972,4.327118,-5.9391937,-2.453308,0.4298401,-0.77059937,0.12745667
1626,A,598635326807976,1.5761871,-2.911087,1.8700714,-0.12060547,-0.9168854,0.6972046
1626,A,598635377148462,0.0778656,-6.1610413,1.9533997,-0.4836731,-1.0012817,0.23240662
1626,A,598635427502466,0.600235,-6.956192,1.558609,0.69670105,-0.15809631,-0.38352966
1626,A,598635477856470,4.185547,-7.4613647,1.3904419,0.44154358,0.18159485,-0.31929016
1626,A,598635528210474,9.331039,-6.696762,5.5388184,-0.75553894,-0.24256897,-0.38417053
1626,A,598635578564478,9.266373,-9.430939,5.5933228,-1.0357513,-0.10246277,0.067352295
1626,A,598635628918482,5.6518097,-13.303162,-0.17355347,-1.0514679,0.7032013,0.5346222
1626,A,598635679272486,1.2019196,-11.074112,-2.554245,-0.968277,1.741272,0.048095703
1626,A,598635729626490,2.1677551,-10.746414,0.6615906,-1.0246735,1.866333,-0.4424591
1626,A,598635779980494,4.3827667,-9.077408,2.8137207,-0.8119507,1.1739807,-0.29685974
1626,A,598635830334497,2.596344,-5.0892487,2.1451569,-0.8047638,0.93730164,-0.057922363
1626,A,598635880688501,2.0197449,-6.4721985,1.6980591,-0.83638,0.66796875,-0.25405884
1626,A,598635931042505,3.0336761,-7.4869385,1.3785858,-0.50657654,0.20991516,-0.24935913
1626,A,598635981396509,4.4211884,-8.120453,3.1441498,-0.32600403,-0.03126526,0.43260193
1626,A,598636031750513,4.7662506,-7.7561035,4.3584747,0.6865387,-0.04260254,0.7551575
1626,A,598636082104517,4.2170258,-8.099121,4.9191895,1.2536316,-0.7043915,0.50627136
1626,A,598636132458521,4.1148224,-8.478149,5.2746277,1.9944763,-0.9647217,0.3452301
1626,A,598636182812525,4.142044,-7.2244263,2.5726318,1.5537872,-0.7875061,0.049118042
1626,A,598636233166529,3.4002228,-13.800659,0.7854614,0.6900177,-0.4363861,-0.31272888
1626,A,598636283520533,5.709427,-15.049713,-0.4953308,0.55178833,-0.63597107,-0.29704285
1626,A,598636333874537,6.521881,-7.0342865,-1.1912384,0.49520874,-0.67266846,0.1222229
1626,A,598636384228540,3.7998505,-4.0896606,2.4778748,0.096572876,-1.0065918,0.71603394
1626,A,598636434582544,0.99165344,-5.6624146,3.281189,-0.71577454,-0.9599762,0.20056152
1626,A,598636484936548,0.21113586,-6.2881927,1.8085938,0.41693115,-0.20626831,-0.5010071
1626,A,598636535290552,2.7648468,-7.1507416,1.5236816,0.5748291,-0.45513916,-0.009307861
1626,A,598636585644556,10.544876,-7.96167,5.1992493,-0.41738892,0.081466675,-0.37149048
1626,A,598636635998560,9.111664,-10.847397,5.5875397,-1.0872803,-0.5700531,-0.4103241
1626,A,598636686352564,7.7671204,-11.983856,2.5146942,-0.639801,0.52441406,0.5800476
1626,A,598636736706568,2.0286102,-11.009384,-0.0874176,-0.769928,1.4206848,0.35212708
1626,A,598636787060572,-0.10519409,-11.996796,1.7056885,-0.8870239,1.8424683,-0.18325806
1626,A,598636837414576,2.1622772,-11.120178,2.897812,-0.744751,1.5788879,-0.43989563
1626,A,598636887768579,2.5049286,-6.530899,1.7099152,-1.016037,0.92977905,-0.23184204
1626,A,598636938122583,1.8587494,-6.9487915,1.3347015,-0.8403168,0.47784424,-0.06591797
1626,A,598636988476587,2.4667053,-7.1527405,1.3299713,-0.79141235,0.3300171,-0.45925903
1626,A,598637038830591,3.7139893,-7.0408325,1.4594879,-0.4013214,0.18067932,0.3054657
1626,A,598637089184595,5.1406097,-7.524521,3.8279114,-0.023971558,-0.022659302,0.80992126
1626,A,598637139538599,4.059784,-8.375214,4.6361084,0.9607544,0.09089661,0.42918396
1626,A,598637189892603,3.3709564,-8.955322,5.3746033,0.85865784,-1.0912323,-0.08770752
1626,A,598637240246607,3.1441803,-7.136795,4.948105,2.3526,-0.40711975,0.22801208
1626,A,598637290600611,3.2180328,-7.5728607,1.5512543,1.1374359,-0.81536865,-0.14024353
1626,A,598637340954615,3.542389,-16.55577,1.1762848,0.64505005,-0.24996948,-0.478302
1626,A,598637391308619,7.5318146,-13.625519,-3.506073,0.6338196,-0.8641815,-0.19192505
1626,A,598637441662622,6.1408844,-5.2703705,-0.986084,0.4349823,-0.67936707,0.34346008
1626,A,598637492016626,2.4544067,-5.202759,3.339737,-0.33065796,-0.9120941,0.7641754
1626,A,598637542370630,0.6290436,-5.807083,3.0671234,-0.87568665,-0.5921936,-0.12434387
1626,A,598637592724634,0.45207214,-5.613312,1.2955933,0.5736847,-0.12782288,-0.39282227
1626,A,598637643078638,3.3697815,-6.6146393,2.6014862,0.41877747,-0.9838104,0.023422241
1626,A,598637693432642,11.609909,-8.473785,5.8517456,-0.5718384,-0.2882843,-0.4638977
1626,A,598637743786646,7.260147,-10.620483,6.5664215,-1.1705933,-0.6519623,-0.11117554
1626,A,598637794140650,9.966156,-14.180542,1.4759216,-0.5198822,1.0558777,0.7727661
1626,A,598637844494654,-0.1940155,-7.7286224,0.2809143,-0.69400024,1.8134308,0.19238281
1626,A,598637894848658,1.13591,-12.504608,0.040542603,-0.83432007,1.8273468,-0.33424377
1626,A,598637945202662,3.0196533,-9.22081,2.1026,-0.5731354,1.4940491,-0.5310364
1626,A,598637995556665,3.148819,-3.916397,2.1105957,-1.0520782,0.95562744,-0.084121704
1626,A,598638045910669,2.5700684,-7.6254883,1.2017365,-0.87461853,0.588974,-0.21122742
1626,A,598638096264673,2.1592407,-7.5272827,1.1643219,-0.6082001,0.59194946,-0.7332306
1626,A,598638146618677,3.8650665,-7.88855,2.108612,-0.23188782,0.031326294,0.7440796
1626,A,598638196972681,5.20076,-6.575714,3.6929169,0.110458374,-0.29530334,0.82510376
1626,A,598638247326685,2.9448853,-8.850784,6.6439056,1.2753448,-0.12715149,0.19454956
1626,A,598638297680689,4.0141296,-8.584015,4.732025,1.3913422,-1.6069336,0.27471924
1626,A,598638348034693,4.7122803,-5.468994,4.800583,2.1427307,-0.25827026,-0.058532715
1626,A,598638398388697,3.0093079,-10.968658,-1.0961456,0.90901184,-0.7008667,-0.2506714
1626,A,598638448742701,3.6419373,-16.774734,3.073349,0.7644501,-0.5470123,-0.46620178
1626,A,598638499096704,5.845566,-10.158005,-4.490326,0.7202606,-0.932724,0.0942688
1626,A,598638549450708,3.9818726,-1.3942261,1.961853,0.28175354,-1.062912,0.7293854
1626,A,598638599804712,1.2379456,-5.823303,2.286728,-0.81666565,-1.1618652,0.77726746
1626,A,598638650158716,0.43325806,-5.1112976,2.3588562,0.44085693,-0.41293335,-0.34677124
1626,A,598638700512720,0.7635193,-6.121811,1.3006897,1.0360565,-1.2281189,-0.10726929
1626,A,598638750866724,7.6548004,-7.3595886,4.5149384,-0.4444275,-0.6009979,-0.08627319
1626,A,598638801220728,10.07077,-7.8387146,7.1054993,-0.8658447,-0.39967346,-0.48339844
1626,A,598638851574732,8.802246,-13.0354,2.1362305,-1.1799774,-0.4176178,0.2622223
1626,A,598638901928736,8.065018,-14.08783,1.0009308,-0.29345703,1.6013336,0.81307983
1626,A,598638952282740,-3.722824,-9.869446,-1.4382935,-0.6673584,2.3355103,-0.05142212
1626,A,598639002636744,-0.27478027,-11.599121,2.8018188,-0.8447113,2.524353,-0.54637146
1626,A,598639052990747,2.2705994,-7.4175415,2.0246582,-0.8316345,1.5569763,-0.47181702
1626,A,598639103344751,3.4149933,-5.011856,2.1966858,-1.1721497,1.1842651,-0.32191467
1626,A,598639153698755,3.6869965,-8.182861,1.184082,-0.90026855,0.4678192,-0.35783386
1626,A,598639204052759,3.9001617,-7.045868,1.8324738,-0.36335754,0.43016052,-0.14628601
1626,A,598639254406763,4.9937744,-7.344879,2.669403,-0.3381958,0.044265747,0.46554565
1626,A,598639304760767,4.0560913,-7.2473297,5.6175385,0.5383301,-0.21083069,0.5492554
1626,A,598639355114771,2.7429047,-8.708984,5.3548584,1.3618622,-0.14723206,0.44641113
1626,A,598639405468775,4.1201324,-8.319046,4.954239,1.7728424,-1.1674652,0.4764099
1626,A,598639455822779,4.2515717,-6.920746,3.0817719,1.5942535,-0.5274658,-0.022964478
1626,A,598639506176783,3.3896942,-13.332199,-1.1454926,0.4522705,-0.7549286,-0.105392456
1626,A,598639556530787,4.25473,-14.338043,1.797348,0.45207214,-0.7142029,-0.14930725
1626,A,598639606884790,5.429001,-5.973343,-3.8601074,0.33499146,-0.88301086,0.29779053
1626,A,598639657238794,4.510391,-1.7212524,1.081253,-0.11672974,-0.8438263,0.74905396
1626,A,598639707592798,0.39311218,-6.1737823,2.6600342,-0.48724365,-0.6141205,0.3905487
1626,A,598639757946802,0.14093018,-6.7774353,2.1480865,0.3322296,-0.21292114,-0.57637024
1626,A,598639808300806,3.2653046,-6.9347076,1.9570618,0.47506714,-0.44841003,-0.34301758
1626,A,598639858654810,9.371597,-7.1203613,5.085327,-0.85147095,-0.10682678,-0.42337036
1626,A,598639909008814,9.41069,-9.32373,5.3040466,-0.85543823,-0.4924469,-0.021911621
1626,A,598639959362818,6.4365387,-12.358139,-0.8002472,-0.8499603,0.55126953,0.5747833
1626,A,598640009716822,0.58769226,-9.76651,-1.5802002,-0.5178833,1.6887817,0.26193237
1626,A,598640060070826,-0.3740387,-10.880386,-0.49163818,-0.5721283,2.3655396,-0.5137329
1626,A,598640110424829,1.6046906,-10.928452,4.0825653,-0.9441376,1.5782318,-0.6171112
1626,A,598640160778833,2.4608307,-4.911194,3.0957184,-0.96847534,0.7247772,-0.17993164
1626,A,598640211132837,2.4738007,-7.2630005,0.6084595,-1.0531311,0.62449646,-0.0028686523
1626,A,598640261486841,3.8000793,-8.247299,0.90045166,-0.74064636,0.4988556,-0.122299194
1626,A,598640311840845,5.347687,-7.704132,2.8913116,-0.21878052,0.27160645,0.18101501
1626,A,598640362194849,4.142807,-7.724884,4.453171,0.1754303,0.15037537,0.40879822
1626,A,598640412548853,3.1914063,-7.8178864,5.127014,1.0688934,-0.29971313,0.30612183
1626,A,598640462902857,3.963745,-8.621582,5.193512,1.6949005,-1.292099,0.26786804
1626,A,598640513256861,4.3424835,-6.6786957,3.3463135,1.9762878,-1.3942566,0.16101074
1626,A,598640563610865,3.022583,-11.190002,1.3314819,0.78808594,-0.88923645,-0.17997742
1626,A,598640613964869,5.154114,-16.645233,0.06954956,0.45877075,-0.7420654,-0.30747986
1626,A,598640664318872,7.7740173,-10.07579,-1.5117493,0.55892944,-0.954895,0.08377075
1626,A,598640714672876,5.0350037,-4.4958496,1.1837006,0.16226196,-0.9609833,0.598526
1626,A,598640765026880,1.587677,-5.594406,3.4635162,-0.4822998,-0.86206055,0.3014679
1626,A,598640815380884,0.0022583008,-5.892975,2.1173248,0.0945282,-0.13734436,-0.3841095
1626,A,598640865734888,1.1933899,-5.848068,1.7824707,0.35690308,-0.828949,0.0040893555
1626,A,598640916088892,7.4526215,-7.4199524,4.376343,-0.4502716,-0.6255493,-0.05130005
1626,A,598640966442896,10.132797,-10.428726,5.4691467,-0.9377136,-0.51994324,-0.40959167
1626,A,598641016796900,8.533554,-10.896866,3.48143,-1.1101685,-0.64164734,0.2752838
1626,A,598641067150904,5.0653534,-9.625839,0.5214386,-0.8113098,1.3536987,0.41622925
1626,A,598641117504908,-0.45622253,-10.531967,-1.3638458,-0.7235718,2.3177032,-0.15092468
1626,A,598641167858912,-0.5386963,-11.486664,2.2872162,-0.8427582,1.7233887,-0.24639893
1626,A,598641218212915,1.7030029,-6.748413,4.9280853,-0.5754852,0.68084717,-0.033355713
1626,A,598641268566919,1.8734741,-5.0276337,2.4571228,-0.78855896,0.4099884,-0.06361389
1626,A,598641318920923,3.1395874,-7.657013,0.84976196,-0.63142395,0.40846252,0.055038452
1626,A,598641369274927,6.5761414,-7.301773,1.9216461,-0.12590027,0.06121826,0.31977844
1626,A,598641419628931,5.5902863,-8.717209,2.299759,-0.15496826,-0.28279114,0.4066925
1626,A,598641469982935,2.7890625,-7.83432,5.750229,0.7088928,0.025253296,0.48190308
1626,A,598641520336939,3.3699646,-8.713608,5.115097,1.647522,-0.47447205,0.4888916
1626,A,598641570690943,4.2580566,-7.767563,4.5259857,2.1650238,-0.77549744,0.27374268
1626,A,598641621044947,3.0478973,-7.701523,1.1115875,1.3186035,-0.74220276,-0.10342407
1626,A,598641671398951,3.2352295,-14.439148,0.6909485,0.4109497,-0.7044983,-0.38719177
1626,A,598641721752954,7.0442963,-14.206177,-2.2071838,0.25016785,-0.79948425,-0.18411255
1626,A,598641772106958,5.9331055,-6.008606,-2.9566803,0.31428528,-0.7073822,0.34718323
1626,A,598641822460962,2.4402618,-4.0760193,1.1321411,-0.086242676,-0.947464,0.76982117
1626,A,598641872814966,0.2727356,-5.737503,3.2353668,-0.20036316,-0.5956421,-0.2546692
1626,A,598641923168970,-0.25006104,-5.9933624,2.4253387,0.7525635,-0.5417633,-0.22212219
1626,A,598641973522974,4.6295166,-6.673889,1.5876007,-0.0017242432,0.102508545,-0.23260498
1626,A,598642023876978,10.440033,-8.6528015,6.614807,-0.72242737,-0.35736084,-0.40867615
1626,A,598642074230982,9.121933,-9.853851,2.9618225,-1.2954865,-0.3154297,0.046569824
1626,A,598642124584986,6.0342712,-12.2799225,-1.6867676,-0.72805786,0.897995,0.46351624
1626,A,598642174938990,0.12669373,-10.508652,-2.8846588,-0.7445984,1.8779907,-0.101623535
1626,A,598642225292994,-1.1151123,-12.2330475,1.7364349,-0.93974304,1.9093475,-0.38609314
1626,A,598642275646997,1.7015839,-7.7480316,2.0571442,-0.5564575,1.1880493,-0.2006836
1626,A,598642326001001,1.6323853,-5.510971,1.2215271,-0.7954407,1.0164185,-0.11383057
1626,A,598642376355005,1.8301086,-7.416855,1.4367523,-1.2518158,0.5236511,-0.24363708
1626,A,598642426709009,4.3510284,-7.337921,2.9599,-0.28953552,0.29896545,0.036972046
1626,A,598642477063013,6.148163,-8.838013,2.725525,-0.2876892,-0.09210205,0.4564209
1626,A,598642527417017,3.9641266,-7.7873077,5.0854645,0.943573,0.18112183,0.3988495
1626,A,598642577771021,2.914383,-9.244507,5.8464813,1.112442,-0.56877136,0.2140503
1626,A,598642628125025,4.232788,-7.915497,5.0200195,2.377365,-0.5749817,0.2778473
1626,A,598642678479029,3.2918396,-6.6374207,1.4441528,1.2794647,-0.61987305,-0.16575623
1626,A,598642728833033,3.0508118,-16.779907,1.9510651,0.23396301,-0.40499878,-0.5337372
1626,A,598642779187037,7.059738,-14.256836,-1.8571777,0.093688965,-0.75141907,-0.25471497
1626,A,598642829541040,6.5821533,-4.066803,-1.6693573,0.35702515,-0.78930664,0.3761139
1626,A,598642879895044,3.1099243,-4.5331116,2.3157806,-0.026824951,-1.2654266,1.0756836
1626,A,598642930249048,0.64723206,-5.914322,3.550644,-0.4660492,-0.7305908,-0.13282776
1626,A,598642980603052,0.0110321045,-6.0376434,2.0865936,1.199997,-0.2776184,-0.37789917
1626,A,598643030957056,3.8332062,-6.578598,1.7363892,0.20318604,-0.94529724,-0.14768982
1626,A,598643081311060,11.882553,-7.7343903,7.3131714,-0.52127075,-0.3008423,-0.57006836
1626,A,598643131665064,7.4444885,-12.169937,3.4915466,-0.90805054,-0.81129456,0.16645813
1626,A,598643182019068,9.627335,-15.338806,0.6608734,-0.59580994,0.32766724,0.7364807
1626,A,598643232373072,-0.49786377,-9.188385,-0.6248169,-0.3751068,2.3301544,-0.11451721
1626,A,598643282727076,3.2075806,-13.776901,-0.48562622,-0.7630005,2.2763672,-0.3930359
1626,A,598643333081079,1.5661621,-7.100769,2.0065308,-0.79037476,0.8263397,-0.20674133
1626,A,598643383435083,1.8949585,-3.6313171,3.830429,-0.37306213,0.51556396,0.0859375
1626,A,598643433789087,2.1671143,-7.5457306,1.3061523,-1.3890381,0.22384644,0.0816803
1626,A,598643484143091,4.7863464,-7.236084,1.9154358,-0.5526428,0.46855164,-0.07585144
1626,A,598643534497095,7.1626434,-7.8241577,3.2187805,-0.085006714,0.095214844,0.4970703
1626,A,598643584851099,3.108139,-8.6107025,2.6203003,0.05166626,0.021072388,0.3276825
1626,A,598643635205103,1.954071,-7.621399,8.539734,0.9497223,0.17755127,0.17764282
1626,A,598643685559107,3.7214355,-9.862518,3.638733,2.214157,-1.551117,0.38697815
1626,A,598643735913111,2.9488678,-3.9174652,5.6407623,1.6455231,-0.790802,0.0016937256
1626,A,598643786267115,2.3915558,-12.371017,-1.7855682,0.48298645,-0.5211792,-0.22561646
1626,A,598643836621119,5.888031,-16.841293,3.061264,0.48988342,-0.75413513,-0.40890503
1626,A,598643886975122,5.377884,-7.66716,-3.8924255,0.39207458,-0.83465576,0.15315247
1626,A,598643937329126,5.2505035,-0.7325287,1.5458679,-0.02670288,-0.828949,0.7524872
1626,A,598643987683130,0.03074646,-5.749115,2.7001343,-0.7541199,-0.4540863,0.66615295
1626,A,598644038037134,-0.78904724,-6.2346344,2.3216095,0.17732239,-0.17758179,-0.72798157
1626,A,598644088391138,0.7269287,-7.055603,1.2980499,0.9216919,-0.8343506,-0.0070343018
1626,A,598644138745142,10.500061,-7.317993,4.1732483,-0.9544983,-0.16503906,-0.186203
1626,A,598644189099146,8.51329,-8.741043,8.481079,-0.76042175,-0.9482422,-0.55978394
1626,A,598644239453150,7.5509033,-9.463882,1.3944702,-0.96546936,-0.50712585,0.45098877
1626,A,598644289807154,5.4328003,-10.784119,-1.0795746,-0.29838562,1.935257,0.43218994
1626,A,598644340161158,-1.2995911,-11.946487,-3.5883484,-0.48780823,2.6148071,-0.4890747
1626,A,598644390515162,-0.20866394,-9.600922,5.69046,-1.2474213,2.0491638,-0.48046875
1626,A,598644440869165,2.2175446,-6.1635284,4.5716705,-1.0602417,0.7925415,-0.30541992
1626,A,598644491223169,2.666092,-7.1718445,0.9708557,-1.2497864,0.6798401,-0.22929382
1626,A,598644541577173,3.5819855,-9.485031,0.9591522,-0.8213806,0.3127594,-0.12298584
1626,A,598644591931177,5.7372284,-6.0525513,2.6490173,-0.11405945,0.04925537,0.27416992
1626,A,598644642285181,5.0401154,-8.896469,4.3570557,-0.33865356,-0.13182068,0.4896698
1626,A,598644692639185,2.936615,-6.4253845,5.7595673,1.0055695,-0.08616638,0.36697388
1626,A,598644742993189,4.683914,-9.47673,4.8113403,1.628006,-1.1877441,0.3179016
1626,A,598644793347193,4.072815,-6.7451935,3.7341614,2.3716736,-1.2651367,0.29475403
1626,A,598644843701197,2.3291016,-8.422287,2.009842,0.8853302,-0.8957825,-0.15470886
1626,A,598644894055201,3.873352,-17.413742,2.170761,0.28549194,-0.67388916,-0.3668213
1626,A,598644944409204,5.681366,-12.490524,-2.681366,0.62564087,-0.98979187,-0.045776367
1626,A,598644994763208,5.5970154,-2.9894257,0.9183655,0.38146973,-0.8780365,0.55781555
1626,A,598645045117212,1.2630005,-3.832077,4.581238,-0.3320465,-0.9422455,0.64772034
1626,A,598645095471216,-0.58361816,-6.1002655,2.2663727,0.09489441,-0.43214417,-0.32481384
1626,A,598645145825220,-0.12704468,-7.2403717,1.8585205,0.8543701,-0.5163574,-0.16766357
1626,A,598645196179224,6.1082153,-7.960083,2.965683,-0.12088013,-1.0359955,-0.040863037
1626,A,598645246533228,11.986679,-9.189438,6.87027,-0.830246,-0.6441498,-0.369812
1626,A,598645296887232,8.508759,-12.350769,3.1565094,-0.9233856,-0.30099487,0.42921448
1626,A,598645347264176,6.96286,-12.8064575,0.06730652,-0.21000671,1.9109192,0.6582947
1626,A,598645397618180,-0.14602661,-11.259811,-0.57315063,-0.65830994,2.425003,-0.3219452
1626,A,598645447972184,-0.065826416,-9.859741,1.706665,-0.85183716,1.6772461,-0.4554901
1626,A,598645498326187,1.8349457,-6.7530823,2.6108093,-0.6994171,0.97576904,-0.23527527
1626,A,598645548680191,3.5860443,-5.7792053,1.4169769,-1.0551453,0.54045105,-0.15615845
1626,A,598645599034195,3.9946136,-8.053818,0.8191223,-0.79397583,0.28485107,-0.3008423
1626,A,598645649388199,4.4860535,-7.1813507,1.8166962,-0.44641113,0.16358948,-0.06254578
1626,A,598645699742203,4.2117767,-7.99144,2.6780396,0.068099976,-0.28141785,0.7658081
1626,A,598645750096207,3.298996,-7.4544983,5.6539154,0.79808044,-0.21142578,0.76094055
1626,A,598645800450211,3.061493,-8.7521515,5.827881,1.4143524,-0.489151,0.46347046
1626,A,598645850804215,3.826706,-7.9883575,4.621109,1.8777924,-1.1165771,0.30010986
1626,A,598645901158219,3.6193848,-8.900818,2.0968933,1.2133942,-0.58898926,-0.14756775
1626,A,598645951512223,3.5963745,-14.314514,0.019226074,0.3117218,-0.55311584,-0.34690857
1626,A,598646001866227,4.161545,-12.656021,-0.13879395,0.3263855,-0.65641785,-0.2679901
1626,A,598646052220230,5.3316193,-4.79718,-2.2297974,0.3500824,-0.7329712,0.28375244
1626,A,598646102574234,3.6204224,-3.1053467,2.4110107,-0.23574829,-0.6837311,0.6512451
1626,A,598646152928238,0.1680603,-6.2046967,3.2450714,-0.36904907,-0.2445221,0.07435608
1626,A,598646203282242,0.3488922,-6.296509,2.2709045,0.4278717,-0.6005554,-0.30137634
1626,A,598646253636246,5.958664,-7.1287384,2.7311249,-0.09524536,-0.3060913,-0.3399353
1626,A,598646303990250,10.10817,-8.557922,5.777603,-0.8584595,-0.15145874,-0.51600647
1626,A,598646354344254,7.7742004,-10.252228,4.250778,-0.88508606,-0.09246826,0.12181091
1626,A,598646404698258,3.765152,-11.013748,-0.054489136,-0.7866516,1.2287903,0.48535156
1626,A,598646455052262,-0.10455322,-10.69635,-1.9804382,-0.72476196,2.0747223,-0.13014221
1626,A,598646505406266,0.16850281,-12.032196,-0.24407959,-0.9075775,2.145172,-0.58773804
1626,A,598646555760269,1.8327026,-8.523407,4.4026794,-0.9764862,1.1484833,-0.35281372
1626,A,598646606114273,2.5615845,-5.210205,2.7470856,-1.0009766,0.64912415,-0.15887451
1626,A,598646656468277,2.3364868,-7.960541,0.6534729,-0.94337463,0.50494385,-0.27311707
1626,A,598646706822281,4.3973083,-7.7324677,2.2573547,-0.3275299,0.05255127,0.042388916
1626,A,598646757176285,5.622986,-7.6348877,4.26091,-0.10215759,-0.1669159,0.5324402
1626,A,598646807530289,3.304123,-7.2975464,5.549286,0.82073975,0.25523376,0.59887695
1626,A,598646857884293,2.9375916,-8.633591,5.1629944,1.522049,-0.2421112,0.49830627
1626,A,598646908238297,4.0131073,-7.829422,4.699173,2.0036774,-0.80856323,0.2873993
1626,A,598646958592301,3.2656555,-7.261963,0.45848083,1.4468842,-0.8374176,0.0018615723
1626,A,598647008946305,3.2828674,-14.770752,1.2658386,0.5161133,-0.79125977,-0.2702484
1626,A,598647059300309,7.22966,-14.062866,-1.9066467,0.35894775,-0.98464966,-0.10520935
1626,A,598647109654312,8.364655,-4.2348175,-3.5992584,0.28819275,-1.1201172,0.44940186
1626,A,598647160008316,4.07489,-3.5317535,1.7723541,-0.3130951,-0.9819641,0.9358978
1626,A,598647210362320,0.17393494,-6.2979126,3.8154144,-0.16667175,-0.32702637,-0.13137817
1626,A,598647260716324,-0.8050232,-6.853943,2.1219482,0.77471924,-0.4512329,-0.56967163
1626,A,598647311070328,3.627472,-6.832382,2.4849396,0.28959656,-0.19802856,-0.32034302
1626,A,598647361424332,10.318588,-7.0174866,6.6838684,-0.5388031,-0.42630005,-0.44180298
1626,A,598647411778336,9.924454,-10.698486,3.16391,-1.1311798,-0.7465973,-0.34407043
1626,A,598647462132340,7.947708,-13.664597,-0.11331177,-0.67578125,0.5457916,0.4086914
1626,A,598647512486344,1.5506287,-10.547501,-1.8683777,-0.4251709,2.2069702,0.025970459
1626,A,598647562840348,0.6068573,-12.05809,3.7263947,-0.74938965,2.6177673,-0.47506714
1626,A,598647613194352,0.90663147,-8.740356,3.3401337,-0.9020996,1.5135956,-0.43891907
1626,A,598647663548355,1.7664337,-5.4704285,3.094818,-0.95422363,0.9228363,-0.44226074
1626,A,598647713902359,2.9030304,-7.1542206,1.5768738,-1.2160034,0.37294006,-0.28242493
1626,A,598647764256363,5.472519,-6.830063,2.3328552,-0.47019958,0.1360321,0.03236389
1626,A,598647814610367,6.868576,-7.2434998,2.9524078,-0.3723755,-0.16163635,0.31100464
1626,A,598647864964371,3.618805,-7.6069336,3.403061,-0.14543152,-0.27397156,0.29455566
1626,A,598647915318375,2.1706848,-8.583298,7.2082214,0.8427124,0.06964111,0.47395325
1626,A,598647965672379,4.347061,-9.603165,5.041855,1.7058411,-1.4727478,0.38134766
1626,A,598648016026383,4.039612,-5.5173035,5.244446,2.1952362,-1.118866,0.254364
1626,A,598648066380387,2.2642975,-8.77327,-1.0390778,1.0075989,-1.1548157,-0.0019989014
1626,A,598648116734391,3.673874,-15.262314,2.2615967,0.6925049,-1.22052,-0.23405457
1626,A,598648167088394,6.912567,-11.237366,-2.8676605,0.65704346,-1.3390503,0.08277893
1626,A,598648217442398,5.112091,-2.8267822,-0.21305847,0.5613251,-1.0414276,0.7374573
1626,A,598648267796402,1.7177887,-5.0175934,3.2954865,-0.6205139,-1.0035095,0.9805908
1626,A,598648318150406,-0.27890015,-6.3830414,3.512558,-0.12501526,-0.4311676,-0.16191101
1626,A,598648368504410,-0.87449646,-6.9926147,0.8201599,0.75149536,-1.0029602,-0.09111023
1626,A,598648418858414,6.0835876,-7.290329,2.4445648,0.031234741,0.04573059,-0.48442078
1626,A,598648469212418,8.923172,-7.6074677,7.4290924,-0.38613892,-0.7884674,-0.519516
1626,A,598648519566422,7.879486,-10.262604,3.7625885,-0.9857483,-0.8881073,0.14968872
1626,A,598648569920426,8.752716,-16.344467,0.8631592,-0.18579102,0.7680359,0.78053284
1626,A,598648620274430,0.23551941,-9.062561,-3.0791168,-0.2217865,2.2901306,-0.2832489
1626,A,598648670628434,-2.3337555,-14.415894,3.7226868,-0.7386322,2.45076,-0.5226593
1626,A,598648720982437,1.059555,-5.470642,2.9673004,-0.7067871,0.9277191,-0.16239929
1626,A,598648771336441,2.9087372,-4.979294,2.075714,-1.44487,0.6322174,0.015991211
1626,A,598648821690445,2.981491,-10.5793,-0.11152649,-0.6526947,0.38383484,-0.11238098
1626,A,598648872044449,4.719513,-6.6294403,1.566742,-0.084854126,0.35464478,-0.1587677
1626,A,598648922398453,5.80011,-8.887619,4.2572937,-0.31347656,-0.18086243,0.69059753
1626,A,598648972752457,3.2976685,-4.900833,6.4596863,1.4422455,-0.22657776,0.6472168
1626,A,598649023106461,1.5937347,-9.194778,4.9669952,1.0446625,-0.3895874,0.4391327
1626,A,598649073460465,3.7364502,-7.0992126,5.4136963,2.1738434,-0.5300293,0.24009705
1626,A,598649123814469,5.856552,-7.590622,0.6741333,0.51753235,-0.67726135,-0.078811646
1626,A,598649174168473,2.2606964,-19.321426,-0.7081146,0.08291626,0.39950562,-0.3925476
1626,A,598649224522477,7.8923187,-12.49057,-1.709137,0.11608887,-0.6914215,-0.34950256
1626,A,598649274876480,6.8944244,-3.1155548,0.81777954,0.13929749,-0.5754547,0.20259094
1626,A,598649325230484,2.8205566,-4.7471313,2.330017,-0.23876953,-0.5423279,0.71990967
1626,A,598649375584488,0.045425415,-7.092819,3.6264954,-0.34864807,-0.008834839,0.18484497
1626,A,598649425938492,0.6825104,-5.780487,2.0810547,0.4841156,-0.35836792,-0.6164856
1626,A,598649476292496,4.4152985,-6.8086853,2.9204865,0.46905518,-0.9815216,0.15905762
1626,A,598649526646500,11.939529,-7.4385986,5.330597,-0.81044006,-0.22280884,-0.46444702
1626,A,598649577000504,7.051819,-10.887985,6.8401184,-1.0925446,-1.3666077,-0.31921387
1626,A,598649627354508,5.686432,-9.844757,1.193573,-0.71310425,1.118393,0.6100311
1626,A,598649677708512,0.78712463,-13.213043,0.5587616,-0.42556763,2.1912384,0.24363708
1626,A,598649728062516,0.76091003,-12.277374,-0.28936768,-0.7148285,2.4487305,-0.57572937
1626,A,598649778416519,-0.25987244,-9.494736,3.1006927,-1.1229401,2.0333252,-0.6435852
1626,A,598649828770523,2.2342072,-5.068329,3.9783173,-0.973053,0.96247864,-0.22071838
1626,A,598649879124527,2.5280762,-7.8063507,-1.1701355,-0.87265015,0.6990051,-0.18608093
1626,A,598649929478531,3.0675354,-8.71196,1.5188599,-0.71881104,0.32551575,-0.27153015
1626,A,598649979832535,6.183441,-6.302826,3.5784607,0.11621094,-0.031188965,0.4256897
1626,A,598650030186539,5.302292,-7.857788,3.45372,0.24745178,-0.16499329,0.638031
1626,A,598650080540543,3.0325928,-7.4121704,6.8772125,1.1593323,0.22669983,0.33255005
1626,A,598650130894547,3.659546,-9.258087,4.1542664,1.3138733,-0.51620483,0.06832886
1626,A,598650181248551,4.207901,-6.8542175,3.3049927,2.0680084,-0.56056213,0.06576538
1626,A,598650231602555,2.329132,-9.8519745,0.08451843,0.55274963,-0.32432556,-0.47384644
1626,A,598650281956559,3.1193237,-17.401123,2.343811,-0.029586792,-0.3423462,-0.6610565
1626,A,598650332310562,9.934982,-9.934067,-2.056015,0.1539917,-0.8426819,-0.10697937
1626,A,598650382664566,6.337677,-2.1375275,0.070892334,0.22138977,-0.95288086,0.45777893
1626,A,598650433018570,1.7663879,-5.8963623,2.5437012,-0.27101135,-0.8755951,0.47354126
1626,A,598650483372574,0.46794128,-5.579376,3.8112335,-0.26216125,-0.3679657,-0.60458374
1626,A,598650533726578,1.5911102,-5.2362366,2.3031464,0.9732666,-0.4920807,-0.20175171
1626,A,598650584080582,6.749878,-6.7335205,3.486267,-0.30819702,-0.8359375,-0.12110901
1626,A,598650634434586,11.03981,-9.459961,6.8719177,-0.6301575,-0.50260925,-0.4189148
1626,A,598650684788590,8.827484,-12.208588,0.8133545,-0.8161011,-0.55107117,0.2737732
1626,A,598650735142594,6.394287,-12.252533,2.7094574,-0.53338623,0.7699585,0.47927856
1626,A,598650785496598,-1.0952911,-10.396179,-0.31886292,-0.46710205,2.0184631,-0.17790222
1626,A,598650835850602,0.4427948,-11.938171,1.6646729,-0.7644348,1.7410126,-0.2315979
1626,A,598650886204605,1.2440491,-6.3970947,3.4132385,-0.79122925,0.7719116,-0.02243042
1626,A,598650936558609,1.6893463,-5.635956,3.1157074,-0.7988434,0.5648651,0.019592285
1626,A,598650986912613,2.0187988,-8.667328,0.81163025,-0.62416077,0.26506042,-0.12644958
1626,A,598651037266617,4.8641815,-7.210129,1.8575745,-0.060821533,-0.055755615,0.15408325
1626,A,598651087620621,5.7975616,-6.6635437,3.2246857,-0.1489563,-0.29397583,0.5117035
1626,A,598651137974625,3.6069183,-7.441498,5.5363464,0.3313141,-0.33876038,0.60469055
1626,A,598651188328629,2.3231964,-8.893326,5.77034,1.4902496,-0.47480774,0.72843933
1626,A,598651238682633,4.065155,-8.401047,4.70401,1.8006744,-0.8723602,0.39614868
1626,A,598651289036637,3.9480743,-7.041382,2.9920502,1.6114807,-0.65182495,-0.08709717
1626,A,598651339390641,2.932724,-12.978012,0.63127136,0.5318451,-0.36663818,-0.39079285
1626,A,598651389744644,4.819458,-15.495285,0.93774414,0.21376038,-0.37347412,-0.41830444
1626,A,598651440098648,6.6137695,-7.9435883,-2.889679,0.26098633,-0.62442017,0.040924072
1626,A,598651490452652,4.035034,-3.7043,-0.27243042,0.115982056,-0.6561432,0.6882782
1626,A,598651540806656,0.72839355,-6.0126953,2.4322205,-0.20736694,-0.7602997,0.36515808
1626,A,598651591160660,-0.11354065,-6.741394,1.9350891,0.43397522,-0.59207153,-0.3338623
1626,A,598651641514664,2.923767,-6.6665955,1.8258514,0.68800354,-0.53411865,-0.109436035
1626,A,598651691868668,9.472549,-7.0774994,4.6644287,-0.3477173,-0.47955322,-0.19537354
1626,A,598651742222672,10.760345,-9.528107,5.118927,-0.9855957,-0.1949768,-0.32240295
1626,A,598651792576676,7.246628,-13.79422,2.194992,-0.7618561,0.49220276,0.31773376
1626,A,598651842930680,2.948059,-11.835449,1.0797424,-0.58628845,1.5376129,0.361557
1626,A,598651893284684,-0.9698334,-10.992035,1.3183441,-0.9175873,2.0062408,-0.20089722
1626,A,598651943638687,-0.060821533,-10.934113,1.7522278,-0.8717499,1.687561,-0.3481903
1626,A,598651993992691,1.8993835,-6.4451294,2.7239227,-0.833374,1.1536865,-0.29089355
1626,A,598652044346695,2.862854,-6.6833344,2.2031708,-1.0158997,0.74516296,-0.23370361
1626,A,598652094700699,3.07312,-7.507141,1.4632874,-0.7160492,0.36584473,-0.25289917
1626,A,598652145054703,4.141876,-6.948456,1.6419678,-0.46263123,0.15744019,0.13145447
1626,A,598652195408707,4.927353,-7.1423187,4.260956,-0.030639648,-0.1802826,0.5342865
1626,A,598652245762711,3.583023,-8.43927,5.5259094,0.77612305,0.032073975,0.516037
1626,A,598652296116715,3.23732,-8.965668,5.308609,1.5610809,-0.35743713,0.5472107
1626,A,598652346470719,4.338196,-7.536072,5.041687,1.9484863,-0.7550659,0.17424011
1626,A,598652396824723,3.6026154,-9.338852,-0.03929138,1.007904,-0.53482056,-0.33091736
1626,A,598652447178727,3.5846558,-14.218872,1.2362518,0.29141235,-0.5615082,-0.4992981
1626,A,598652497532730,5.4976044,-11.467407,-1.3700104,0.21965027,-0.75535583,-0.25737
1626,A,598652547886734,5.5819244,-4.2542267,-0.74609375,0.22615051,-0.80500793,0.30584717
1626,A,598652598240738,2.1956177,-4.0802,2.4368591,-0.31054688,-0.9182892,0.8674011
1626,A,598652648594742,0.079696655,-5.7940826,2.761551,-0.13851929,-0.52360535,-0.20227051
1626,A,598652698948746,-0.07165527,-6.493515,2.1576996,0.50883484,-0.71577454,-0.42555237
1626,A,598652749302750,6.592926,-7.6593475,1.7489929,-0.17616272,-0.4121704,-0.40701294
1626,A,598652799656754,10.700592,-8.134705,8.192474,-0.5800171,-1.1514587,-0.035125732
1626,A,598652850010758,9.411713,-10.611755,3.3240051,-0.55207825,-0.16369629,0.54333496
1626,A,598652900364762,0.19242859,-10.015701,-1.041748,-0.66508484,0.8155823,0.37226868
1626,A,598652950718766,-2.0264282,-9.196487,-0.17755127,-0.64212036,1.52034,-0.18605042
1626,A,598653001072769,2.008545,-11.72821,2.054062,-0.6970215,1.1329346,-0.08854675
1626,A,598653051426773,3.488449,-7.4130554,3.4566345,-0.794754,0.6740265,0.12776184
1626,A,598653101780777,1.3477936,-6.705185,2.3723907,-1.0783997,0.55451965,0.081222534
1626,A,598653152134781,1.7339325,-7.8948517,1.2884674,-0.64974976,0.5084076,-0.41789246
1626,A,598653202488785,3.1320953,-6.8997345,1.1557465,-0.26252747,0.11021423,0.013717651
1626,A,598653252842789,4.152832,-7.7548676,3.72995,-0.29104614,-0.41964722,0.605072
1626,A,598653303196793,4.0546417,-6.866638,5.597,0.9074402,-0.061569214,0.6750488
1626,A,598653353550797,3.9352264,-9.734924,5.348526,1.2098999,-0.8260803,0.20700073
1626,A,598653403904801,4.333969,-8.218262,5.1009827,2.2070465,-0.91490173,0.5223541
1626,A,598653454258805,4.16127,-6.576233,2.3149567,1.2213135,-0.94033813,0.06590271
1626,A,598653504612809,2.0426025,-16.649841,-0.16543579,0.47135925,-0.27330017,-0.33085632
1626,A,598653554966812,6.7803802,-13.516281,-1.2384186,0.48272705,-0.6867218,-0.16610718
1626,A,598653605320816,6.22876,-5.289917,-0.92996216,0.49136353,-0.8222809,0.3542328
1626,A,598653655674820,2.6783752,-4.432495,2.9968414,-0.2322998,-0.98521423,0.7983093
1626,A,598653706028824,0.65156555,-6.1958466,2.7883148,-0.5138855,-0.8728943,0.13948059
1626,A,598653756382828,0.47698975,-6.163208,1.2112732,0.57136536,0.23634338,-0.76638794
1626,A,598653806736832,3.3875122,-6.397522,1.6854095,0.4945221,-0.4490509,-0.05984497
1626,A,598653857090836,10.126419,-7.047043,5.960083,-0.7133484,0.28756714,-0.5405731
1626,A,598653907444840,6.831665,-11.947708,5.605545,-1.2012787,-0.6859741,-0.26268005
1626,A,598653957798844,7.787079,-11.350723,3.0546417,-1.0905914,0.15602112,0.46672058
1626,A,598654008152848,-0.69569397,-8.760986,-0.07757568,-0.67144775,0.6941376,0.6193695
1626,A,598654058506852,0.54748535,-13.206451,0.9469452,-0.874588,1.5411224,-0.07510376
1626,A,598654108860855,3.4184723,-9.553452,2.74292,-0.8171387,1.973587,-0.5070801
1626,A,598654159214859,2.0242004,-4.7872314,2.330124,-1.1845856,1.3838501,-0.46022034
1626,A,598654209568863,1.1605225,-6.695053,2.3039246,-1.3217163,1.0167847,-0.22164917
1626,A,598654259922867,2.624176,-8.656967,0.81288147,-0.60539246,0.48353577,-0.30444336
1626,A,598654310276871,3.3745422,-5.9840546,0.86351013,-0.22775269,0.28056335,0.11679077
1626,A,598654360630875,4.458725,-6.644165,4.7112427,-0.66485596,0.16644287,0.7193451
1626,A,598654410984879,4.9511566,-8.087189,4.767929,0.924881,-0.087249756,0.29722595
1626,A,598654461338883,2.5240326,-9.621445,5.84935,1.4049225,-0.98475647,0.108444214
1626,A,598654511692887,3.8240356,-8.140778,4.293106,2.6811066,-0.44692993,0.51815796
1626,A,598654562046891,4.28656,-6.396179,1.1566925,0.78544617,-1.1846466,-0.15447998
1626,A,598654612400894,3.8464508,-19.379837,-1.144455,0.7015991,-0.40022278,-0.44410706
1626,A,598654662754898,8.900436,-13.940247,-3.5417023,0.49731445,-0.97979736,-0.27644348
1626,A,598654713108902,4.73732,-4.975464,0.49645996,0.51260376,-0.6631317,0.33537292
1626,A,598654763462906,1.8887787,-5.315277,2.6877136,-0.5476532,-0.83258057,0.75083923
1626,A,598654813816910,-0.13023376,-5.2767944,2.1283722,-0.6027527,-0.89131165,0.2086029
1626,A,598654864170914,-0.7067261,-4.9688263,0.49824524,0.7189026,-0.045013428,-0.64463806
1626,A,598654914524918,2.3572083,-6.4815063,2.6390076,0.6537781,-0.77841187,0.10127258
1626,A,598654964878922,11.910934,-9.051498,6.331726,-0.7906494,-0.200531,-0.6157379
1626,A,598655015232926,9.038986,-10.688507,6.8392944,-1.0821838,-0.8678436,0.09265137
1626,A,598655065586930,6.3995514,-10.676285,1.5570068,-0.7259064,1.0903625,0.38128662
1626,A,598655115940934,-4.0728607,-10.353195,-2.070816,-0.8230896,1.5210114,0.16566467
1626,A,598655166294937,-0.18414307,-11.61174,0.35144043,-0.9833832,1.9205322,-0.3146057
1626,A,598655216648941,1.8856354,-10.194092,2.6987915,-0.77705383,1.5454102,-0.38897705
1626,A,598655267002945,1.995758,-5.48761,2.0078735,-0.8544464,1.178009,-0.2746277
1626,A,598655317356949,1.598114,-6.2059937,3.3621826,-1.1614685,0.81121826,-0.14274597
1626,A,598655367708798,3.2445984,-6.5145264,1.1269684,-0.24142456,0.2831421,-0.45213318
1626,A,598655418062802,3.9748688,-6.9306335,2.0058136,-0.55467224,0.14613342,0.39286804
1626,A,598655468416806,4.487808,-8.448578,4.2658844,0.33094788,-0.3564148,0.7505646
1626,A,598655518770810,3.9516296,-7.999283,5.6280365,1.5071869,-0.5407257,0.48683167
1626,A,598655569124814,3.7873077,-9.031296,5.6634064,1.4190521,-1.6678009,0.45254517
1626,A,598655619478818,3.575531,-5.3926697,3.9365997,2.0032654,-0.7065582,0.34599304
1626,A,598655669832822,3.0751495,-11.558685,0.11109924,1.1253357,-0.7932892,0.02822876
1626,A,598655720186825,4.371628,-16.556564,1.4285278,0.7223511,-0.9488983,-0.18684387
1626,A,598655770540829,6.243286,-9.873322,-2.7865448,0.68588257,-1.1890411,0.12460327
1626,A,598655820894833,3.7888184,-2.6518097,-0.046936035,0.30921936,-1.1565247,0.5881653
1626,A,598655871248837,1.6989746,-4.9226685,3.001068,-0.35476685,-1.0926208,0.42459106
1626,A,598655921602841,0.32598877,-5.666992,2.4292755,-0.15509033,-0.65289307,-0.4473114
1626,A,598655971956845,0.97273254,-6.2664185,1.7355804,1.0081177,-0.23823547,-0.01638794
1626,A,598656022310849,6.3549194,-7.9429016,3.6838074,-0.17619324,-0.10546875,0.04208374
1626,A,598656072664853,10.902084,-10.276627,6.056671,-0.9854431,-0.35691833,-0.6055603
1626,A,598656123018857,8.341675,-12.634964,4.078247,-1.1776733,0.015075684,0.17460632
1626,A,598656173372861,6.96434,-13.075256,1.0114899,-0.6187134,1.709259,0.45384216
1626,A,598656223726864,-1.1308136,-11.521545,0.2891388,-0.76005554,2.6603088,-0.18426514
1626,A,598656274080868,-0.12919617,-12.460754,2.018509,-0.9329071,2.4290771,-0.5915222
1626,A,598656324434872,0.091659546,-7.9363403,3.0893707,-1.192627,1.5052185,-0.6852722
1626,A,598656374788876,2.0098724,-5.8167267,1.1881104,-1.3600464,0.94633484,-0.4884491
1626,A,598656425142880,3.1993103,-6.914154,1.9664612,-0.64775085,0.28573608,-0.29840088
1626,A,598656475496884,4.231964,-6.577011,1.4824829,-0.31414795,0.16993713,0.11402893
1626,A,598656525850888,4.4869995,-7.0018463,2.8442383,0.0128479,-0.073776245,0.89286804
1626,A,598656576204892,4.0021515,-7.5493317,5.941803,0.88334656,-0.4968567,0.72795105
1626,A,598656626558896,4.509262,-8.563065,5.007126,1.4441833,-1.0766144,0.278656
1626,A,598656676912900,4.1634674,-7.0926514,3.9802399,2.0477448,-1.0625458,0.43099976
1626,A,598656727266904,2.8996582,-10.611649,1.7592468,1.2490692,-0.38664246,-0.33753967
1626,A,598656777620907,3.4895935,-16.424423,0.08148193,0.4768982,-0.5413513,-0.6387787
1626,A,598656827974911,5.273056,-11.241241,-1.041336,0.569458,-0.8791199,-0.24087524
1626,A,598656878328915,4.488312,-4.748184,0.6233063,0.28752136,-0.9909668,0.44403076
1626,A,598656928682919,1.8898926,-4.7599945,3.92276,-0.38864136,-1.1559296,0.6120453
1626,A,598656979036923,0.052841187,-5.957123,2.001831,0.040603638,-0.58361816,-0.20402527
1626,A,598657029390927,0.7912445,-5.924835,1.1372833,0.6569977,-0.38830566,-0.3005066
1626,A,598657079744931,6.2240906,-6.6832123,3.7341156,-0.38583374,-0.52127075,-0.06724548
1626,A,598657130098935,9.627655,-9.898041,6.6473083,-1.1992493,-0.5925751,-0.39143372
1626,A,598657180452939,7.4192505,-13.259415,3.527008,-0.996933,-0.018188477,0.21762085
1626,A,598657230806943,3.4767456,-10.639633,0.84739685,-0.7095032,1.2872772,0.5458374
1626,A,598657281160947,-1.2484741,-10.485092,1.4584045,-0.8696289,1.8768463,0.003692627
1626,A,598657331514950,0.14225769,-11.70903,2.7362366,-0.7431183,1.7589111,-0.35269165
1626,A,598657381868954,2.0154114,-7.1520996,3.346695,-0.4307251,0.92471313,-0.18444824
1626,A,598657432222958,2.6577606,-4.688919,3.3383636,-0.9441986,0.5072937,-0.1388855
1626,A,598657482576962,3.3290558,-5.864502,2.1748962,-0.8092499,0.33302307,-0.10102844
1626,A,598657532930966,4.652939,-6.638977,1.4602051,-0.3422699,0.116119385,0.23448181
1626,A,598657583284970,4.5393677,-8.127945,3.0965881,-0.41615295,-0.10118103,0.3866272
1626,A,598657633638974,2.841751,-8.586426,5.140579,0.5831299,-0.015975952,0.3903656
1626,A,598657683992978,3.389206,-9.236816,5.3917847,1.3339081,-0.9187622,0.39401245
1626,A,598657734346982,4.002365,-7.6169434,5.7072296,2.1000671,-1.1898193,0.3925476
1626,A,598657784700986,2.9329681,-6.9954987,2.897812,1.6707764,-1.1104889,0.18814087
1626,A,598657835054989,3.0880127,-13.748154,1.1607666,1.0028381,-0.6836853,-0.26257324
1626,A,598657885408993,5.882721,-15.546204,-1.350235,0.6698303,-0.83810425,-0.29795837
1626,A,598657935762997,5.851837,-6.49675,-0.3804474,0.425766,-1.0496979,0.1795044
1626,A,598657986117001,2.7929535,-4.1000977,1.8526154,-0.26979065,-1.1754608,0.8247833
1626,A,598658036471005,0.48220825,-5.3479156,2.3552551,-0.6906738,-0.621109,0.21218872
1626,A,598658086825009,-0.17918396,-5.493866,1.3450012,0.46820068,-0.020568848,-0.7394867
1626,A,598658137179013,1.5126343,-6.8434143,1.427063,0.53829956,0.11543274,-0.5121765
1626,A,598658187533017,8.303162,-7.595352,6.169525,-0.7314911,-0.206604,-0.4353943
1626,A,598658237887021,8.678055,-11.246185,5.7779694,-1.1331329,-0.108184814,-0.14852905
1626,A,598658288241025,8.529755,-16.90593,2.6553802,-0.81741333,0.7125244,0.3747406
1626,A,598658338595029,-0.056274414,-10.6423645,2.3003998,-0.7987976,1.2842255,0.21633911
1626,A,598658388949032,-1.6292114,-13.202026,2.473175,-0.7797699,1.740036,-0.19862366
1626,A,598658439303036,1.8142242,-10.002228,2.9330902,-0.54322815,1.2095184,-0.3551178
1626,A,598658489657040,3.2668152,-4.3509216,3.4757233,-0.70684814,0.82585144,-0.16088867
1626,A,598658540011044,3.5128784,-5.4551544,1.8126831,-1.0852051,0.8044281,-0.2351532
1626,A,598658590365048,2.9534912,-7.0205536,0.69688416,-0.4179535,0.5207825,-0.28752136
1626,A,598658640719052,2.9505005,-7.9454193,1.7864227,-0.45011902,0.38690186,0.22877502
1626,A,598658691073056,3.7801666,-6.5354767,4.0464478,-0.052947998,-0.2725525,0.58461
1626,A,598658741427060,2.6175232,-8.593933,5.3497314,1.1695099,-0.19740295,0.60346985
1626,A,598658791781064,3.8180084,-9.255859,5.6567383,1.4777222,-1.1636505,0.5216675
1626,A,598658842135068,4.4284363,-5.247177,5.334915,1.9178009,-0.8547516,0.2258606
1626,A,598658892489072,3.570816,-9.543686,-0.44918823,1.0461731,-0.9334564,-0.07637024
1626,A,598658942843075,3.4741974,-17.054672,2.7889862,0.5426941,-0.59280396,-0.29826355
1626,A,598658993197079,5.8168945,-11.662155,-1.505539,0.44332886,-0.77211,0.030258179
1626,A,598659043551083,5.8852997,-2.6346893,-1.1180725,0.16499329,-0.8122864,0.52259827
1626,A,598659093905087,2.300171,-3.9021606,1.8210602,-0.6604309,-0.99554443,0.8751373
1626,A,598659144259091,-0.48628235,-4.5047913,2.6669312,-0.40873718,-0.570343,-0.48371887
1626,A,598659194613095,-0.11991882,-5.7187653,1.2064514,0.80003357,-0.56388855,-0.4043274
1626,A,598659244967099,5.5292206,-8.938705,3.362442,-0.21540833,0.6039734,-0.7504425
1626,A,598659295321103,11.635437,-9.138748,7.826172,-0.6700134,-1.1471558,-0.15507507
1626,A,598659345675107,9.425415,-8.256973,3.169342,-0.99620056,0.6242981,0.5540161
1626,A,598659396029111,3.841217,-18.102875,-2.721527,-0.34960938,1.8680267,0.5792694
1626,A,598659446383114,-2.553711,-9.015762,-3.5096588,-0.8605194,2.1114197,-0.38819885
1626,A,598659496737118,-0.7726288,-13.0867,3.9415894,-0.8421173,2.3088837,-0.815567
1626,A,598659547091122,3.5606995,-5.515854,1.9844055,-0.8907776,1.0513611,-0.74723816
1626,A,598659597445126,2.3507996,-4.7691803,2.329956,-0.7096405,1.0747223,-0.29814148
1626,A,598659647799130,2.710083,-7.405899,0.664978,-1.221283,0.47206116,-0.2264862
1626,A,598659698153134,3.906601,-7.4624023,2.0315857,-0.15802002,0.20498657,0.06958008
1626,A,598659748507138,5.4244995,-9.197922,4.1580963,-0.6321564,0.016967773,0.6064606
1626,A,598659798861142,3.8095703,-6.127533,7.1165314,1.4576721,-0.1873169,0.92884827
1626,A,598659849215146,3.9103394,-11.186783,5.469055,1.2555695,-1.8710632,0.48529053
1626,A,598659899569150,3.5200806,-5.0661163,6.0173492,2.2726593,-1.1030884,0.44049072
1626,A,598659949923154,4.44339,-7.892441,0.3652954,0.8740845,-1.4926453,0.037994385
1626,A,598660000277157,4.7201385,-19.056961,1.7675781,0.9999237,-0.12832642,-0.2606659
1626,A,598660050631161,5.9978485,-12.293671,-3.4888916,0.85528564,-1.3616333,-0.15260315
1626,A,598660100985165,4.1748962,-3.5995789,-1.2478333,0.4022522,-0.8525696,0.35017395
1626,A,598660151339169,2.3113708,-3.9987793,3.2058716,-0.4468994,-0.8699646,0.70848083
1626,A,598660201693173,-0.24047852,-5.2884674,1.6857452,-0.23277283,-0.21688843,-0.18273926
1626,A,598660252047177,-0.6710968,-6.074234,0.74845886,0.70054626,-0.3862152,-0.50994873
1626,A,598660302401181,2.9904175,-7.576172,3.0461273,-0.36312866,-0.9324341,0.16085815
1626,A,598660352755185,12.156799,-9.033951,7.355301,-0.7144623,-0.40447998,-0.43881226
1626,A,598660403109189,9.246643,-11.745575,5.1600037,-1.3825684,-0.6233673,0.1598053
1626,A,598660453463193,10.041916,-12.949585,-0.5071411,-0.4840088,1.337143,0.7542267
1626,A,598660503817197,-3.1909332,-8.303543,-0.45907593,-0.5654907,1.9849243,0.12071228
1626,A,598660554171200,0.4350586,-11.502701,2.6280518,-0.7819977,2.0308838,-0.46798706
1626,A,598660604525204,2.7604218,-9.273422,1.8914795,-0.345047,1.7723694,-0.5599365
1626,A,598660654879208,3.7816162,-3.2511597,2.5453186,-0.4971161,0.9673004,-0.21939087
1626,A,598660705233212,3.0740967,-5.5686035,2.6410217,-1.1353455,0.5393677,-0.050430298
1626,A,598660755587216,3.373581,-8.357773,1.4774933,-0.5841217,0.16410828,-0.17977905
1626,A,598660805941220,3.9841766,-7.9170227,2.6692047,-0.43704224,-0.10984802,0.43501282
1626,A,598660856295224,4.310608,-8.878952,5.145508,0.1676178,-0.23747253,0.7084503
1626,A,598660906649228,2.5119934,-7.1593475,6.5918274,1.3457947,-0.20361328,0.5045166
1626,A,598660957003232,4.344391,-9.23024,5.7656403,1.5707245,-1.4236755,0.47836304
1626,A,598661007357236,3.6486511,-4.9188538,4.2466583,1.790802,-0.78863525,0.10041809
1626,A,598661057711239,2.546051,-11.272797,-1.2797852,0.8013916,-0.5843353,-0.18634033
1626,A,598661108065243,4.101471,-15.775986,2.461609,0.48381042,-0.41862488,-0.45698547
1626,A,598661158419247,6.0318604,-8.830994,-3.055481,0.26756287,-0.82676697,-0.050704956
1626,A,598661208773251,3.2545013,-1.9536896,0.5051727,-0.06704712,-0.7847748,0.49501038
1626,A,598661259127255,0.9055786,-6.1214905,1.843689,-0.4202118,-0.7228241,0.4793396
1626,A,598661309481259,-0.26246643,-6.1462708,2.2450867,0.042373657,-0.37101746,-0.5352173
1626,A,598661359835263,1.736908,-6.3212585,2.352066,0.5326233,-0.14730835,-0.34899902
1626,A,598661410189267,7.922119,-7.7254486,5.2509766,-0.8171387,0.20783997,-0.47039795
1626,A,598661460543271,11.333832,-10.300232,5.7074738,-0.886322,-0.18400574,-0.07121277
1626,A,598661510897275,6.7406616,-12.469376,1.899353,-1.1004791,0.44969177,0.58547974
1626,A,598661561251279,1.8963318,-10.749847,-2.9896393,-0.6745453,1.2475281,0.39927673
1626,A,598661611605282,-0.35179138,-10.359146,-1.445221,-0.9910126,1.7375946,-0.364563
1626,A,598661661959286,2.0274506,-9.848755,3.7822723,-0.5789795,1.7073517,-0.5467529
1626,A,598661712313290,3.1711884,-3.6764526,3.3522797,-0.3840027,1.1599274,-0.3563385
1626,A,598661762667294,2.965149,-5.4719086,1.8661346,-0.71954346,0.52830505,0.041015625
1626,A,598661813021298,3.8090363,-7.6360016,1.4242554,-0.6460571,0.037887573,-0.0488739
1626,A,598661863375302,3.70047,-8.392944,1.886795,-0.4282074,-0.013977051,0.12251282
1626,A,598661913729306,4.172455,-8.582397,3.5914307,0.3193817,-0.19450378,0.7777252
1626,A,598661964083310,3.5380554,-7.93956,6.120514,1.3441315,-0.5391693,0.67970276
1626,A,598662014437314,3.3910217,-9.302231,5.7778015,1.6193237,-1.1357574,0.30459595
1626,A,598662064791318,3.881012,-7.0425415,4.000839,2.0733643,-0.6965332,0.11470032
1626,A,598662115145322,3.1421356,-11.415192,0.9091034,0.9934082,-0.3592682,-0.3739624
1626,A,598662165499325,3.9055634,-17.026459,0.3315277,0.28703308,-0.43476868,-0.5004425
1626,A,598662215853329,5.811371,-9.190933,-1.9438782,0.19841003,-0.64837646,-0.089538574
1626,A,598662266207333,3.991043,-3.8753815,0.64230347,0.034317017,-0.8976135,0.3765869
1626,A,598662316561337,1.5686951,-5.4457397,3.7648773,-0.3886261,-1.1090698,-0.15205383
1626,A,598662366915341,0.1410675,-5.2559204,2.5752106,0.26741028,-0.44763184,-0.660202
1626,A,598662417269345,2.5932465,-5.046295,1.7462311,0.5261383,-0.26205444,-0.032485962
1626,A,598662467623349,8.578735,-7.4933624,5.637497,-0.5598755,-0.2872467,-0.095443726
1626,A,598662517977353,10.333679,-11.133209,6.0116577,-1.0507507,0.007827759,-0.29785156
1626,A,598662568331357,7.715683,-14.026718,2.9876404,-1.1314087,0.111190796,0.2845459
1626,A,598662618685361,3.557495,-12.182632,2.0089111,-0.86094666,1.1067505,0.40594482
1626,A,598662669039364,-0.4297638,-10.887619,0.8620453,-0.93188477,1.9095001,-0.18119812
1626,A,598662719393368,1.5569153,-11.161606,2.7589417,-0.65971375,1.5187225,-0.3852234
1626,A,598662769747372,1.714447,-5.834076,2.6394653,-0.5263214,0.6185608,-0.06239319
1626,A,598662820101376,2.6908112,-5.3683014,2.0602722,-0.8314514,0.37554932,-0.0027770996
1626,A,598662870455380,3.8384094,-6.678406,1.6200562,-0.571167,0.2266388,-0.08679199
1626,A,598662920809384,4.1933594,-7.1644287,1.4538879,-0.40899658,0.113098145,0.28141785
1626,A,598662971163388,3.9053497,-8.005798,4.8872986,0.33776855,-0.22215271,0.76364136
1626,A,598663021517392,3.0562744,-8.429764,5.9685364,1.1314545,-0.6444855,0.59562683
1626,A,598663071871396,3.616867,-8.599808,4.9761505,1.7298279,-1.121048,0.44874573
1626,A,598663122225400,3.9831085,-7.1423645,3.9498138,1.6989441,-0.8609314,0.22471619
1626,A,598663172579404,2.3260803,-13.1341095,0.9390564,0.74594116,-0.289917,-0.29190063
1626,A,598663222933407,3.5711365,-17.27945,-0.29595947,0.31358337,-0.4237671,-0.40472412
1626,A,598663273287411,5.465927,-9.434647,-0.34172058,0.26002502,-0.58184814,-0.03643799
1626,A,598663323641415,4.043701,-4.2414093,2.4682312,-0.07551575,-0.7074127,0.5163727
1626,A,598663373995419,1.045578,-5.277893,3.534317,-0.59225464,-0.6425171,0.29255676
1626,A,598663424349423,-0.111068726,-5.7304993,2.1337738,0.38864136,-0.061294556,-0.26426697
1626,A,598663474703427,1.737503,-5.7735443,1.8421936,0.22732544,-0.2591858,-0.14440918
1626,A,598663525057431,8.603226,-7.6487885,4.8322906,-0.49057007,-0.0015869141,-0.33407593
1626,A,598663575411435,9.2812195,-11.368805,7.2352905,-1.0388947,-0.016677856,-0.2758484
1626,A,598663625765439,9.750992,-14.419525,2.408249,-0.8535156,0.77763367,0.33351135
1626,A,598663676119443,4.094803,-11.137375,-0.91044617,-0.7788696,1.8746796,0.08734131
1626,A,598663726473447,0.08161926,-11.533371,0.24757385,-0.8430023,2.1890259,-0.5258789
1626,A,598663776827450,-0.15971375,-9.629547,1.737381,-0.60266113,1.4772644,-0.58517456
1626,A,598663827181454,1.1925507,-5.463394,1.9134216,-0.9408722,1.0027771,-0.23764038
1626,A,598663877535458,2.4550934,-6.517929,2.066452,-0.8677826,0.36686707,-0.14305115
1626,A,598663927889462,2.53154,-7.4653473,1.1416473,-0.73883057,0.22270203,-0.43243408
1626,A,598663978243466,4.289871,-7.9191895,2.4787445,-0.3102417,0.06866455,0.28707886
1626,A,598664028597470,4.689926,-7.377945,5.241577,0.60736084,-0.06288147,0.8134613
1626,A,598664078951474,3.1638184,-7.3802795,5.5830536,0.8109436,-0.07902527,0.20733643
1626,A,598664129305478,2.9654236,-8.61058,4.655258,1.8923798,-1.0935669,0.4547119
1626,A,598664179659482,2.9689941,-6.72818,3.4199371,1.7757263,-0.57603455,0.027145386
1626,A,598664230013486,2.6334229,-13.845932,0.76794434,0.10998535,-0.5733032,-0.32728577
1626,A,598664280367489,6.033737,-15.36319,1.4551849,0.19032288,-0.8932953,-0.36706543
1626,A,598664330721493,6.4873505,-8.0099945,-2.9391785,0.43182373,-0.7870331,0.0337677
1626,A,598664381075497,4.05249,-3.167282,2.758194,0.10447693,-1.0680237,0.73986816
1626,A,598664431429501,1.1300659,-5.5213623,3.3435059,-0.5403595,-1.0989838,0.34542847
1626,A,598664481783505,-0.22132874,-6.109146,2.2242126,0.7037964,-0.2969818,-0.57170105
1626,A,598664532137509,1.0254364,-6.049759,1.7430725,0.79119873,-1.0303345,0.12695313
1626,A,598664582491513,10.929199,-6.926132,4.5369263,-0.5309448,-0.6179199,-0.050613403
1626,A,598664632845517,8.195221,-10.647781,7.246811,-0.90696716,-0.8184662,-0.19273376
1626,A,598664683199521,7.628357,-11.902252,1.0731964,-0.97172546,0.20422363,0.5052948
1626,A,598664733553525,1.3321991,-10.584503,0.229599,-0.4971466,1.8898315,0.1971283
1626,A,598664783907529,-1.0826569,-11.972763,-1.4498444,-0.7030487,2.2098389,-0.41671753
1626,A,598664834261532,0.4268341,-9.6080475,4.2939606,-1.052185,1.4119415,-0.4384308
1626,A,598664884615536,1.9382629,-4.5687714,4.329544,-0.76657104,0.55088806,-0.07672119
1626,A,598664934969540,1.7118683,-5.8081055,1.6516418,-0.70552063,0.5453644,-1.2207031E-4
1626,A,598664985323544,3.3399048,-7.053253,0.7293396,-0.6710968,0.011413574,-0.012680054
1626,A,598665035677548,7.310974,-7.5231323,4.905655,0.19636536,-0.40493774,0.7098541
1626,A,598665086031552,5.5058136,-9.05864,3.5109558,0.087371826,-0.67918396,0.6386719
1626,A,598665136385556,2.2100372,-6.4871063,7.8249664,1.399826,0.06781006,0.50720215
1626,A,598665186739560,3.6847687,-10.109634,4.807663,1.570343,-1.2221832,0.48139954
1626,A,598665237093564,3.9980164,-5.7480774,4.4907837,2.3214417,-0.45573425,-0.058288574
1626,A,598665287447568,1.5366821,-9.724899,-2.0880127,0.444458,-0.29356384,-0.1482544
1626,A,598665337801572,2.0556488,-17.8125,4.775772,0.20562744,-0.9460449,-0.39013672
1626,A,598665388155575,5.877777,-10.04567,-4.25618,0.14491272,-0.7858124,-0.024124146
1626,A,598665438509560,7.1632996,1.138092,-1.741394,0.2638855,-0.967041,0.6631317
1626,A,598665488863564,0.9550781,-4.5677643,3.1283722,-0.5962677,-1.1714783,0.04496765
1626,A,598665539217568,-0.47735596,-5.355789,4.031067,1.251831,0.43437195,-0.761734
1626,A,598665589571572,0.7926941,-5.630249,2.2885895,0.2743225,-1.6622162,0.55448914
1626,A,598665639925576,13.617798,-7.531418,4.8280334,-0.77215576,0.11657715,-0.43676758
1626,A,598665690279580,7.9372864,-13.254242,4.964142,-1.2099304,-0.8961792,-0.2987213
1626,A,598665740633584,7.0954285,-10.090393,0.99046326,-0.9461365,0.65786743,0.5899658
1626,A,598665790987588,-0.47227478,-13.034302,0.6234741,-0.42111206,2.0061646,0.2181549
1626,A,598665841341592,-1.9820404,-10.489441,-0.6112213,-0.77085876,2.0392609,-0.3985443
1626,A,598665891695595,1.9176483,-10.278549,4.641754,-1.0939026,1.5418701,-0.40782166
1626,A,598665942049599,2.4084473,-4.6635284,3.4389496,-1.1260071,0.52056885,-0.23901367
1626,A,598665992403603,2.51445,-5.7427826,1.2852478,-0.94107056,0.35206604,0.112091064
1626,A,598666042757607,3.4120178,-7.420395,0.6212158,-0.6502228,0.23616028,0.14590454
1626,A,598666093111611,6.513733,-6.8353577,3.7984924,-0.11767578,-0.13250732,0.27983093
1626,A,598666143465615,4.3968353,-9.282074,4.2763214,-0.40577698,-0.15660095,0.32443237
1626,A,598666193819619,2.621872,-7.7534637,6.993515,1.1712646,-0.0022125244,0.3347931
1626,A,598666244173623,4.566025,-10.823776,4.371216,1.888382,-1.3806763,0.48719788
1626,A,598666294527627,3.996994,-6.0940704,4.3019867,2.1365204,-1.1290894,0.31355286
1626,A,598666344881631,2.5242004,-8.716034,1.7861023,0.8495636,-1.1524811,-0.051818848
1626,A,598666395235635,5.791031,-15.232254,2.067688,0.6026459,-0.74427795,-0.23530579
1626,A,598666445589638,7.0329437,-11.611923,-3.5510864,0.637619,-1.0231934,0.1377716
1626,A,598666495943642,3.9285278,-2.3096924,1.1703033,0.23876953,-0.8544922,0.5689392
1626,A,598666546297646,0.7549591,-4.5905304,3.1176147,-0.62557983,-0.9369354,0.51345825
1626,A,598666596651650,-0.1806488,-5.587387,2.6001434,0.12158203,-0.4832611,-0.4489441
1626,A,598666647005654,0.0791626,-6.522339,1.43219,0.95365906,-0.24897766,-0.17573547
1626,A,598666697359658,5.8142548,-8.234894,3.6424408,-0.23040771,0.0057525635,-0.31373596
1626,A,598666747713662,12.271088,-10.087814,6.9973907,-0.77575684,-0.54052734,-0.24482727
