Subject-Id,Activity Label,Time stamp,Accel_x,Accel_y,Accel_z,Gyro_x,Gyro_y,Gyro_z
1643,A,710125701298000,0.4622388,-7.2688847,-0.49337405,0.4825648,-0.09267801,0.36005938
1643,A,710125721362000,0.009580079,-5.4414845,-1.2022998,0.5411543,-0.10546118,0.39414784
1643,A,710125741877000,1.2382251,-4.7157936,-2.0142114,0.91825795,-0.15978967,0.57417756
1643,A,710125762005000,1.9279908,-4.761299,-2.6249416,1.1920309,-0.5550028,0.8149273
1643,A,710125781893000,2.1650977,-4.756509,-2.9770093,0.75420725,-0.87351686,0.6711166
1643,A,710125801925000,1.6357985,-4.2343946,-3.0536501,0.037284255,0.02876214,-0.314253
1643,A,710125821989000,1.1400293,-4.138594,-2.694397,0.5209143,0.71585774,-0.76485986
1643,A,710125842169000,1.5184424,-4.4906616,-2.2465284,0.96299905,0.294013,-0.21518342
1643,A,710125862201000,2.335144,-4.751719,-2.4189699,1.804558,0.36751625,0.68176925
1643,A,710125882684000,2.579436,-5.0702567,-3.032095,0.78936094,-0.6040049,1.7331853
1643,A,710125902780000,2.7590625,-5.949229,-4.014053,-0.15126756,-1.736381,0.81705785
1643,A,710125923003000,3.0153298,-6.8928666,-4.169729,-0.42290998,-0.13741912,0.06924219
1643,A,710125943099000,3.3673975,-7.788604,-6.06419,1.3763217,0.9715212,-0.25353295
1643,A,710125963326000,4.033213,-9.441168,-9.05557,2.3371902,1.0322412,-0.23435818
1643,A,710125983422000,4.4451566,-10.432706,-8.909473,-0.32384038,1.5350461,0.29614353
1643,A,710126003595000,2.8261232,-8.595725,-3.1542408,0.6040049,0.8852348,0.9289106
1643,A,710126023691000,2.0285816,-5.894143,-2.3998096,0.3536678,1.1227888,0.71479243
1643,A,710126043928000,3.187771,-3.3434474,-4.6750784,0.38242993,1.3752564,0.5219796
1643,A,710126064024000,2.806963,-3.3362625,-4.263135,0.5187838,0.8628642,0.813862
1643,A,710126084177000,0.5125342,-10.099798,-3.5110989,0.2247708,0.664725,0.8479505
1643,A,710126104273000,4.4427614,-18.858385,-1.8609302,-0.023435818,-0.098004326,0.046871636
1643,A,710126124476000,2.1195924,-16.901653,3.173401,-0.25566345,-1.438107,-0.8511463
1643,A,710126144572000,-4.29427,-14.837147,3.6691701,-0.6423545,-1.6330504,-1.4168017
1643,A,710126164776000,-0.22752686,-18.19736,1.7555494,-2.5768747,-0.78083885,-1.8524948
1643,A,710126184872000,8.157437,-14.101875,7.350315,-2.3712788,0.8873653,-1.933455
1643,A,710126205085000,3.2548318,-6.710845,3.4248781,-1.695901,1.2314457,-1.1984226
1643,A,710126225181000,1.094524,-4.703819,1.4873072,-1.1622036,1.3784522,-1.5701998
1643,A,710126245384000,3.9302273,-5.5301003,1.5926881,-0.7456851,-0.29614353,-1.5297197
1643,A,710126265480000,0.07185059,-9.445957,4.5816727,-0.046871636,-2.1230721,-0.69668293
1643,A,710126285694000,-1.9639161,-15.349681,4.4906616,0.60507023,-1.7875137,-0.18855181
1643,A,710126305790000,2.2345533,-14.968873,-2.8596535,0.85327685,-0.12250541,0.29933932
1643,A,710126326013000,0.80712163,-8.123906,-6.0330544,1.1185277,0.7914915,1.1313108
1643,A,710126346109000,-1.7579445,-6.8737063,-0.93405765,1.804558,-0.64341974,2.198706
1643,A,710126366324000,-1.5040723,-7.4964113,6.1623855,0.5965481,-0.3536678,0.28016454
1643,A,710126386420000,0.0071850587,-8.171807,4.8666797,-0.02130529,1.4274544,-1.2474247
1643,A,710126406631000,2.2752686,-8.679551,-2.42376,-0.12037488,-1.1142666,1.8237327
1643,A,710126426727000,3.3626075,-8.205338,-3.7170706,0.95660746,-0.69774824,1.128115
1643,A,710126446938000,4.0020776,-7.7454934,0.55803955,0.39947417,0.44101948,0.039414786
1643,A,710126467034000,3.7122805,-8.008945,1.8609302,0.49321744,-0.5954828,0.99282646
1643,A,710126487230000,3.7194655,-8.210127,0.3424878,2.171009,0.35260254,0.773382
1643,A,710126507326000,3.4943337,-7.7287283,-1.099314,0.30146983,1.3326459,0.10652645
1643,A,710126527544000,2.7973828,-8.344249,-1.1112891,-0.65513766,0.7882957,-0.2695119
1643,A,710126547640000,3.4991236,-8.806487,-0.31853762,0.90014845,0.07137272,0.21731395
1643,A,710126567790000,6.7395854,-9.493857,0.09101075,0.7861652,0.43569317,0.5571333
1643,A,710126587886000,10.109378,-9.812395,0.016765138,0.47191215,0.7797736,0.77231675
1643,A,710126608100000,9.498648,-6.7635355,0.8885523,0.2396845,0.5773733,0.78936094
1643,A,710126628196000,8.758587,-7.5946074,0.3161426,0.14487597,-0.0053263223,0.24927188
1643,A,710126648471000,6.5479836,-12.775035,0.9627979,-0.033023197,-1.3933659,-0.5773733
1643,A,710126668567000,4.054768,-15.83587,1.6789087,-0.043675844,-1.7044232,-1.1888351
1643,A,710126688782000,1.4944923,-13.491145,-0.68018556,-2.111354,-0.77231675,-1.4764565
1643,A,710126708878000,-1.4154567,-11.508069,-2.5267458,-3.5111117,0.41438788,-1.4572818
1643,A,710126729057000,-1.3268409,-14.695841,-2.7614577,-2.4458473,0.86179894,-0.8681905
1643,A,710126749153000,-4.5409575,-17.71117,0.8981324,-1.7246631,0.74035877,-0.9150622
1643,A,710126769269000,-5.745652,-15.617923,0.06706055,-0.93423694,0.5368933,-1.5659387
1643,A,710126789365000,-2.5027955,-11.273357,-2.1531227,-0.48043427,-0.41971418,-1.5904398
1643,A,710126809579000,0.32093263,-9.587264,-2.3255641,0.07456851,-1.1877699,-0.51665324
1643,A,710126829675000,5.005591,-8.631651,-0.11496094,0.43249738,-0.8127968,0.25672874
1643,A,710126849880000,5.4199295,-7.7862086,0.37601808,0.86179894,-0.15233281,0.8021441
1643,A,710126869976000,5.9204884,-8.990904,-0.4766089,1.7768611,0.010652645,1.7225326
1643,A,710126890199000,3.3218923,-7.7430983,0.8214917,2.288188,0.0777643,1.7672738
1643,A,710126910295000,1.8753004,-4.378096,1.6070582,0.3291667,-0.049002163,-0.8863
1643,A,710126930519000,0.6442603,-2.7015822,0.25866213,-0.3749731,0.18535602,-0.28442562
1643,A,710126950615000,1.3771362,-3.4512234,-1.2909156,-0.24607609,-0.5784386,2.1656826
1643,A,710126970825000,2.675237,-4.902605,-3.0009596,0.002130529,0.14274544,0.68816084
1643,A,710126990921000,2.184258,-4.622388,-2.8764186,-0.13315806,-0.10972224,0.053263225
1643,A,710127011130000,1.583108,-3.1973512,-1.8034497,1.7257284,-0.7765778,0.89162636
1643,A,710127031226000,0.728086,-2.5099807,-0.65384036,3.4823494,0.7073356,0.6135923
1643,A,710127051434000,-0.2562671,-2.7758276,0.59156984,-0.76485986,1.5425029,0.049002163
1643,A,710127071530000,-0.38559815,-4.9720607,0.5005591,-0.71479243,0.15978967,-0.13528858
1643,A,710127091785000,4.157754,-14.319822,-5.4582496,1.1068097,0.39734364,0.094808534
1643,A,710127111881000,14.408438,-29.686268,-15.708934,0.5432849,0.35579833,0.39947417
1643,A,710127132099000,12.463682,-21.682114,-6.8593364,0.6380934,0.49534798,0.7414241
1643,A,710127152195000,4.5864625,-3.408113,-0.5245093,0.26205507,0.26844665,0.8319715
1643,A,710127172395000,-4.169729,-5.5660257,-1.3843213,-0.015978966,-0.4644553,0.17150758
1643,A,710127192491000,-6.1073003,-17.184265,-0.73527104,0.01917476,-1.4626081,-0.5496765
1643,A,710127212700000,-2.320774,-17.354313,8.746612,-0.30253512,-1.3060142,-1.0695255
1643,A,710127232796000,3.9757326,-10.174044,3.04407,-2.2935145,-1.0684602,-1.442368
1643,A,710127253051000,2.7327175,-3.2380664,-1.1831397,-3.218164,0.0053263223,-1.8791265
1643,A,710127273147000,0.77359134,-1.343606,2.2896388,-2.0005667,0.24074976,-1.2314457
1643,A,710127293358000,0.14370118,-1.7794995,3.8607717,-1.2857742,-0.08735169,-1.2783173
1643,A,710127313454000,-0.9196875,-2.9770093,3.66438,-0.88203895,-0.22903186,-1.6650083
1643,A,710127333745000,2.5985963,-8.854387,0.90052736,-0.6743124,-1.1121361,-1.284709
1643,A,710127353841000,5.158872,-16.118483,1.4058765,0.15126756,-1.6692694,-0.64341974
1643,A,710127374037000,-1.2549903,-13.529466,-1.8058448,0.69668293,-1.026915,-0.16405073
1643,A,710127394133000,0.18920656,-7.6041875,-3.06323,1.0365024,-0.101200126,0.479369
1643,A,710127414357000,4.287085,-9.139395,-2.5171657,1.8503643,0.16192019,1.4114754
1643,A,710127434453000,2.914739,-10.109378,1.6573536,2.275405,0.015978966,1.9824572
1643,A,710127454659000,1.6334034,-7.8700347,4.140989,0.54648066,0.04474111,0.0958738
1643,A,710127474755000,1.5519727,-6.337222,1.477727,0.6412892,0.23329292,-0.2066613
1643,A,710127494967000,2.0213966,-7.101233,0.77359134,0.36432046,-0.38456047,1.2389026
1643,A,710127515063000,1.5423926,-7.9873905,0.97956306,0.06498113,0.7233146,0.31851408
1643,A,710127535264000,0.7783814,-8.210127,0.2682422,-0.59122175,0.6487461,0.38029942
1643,A,710127555360000,1.3915064,-8.749006,-0.9436377,0.6956177,-1.8844528,0.98856544
1643,A,710127575565000,2.0525317,-9.134604,-0.48379397,3.3374736,-0.3472762,0.40373522
1643,A,710127595661000,2.7590625,-8.674761,0.9388477,0.50173956,1.9217371,-0.010652645
1643,A,710127615894000,3.9877076,-8.147857,0.95561284,-0.8511463,0.79042625,-0.10546118
1643,A,710127635990000,5.9085135,-9.22801,0.9580079,0.85753787,0.41225734,0.4282363
1643,A,710127656191000,7.932305,-9.77168,1.1975098,0.75633776,0.5954828,0.46019423
1643,A,710127676287000,8.53106,-8.466394,1.5807129,0.31851408,0.680704,0.49534798
1643,A,710127696505000,7.048543,-10.739268,2.1076174,0.26525086,0.18642128,0.6114618
1643,A,710127716601000,5.230723,-15.203585,1.1256592,-0.05965481,-0.67218184,0.1768339
1643,A,710127736811000,3.3506324,-16.051422,-0.4382886,-0.26844665,-1.4572818,-0.5603291
1643,A,710127756907000,1.1496094,-15.941251,-3.3530276,-0.9555422,-1.1824435,-1.2367721
1643,A,710127777119000,-1.9136207,-13.936619,-3.276387,-3.1318774,-0.43888897,-1.9089539
1643,A,710127797215000,-2.955454,-12.446917,-0.7759864,-2.900715,1.0162623,-1.897236
1643,A,710127817432000,-5.5875807,-13.838424,1.7411792,-1.8322549,0.5933523,-1.0823087
1643,A,710127837528000,-5.47262,-11.999048,0.34009278,-0.99069595,0.4463458,-1.293231
1643,A,710127857738000,-2.8644435,-8.234077,-1.7723145,-0.624245,-0.47297743,-1.5297197
1643,A,710127877834000,1.22625,-7.7790236,-1.6525636,-0.29188246,-1.2708606,-1.0141318
1643,A,710127898061000,4.0595584,-8.863968,-0.14130616,0.48469532,-1.4956313,-0.2759035
1643,A,710127918157000,8.006551,-8.55501,1.7842896,0.7946873,-0.63383234,0.535828
1643,A,710127938369000,7.7478886,-8.327483,0.6993457,1.2836437,0.6317018,1.4189322
1643,A,710127958465000,3.8056862,-7.537127,-0.39996827,2.521481,0.39734364,2.4959147
1643,A,710127978696000,1.1112891,-5.8007374,-0.68976563,0.813862,0.49321744,0.84368944
1643,A,710127998792000,0.021555176,-4.509822,-1.1567944,0.101200126,1.2911005,-1.4306501
1643,A,710128019002000,-0.24668702,-3.767366,-1.4058765,-0.92997587,-0.48682585,1.1259845
1643,A,710128039098000,0.43349856,-4.061953,-1.2861255,0.5123922,-0.5965481,0.85327685
1643,A,710128059308000,1.2813355,-4.1242237,-1.0873389,0.9555422,-0.051132694,0.10013486
1643,A,710128079404000,1.2981006,-3.8248463,-0.86220706,0.9374327,-0.65726817,0.9438243
1643,A,710128099614000,0.6490503,-3.06323,-0.86220706,1.965413,0.30040458,0.6668556
1643,A,710128119710000,0.50774413,-2.7782228,-1.1735597,0.7435546,0.85327685,0.38136467
1643,A,710128139925000,2.4908204,-4.25595,-1.3962965,-0.50600064,0.98750013,-0.096939065
1643,A,710128160021000,5.407954,-9.687855,-2.5099807,0.65194184,0.6114618,0.23435818
1643,A,710128180237000,13.452826,-22.132376,-12.609778,0.479369,0.46552056,0.42184472
1643,A,710128200333000,13.321099,-28.855196,-9.7812605,0.43782368,0.7755125,0.6135923
1643,A,710128220542000,4.071533,-12.25292,-0.0071850587,0.37710363,0.40053943,0.7286409
1643,A,710128240638000,-0.7879615,-3.68354,-4.2200246,-0.01917476,-0.479369,0.29933932
1643,A,710128260816000,-6.023474,-12.84928,-3.403323,-0.14487597,-1.3156016,-0.4708469
1643,A,710128280912000,-4.8187795,-17.589024,4.2080493,-0.71585774,-0.8990832,-1.2303804
1643,A,710128301123000,0.8669971,-14.001285,3.6931202,-3.0136333,-0.13315806,-1.784318
1643,A,710128321219000,3.3171022,-6.8665214,-0.4382886,-3.0115025,1.067395,-1.6671388
1643,A,710128341399000,1.8848804,-1.9040406,1.585503,-1.8109496,0.74675035,-1.019458
1643,A,710128361495000,1.7651294,-1.5088624,4.6511283,-1.0407634,0.74035877,-1.2144015
1643,A,710128381704000,0.5939649,-1.6214283,6.0689797,-0.6860303,-0.41864893,-1.4104102
1643,A,710128401800000,0.47181886,-3.7290456,6.6749196,-0.28122982,-1.4008228,-0.9129316
1643,A,710128422007000,2.9482691,-10.494976,5.4199295,0.23755397,-1.5030881,-0.34940675
1643,A,710128442103000,4.373306,-18.367405,-1.7579445,0.5230448,-0.7435546,0.17150758
1643,A,710128462315000,-2.1459377,-12.672049,-10.279425,0.8990832,0.4133226,0.8021441
1643,A,710128482411000,-0.12933107,-8.301138,-6.8497562,1.4817829,0.024501082,1.8769959
1643,A,710128502618000,1.9136207,-10.863809,2.2776637,1.8173412,-0.15126756,2.1933794
1643,A,710128522714000,2.304009,-8.54064,4.6942387,0.05539375,0.37603834,-0.6828345
1643,A,710128542924000,3.6284547,-6.8976564,3.276387,-0.02876214,0.4644553,-0.13422333
1643,A,710128563020000,2.299219,-6.8018556,-0.031135255,0.14487597,-0.23329292,1.4817829
1643,A,710128583228000,1.9351759,-7.7478886,-1.22625,0.36751625,0.17576863,0.49854377
1643,A,710128603324000,2.2058132,-8.272398,0.39517823,0.18961707,-0.6061355,0.27803403
1643,A,710128623510000,1.6860938,-8.111932,1.5615528,1.257012,-0.78936094,0.6956177
1643,A,710128643606000,1.4465919,-8.389753,0.6322852,2.7409256,0.74781567,0.15446335
1643,A,710128663816000,1.7004639,-9.12263,-0.96040285,-0.26844665,0.9821738,0.034088463
1643,A,710128683912000,2.5004005,-8.768167,-0.8095166,-0.37816888,0.3536678,-0.05219796
1643,A,710128704105000,4.679868,-9.357342,0.60354495,0.8127968,0.4261058,0.28975195
1643,A,710128724201000,7.192244,-10.063872,1.5998731,0.49428272,0.56672066,0.49534798
1643,A,710128744402000,8.552615,-7.4101906,2.430945,0.55074173,0.6135923,0.7339672
1643,A,710128764498000,8.279583,-7.661668,1.3771362,0.31851408,0.165116,0.8000136
1643,A,710128784713000,7.055728,-14.101875,0.1820215,-0.07563378,-0.7797736,0.16937704
1643,A,710128804809000,4.615203,-16.657362,-0.7065308,-0.3206446,-1.5094798,-0.63915867
1643,A,710128825672000,2.2273684,-13.771363,-0.57001466,-1.2708606,-1.2911005,-1.6000272
1643,A,710128845800000,1.9734962,-13.48875,-2.548301,-3.1531827,-0.029827405,-2.2892532
1643,A,710128865960000,0.8262818,-11.663746,-2.5123756,-2.3734093,0.9012137,-1.4817829
1643,A,710128886120000,-0.47900394,-10.691368,-1.3483961,-1.7757958,0.19813919,-0.89375687
1643,A,710128906280000,-3.8224514,-13.4671955,0.98435307,-1.0887003,0.068176925,-1.406149
1643,A,710128926440000,-6.0689797,-13.694722,0.9388477,-0.9108011,-1.2325109,-1.28897
1643,A,710128946680000,-1.5783179,-10.2315235,-0.8286768,-0.2876214,-1.7566211,-0.8948221
1643,A,710128966808000,2.9482691,-8.55501,-1.8130299,0.69348717,-1.780057,-0.39734364
1643,A,710128987015000,5.7696023,-9.187295,-0.68976563,1.1100056,-0.44208476,0.34621096
1643,A,710129007143000,6.9383717,-9.024434,0.81191164,1.7875137,1.0769824,1.1824435
1643,A,710129027194000,4.5601172,-7.9802055,0.019160157,2.7387948,0.19387813,2.1049626
1643,A,710129047322000,3.3266823,-8.202942,-1.2502003,0.5496765,-0.13848437,0.13954964
1643,A,710129067519000,0.6682105,-6.6557593,-0.100590825,0.16405073,0.66365975,-0.9235843
1643,A,710129087647000,-0.5412744,-4.3206153,0.2083667,0.083090626,-0.12357068,1.3081448
1643,A,710129107720000,-0.14370118,-3.4967287,-0.9268726,0.8426242,0.20453078,0.84155893
1643,A,710129127848000,0.8981324,-4.4499464,-2.311194,-0.00958738,1.1781825,0.330232
1643,A,710129148041000,1.2693604,-5.0750465,-2.4884255,-0.22264028,-0.28868666,0.86499476
1643,A,710129168169000,0.9053174,-4.5792775,-1.0106983,2.102832,-0.4878911,0.67218184
1643,A,710129188368000,0.086220704,-3.1063404,0.09580079,1.7044232,1.6586168,0.04474111
1643,A,710129208496000,0.55803955,-2.43813,-0.5939649,-0.922519,1.3560816,-0.13741912
1643,A,710129228578000,2.1195924,-4.687053,-1.7699195,0.07350325,0.87032104,0.32277513
1643,A,710129248674000,3.7003052,-10.880574,-2.7255323,0.737163,0.6348976,0.57311225
1643,A,710129268909000,10.921289,-17.883612,-9.1202345,0.30040458,0.9736517,0.48149952
1643,A,710129289037000,11.136841,-20.242706,-12.353511,0.27696875,0.5049353,0.65194184
1643,A,710129309133000,5.0199614,-10.0063925,-1.0322535,0.018109497,-0.14913702,0.44421527
1643,A,710129329229000,2.1698878,-5.9061184,0.1939966,-0.3153183,-1.2420983,-0.28975195
1643,A,710129349457000,0.84544194,-11.860137,-2.308799,-0.25885928,-1.3891048,-0.98110855
1643,A,710129369553000,-3.5637891,-19.473906,-0.76161623,-2.2594259,-0.9108011,-1.7278589
1643,A,710129389774000,-0.364043,-20.209175,4.102669,-3.2575786,0.4825648,-2.1880531
1643,A,710129409870000,4.174519,-10.763218,-1.1184741,-2.038916,0.5113269,-1.2378373
1643,A,710129430002000,-1.0370435,-1.8010547,-0.102985844,-1.4029533,0.25353295,-1.1632688
1643,A,710129450098000,-2.0932472,-1.1376343,4.023633,-0.82877576,-0.2545982,-1.5456988
1643,A,710129470317000,0.33290774,-1.9687061,4.711004,-0.6508766,-1.7374463,-1.1195929
1643,A,710129490413000,1.3603711,-2.2201831,5.5420756,0.033023197,-2.1518342,-0.44208476
1643,A,710129510562000,2.435735,-6.2270513,6.3779373,0.87777793,-1.6575515,0.16724652
1643,A,710129530658000,5.5636306,-15.227535,3.2332766,1.5701998,0.4250405,0.67537767
1643,A,710129550888000,1.3915064,-13.618082,-1.5112574,2.650378,0.9960223,1.5542208
1643,A,710129570984000,-3.65959,-8.765772,-9.297466,2.07407,-0.11930962,1.804558
1643,A,710129591123000,1.961521,-12.609778,-4.9529004,0.15978967,0.35792887,-0.74035877
1643,A,710129611219000,0.50534916,-9.417217,4.27032,0.44208476,0.9353022,-0.09267801
1643,A,710129631363000,0.70174074,-6.478528,5.4103494,0.60293967,-0.9406285,1.1835088
1643,A,710129651459000,2.3830445,-6.964717,3.5661843,1.0844392,1.2058793,0.38562572
1643,A,710129671667000,4.0044727,-8.679551,0.021555176,-0.45486793,0.350472,1.3731259
1643,A,710129691763000,3.3362625,-8.880733,-1.1520045,0.07243799,-1.1664646,0.98430437
1643,A,710129711921000,2.6536818,-8.2197075,-0.4239185,1.639442,0.813862,-0.20453078
1643,A,710129732017000,2.5171657,-8.380174,0.6179151,0.55606806,2.2509038,-0.37923414
1643,A,710129752261000,2.9338992,-9.086704,0.51492923,-0.5795039,0.9054748,-0.07350325
1643,A,710129772357000,2.943479,-8.595725,-0.65384036,0.43569317,0.5933523,0.5209143
1643,A,710129792582000,3.923042,-8.847202,0.16525635,0.92997587,0.9938917,0.58056915
1643,A,710129812678000,7.185059,-11.127261,0.84065187,0.08628642,0.84688526,0.5613944
1643,A,710129832855000,8.456815,-8.978929,0.7711963,0.28016454,0.029827405,0.69348717
1643,A,710129852951000,7.048543,-8.202942,0.7185059,-0.101200126,-1.063134,-0.066046394
1643,A,710129873164000,5.7624173,-12.743899,-0.23710695,-0.3323625,-1.5073493,-1.0439591
1643,A,710129893260000,3.3362625,-14.331798,-1.3771362,-1.7129452,-1.0844392,-1.8365159
1643,A,710129913416000,2.088457,-13.103152,-1.6597486,-2.666357,0.30253512,-2.102832
1643,A,710129933512000,1.1687696,-12.492422,-3.151846,-2.0282636,0.7233146,-1.1792477
1643,A,710129953716000,-0.6945557,-12.492422,-2.0046315,-1.5403724,0.7850999,-1.1835088
1643,A,710129973812000,-4.2751102,-15.220349,1.463357,-0.7350325,0.040480047,-1.9132149
1643,A,710129994020000,-6.3060865,-15.404766,0.6945557,-0.7488809,-1.824798,-0.9896307
1643,A,710130014116000,-1.81782,-10.427916,-0.32572266,-0.128897,-1.9856529,-0.39521313
1643,A,710130034280000,3.3602126,-7.8891945,-0.83586186,0.406931,-1.1504856,0.098004326
1643,A,710130054376000,6.239026,-9.1849,-1.1328443,0.73822826,0.42077947,0.94808537
1643,A,710130074584000,6.0522146,-8.490345,-0.7089258,1.8407769,0.50387007,2.0463731
1643,A,710130094680000,7.448511,-8.859178,0.0047900393,1.9249328,-0.79681784,1.6916399
1643,A,710130114877000,3.1422658,-8.133487,0.41912845,0.1438107,-0.0053263223,-0.91825795
1643,A,710130134973000,0.9244776,-5.927674,0.31374758,0.18429075,0.515588,0.21837921
1643,A,710130155172000,-0.1341211,-3.7937112,-0.31374758,0.28016454,0.20772657,1.7225326
1643,A,710130175268000,-1.3819263,-2.4812403,-0.3281177,-0.05752428,0.75420725,0.16724652
1643,A,710130195471000,-0.8382569,-3.3099172,-0.8286768,-0.28868666,-0.07243799,0.34408042
1643,A,710130215567000,0.4981641,-3.9493873,-2.184258,1.6852484,-0.43888897,0.9374327
1643,A,710130235726000,0.9388477,-3.6308498,-1.8944606,2.8943236,1.2239889,0.18002969
1643,A,710130255822000,0.15088624,-3.295547,-0.45744875,-1.0333065,1.639442,0.04261058
1643,A,710130276014000,-0.52690434,-3.3626075,-0.50534916,-0.2876214,1.0695255,0.23648871
1643,A,710130296110000,0.7951465,-5.0846267,0.39278322,0.9150622,0.8841695,0.47404268
1643,A,710130316268000,3.0105398,-12.173884,-3.0177248,0.39840892,0.9576728,0.3653857
1643,A,710130336364000,13.929434,-29.16655,-18.970951,0.34834146,0.572047,0.5422196
1643,A,710130356553000,10.626702,-26.057814,-7.6449027,0.08628642,-0.16085494,0.37816888
1643,A,710130376649000,7.9634404,-8.121511,5.0822315,-0.11717909,-1.365669,-0.330232
1643,A,710130396838000,0.92926764,-3.908672,-3.0823903,-0.007456851,-1.7662084,-0.94275904
1643,A,710130416934000,-5.4366946,-13.5797615,-6.478528,-2.005893,-1.1153319,-1.5680692
1643,A,710130437078000,-2.2872438,-17.121996,6.0402393,-3.4748926,0.3653857,-2.0399814
1643,A,710130457174000,4.0859036,-10.36804,5.0726514,-2.1976407,0.8213189,-1.3017532
1643,A,710130477363000,2.6009912,-3.4703834,2.550696,-1.4349113,0.56459016,-1.1472899
1643,A,710130497459000,1.7244141,-1.7315992,3.9469924,-0.53795856,0.07989483,-1.748099
1643,A,710130517928000,1.9758912,-2.6345215,4.598438,-0.3685815,-1.7832527,-1.397627
1643,A,710130538024000,0.37122804,-3.9589674,3.8248463,0.13848437,-2.0996363,-0.49534798
1643,A,710130558230000,1.8944606,-8.121511,-0.98195803,0.8447547,-1.7182716,0.26525086
1643,A,710130578326000,6.0210795,-14.932947,-1.9375709,1.1057445,-0.30999196,0.7616641
1643,A,710130598545000,-1.1951149,-11.955938,-0.3520679,1.973935,0.350472,1.5478293
1643,A,710130618641000,-3.2548318,-6.825806,-0.7664063,2.5715485,0.060720075,1.9547603
1643,A,710130638878000,2.3830445,-8.727451,-0.2778223,0.15020229,0.23755397,-0.46019423
1643,A,710130658974000,2.572251,-10.075848,0.6442603,-0.23755397,1.0855045,-0.41864893
1643,A,710130679172000,1.3172607,-8.753797,2.299219,-0.26738137,-0.6040049,1.3475596
1643,A,710130699268000,1.9088306,-7.92512,1.0633887,0.36964676,0.5336975,0.49215218
1643,A,710130719485000,2.4261549,-7.831714,-0.09101075,0.27057716,0.753142,0.39947417
1643,A,710130739581000,2.9961696,-8.006551,0.44547364,1.6362462,-0.22370553,1.1749867
1643,A,710130759795000,2.6393116,-7.807764,0.9436377,2.8932583,0.8511463,0.42077947
1643,A,710130779891000,2.315984,-8.270002,0.9244776,-0.757403,1.5169365,-0.20453078
1643,A,710130800103000,2.8836036,-9.043594,0.021555176,-0.531567,1.0695255,-0.13209279
1643,A,710130820199000,2.9338992,-8.528665,-0.70174074,0.8085357,0.65513766,0.25992453
1643,A,710130840402000,3.0895753,-8.399334,0.12933107,0.40373522,0.71159667,0.49747851
1643,A,710130860498000,6.2342362,-10.861414,1.2957057,0.4111921,0.61572284,0.71798825
1643,A,710130880711000,8.210127,-9.21364,1.1783496,0.29933932,0.05965481,0.70840085
1643,A,710130900807000,7.062913,-8.008945,1.3388159,-0.04580637,-0.74461985,0.040480047
1643,A,710130921018000,5.767207,-12.866045,0.083825685,-0.06178534,-1.4391723,-0.7520767
1643,A,710130941114000,3.8679566,-15.586788,-1.5112574,-1.1174624,-1.160073,-1.4072144
1643,A,710130961320000,2.095642,-14.295872,-1.83219,-3.2682314,-0.12676647,-1.9824572
1643,A,710130981416000,0.14370118,-13.658797,-3.178191,-2.5630262,1.0791129,-1.816276
1643,A,710131001646000,-2.0285816,-12.794195,-2.2106032,-1.6575515,0.4527374,-1.0833739
1643,A,710131021742000,-4.3709106,-14.171331,0.90771246,-0.9534117,0.46019423,-1.5680692
1643,A,710131041951000,-5.2929935,-13.673167,0.68018556,-0.58269966,-0.85327685,-1.6532904
1643,A,710131062047000,-1.9758912,-10.020762,-0.72569096,-0.17470337,-1.8791265,-0.87990844
1643,A,710131082282000,2.1435425,-8.5119,-1.5998731,0.30679616,-1.8375812,-0.09161274
1643,A,710131102378000,5.8031325,-9.321417,-1.1256592,0.5028048,-0.55287224,0.5997439
1643,A,710131122580000,6.7467704,-8.566985,0.22513184,1.1536814,0.24181503,1.3464943
1643,A,710131142676000,6.2989016,-7.462881,0.98435307,2.3712788,-0.46978164,2.4788704
1643,A,710131162889000,4.3565407,-8.6077,0.66342044,0.87351686,-0.23648871,0.84581995
1643,A,710131182985000,1.219065,-7.230564,-0.21315674,0.049002163,0.67324716,-1.0535465
1643,A,710131203195000,0.35925296,-4.9289503,-1.2358302,0.18216023,0.8564726,0.8490158
1643,A,710131223291000,-0.4742139,-3.5973196,-0.9364527,0.3334278,0.165116,0.95234644
1643,A,710131243499000,-0.040715333,-4.016448,-0.60833496,-0.20879184,0.65194184,0.3121225
1643,A,710131263595000,0.7879615,-4.2799,-1.6286134,0.4676511,-0.5273059,0.9576728
1643,A,710131283820000,1.1232642,-3.9661524,-2.064507,2.7654266,-0.4495416,0.92784536
1643,A,710131303916000,1.1687696,-3.7218604,-0.88376224,1.8301244,2.07407,0.22264028
1643,A,710131324120000,0.69695073,-3.4512234,-0.7592212,-1.2676647,1.0705907,-0.18748654
1643,A,710131344216000,0.3544629,-3.6260598,-2.1028273,0.4282363,0.94595486,-0.08841695
1643,A,710131364427000,0.5412744,-5.6738014,-2.9338992,0.64341974,0.7882957,0.29933932
1643,A,710131384523000,4.26553,-13.625267,-4.639153,0.32277513,0.7595336,0.5006743
1643,A,710131404735000,14.738951,-28.124716,-14.315032,0.29933932,0.44101948,0.67537767
1643,A,710131424831000,9.912986,-24.175327,-8.315508,0.18322548,-0.096939065,0.48363006
1643,A,710131445043000,3.7937112,-4.6990285,1.0035132,-0.04474111,-1.1249193,-0.28442562
1643,A,710131465139000,0.62989014,-3.3218923,-0.5412744,-0.084155895,-1.4114754,-0.92997587
1643,A,710131485363000,-2.315984,-12.552298,-4.026028,-1.6788567,-1.0801781,-1.4434333
1643,A,710131505459000,-2.7782228,-16.877703,2.7399025,-3.4631748,0.1768339,-2.0335898
1643,A,710131525670000,0.74006104,-12.660074,3.796106,-2.299906,1.1579424,-1.6160061
1643,A,710131545766000,2.7183473,-6.792276,0.88376224,-1.3763217,0.3834952,-1.2506205
1643,A,710131565964000,2.201023,-3.3314724,2.6776319,-0.721184,0.1736381,-1.6106799
1643,A,710131586060000,2.2728736,-3.2620168,4.641548,-0.3121225,-1.0365024,-1.4125407
1643,A,710131606270000,1.6429834,-3.6691701,4.481082,-0.033023197,-1.8887138,-0.6668556
1643,A,710131626366000,1.9998415,-5.1804276,3.9493873,0.39840892,-1.5542208,0.098004326
1643,A,710131646567000,3.8799317,-10.641072,2.047742,0.69774824,-0.33662358,0.8490158
1643,A,710131666663000,3.027305,-15.203585,0.37122804,1.675661,0.28442562,1.8258632
1643,A,710131686871000,-2.931504,-8.763377,-4.533772,2.6162896,0.3153183,2.4469125
1643,A,710131706967000,-1.7651294,-7.92512,-5.2738333,0.14594123,0.37603834,-0.5187838
1643,A,710131727183000,1.6789087,-11.5751295,0.39996827,-0.10865697,0.7637946,-0.5699165
1643,A,710131747279000,1.4322218,-8.844808,4.3445654,-0.23009712,-0.80533993,1.9281287
1643,A,710131767482000,1.7292042,-6.9024467,4.1146436,0.55287224,0.43675843,0.4857606
1643,A,710131787578000,1.6597486,-6.974297,1.0442286,0.08735169,0.14168017,0.31318775
1643,A,710131807782000,2.672842,-8.612491,-1.2573853,1.2591426,-0.6359629,0.91825795
1643,A,710131827878000,2.3734643,-8.684341,-0.5364844,2.8570392,0.46019423,0.3174488
1643,A,710131848094000,1.6118482,-8.061636,1.3507911,-0.112918034,1.293231,0.09161274
1643,A,710131868190000,1.6429834,-8.586145,1.0178833,-0.6679208,0.6945524,-0.02876214
1643,A,710131888406000,2.1100123,-9.1202345,-0.76401126,0.8905611,0.4016047,0.39095205
1643,A,710131908502000,3.302732,-8.703502,-0.6442603,0.5837649,0.43569317,0.58696073
1643,A,710131928694000,6.5551686,-10.43031,0.48618898,0.4527374,0.5550028,0.71479243
1643,A,710131948790000,8.566985,-10.492581,0.84544194,0.19813919,0.11504856,0.64341974
1643,A,710131968981000,8.52627,-7.213799,0.85741705,-0.08841695,-0.67963874,-0.0127831735
1643,A,710131989077000,7.5035963,-9.948912,-0.06466553,-0.13741912,-1.4817829,-0.7052051
1643,A,710132009288000,6.3947024,-14.568905,-0.0023950196,-0.9108011,-1.257012,-1.361408
1643,A,710132029384000,4.543352,-13.443245,0.06227051,-3.18301,-0.5209143,-2.026133
1643,A,710132050200000,2.816543,-12.906761,-3.4416432,-2.8027108,0.7339672,-1.9984361
1643,A,710132070328000,-0.488584,-13.007352,-3.5637891,-1.5414376,0.27696875,-1.1888351
1643,A,710132090488000,-4.378096,-15.459851,0.09580079,-0.8767126,0.18109496,-1.6010925
1643,A,710132110648000,-7.3575,-17.498013,2.3782544,-0.6508766,-0.7819041,-1.7097495
1643,A,710132130808000,-4.2439747,-12.82533,-0.023950197,-0.16831179,-1.8524948,-1.0588728
1643,A,710132150968000,-0.07185059,-8.265213,-1.8226099,0.6125271,-1.8461033,-0.2066613
1643,A,710132171212000,5.2810183,-8.190968,-0.69216067,0.8127968,-0.6540724,0.5699165
1643,A,710132191340000,7.6017923,-9.022039,-0.35925296,1.3518206,0.350472,1.3134711
1643,A,710132211520000,4.550537,-7.537127,-0.40954837,2.5076325,-0.15446335,2.5545042
1643,A,710132231648000,5.4582496,-8.351434,-0.031135255,0.8202536,0.025566347,1.0833739
1643,A,710132251709000,2.3974147,-7.182664,0.12454102,0.096939065,1.1227888,-1.2335763
1643,A,710132271837000,0.9148975,-4.514612,0.27542725,-0.5411543,0.12357068,1.0610034
1643,A,710132292035000,-0.61552006,-3.175796,0.22992188,0.5219796,-0.19387813,1.0045444
1643,A,710132312163000,-1.1328443,-3.7242556,0.026345216,0.5784386,1.196292,0.28336033
1643,A,710132332223000,-0.5029541,-4.749324,-1.1232642,0.5944176,-0.26631612,1.1121361
1643,A,710132352351000,0.5963599,-4.526587,-1.6884888,1.881257,-0.15020229,0.7520767
1643,A,710132372540000,1.0035132,-3.6068995,-0.12454102,1.1632688,1.1494204,0.15126756
1643,A,710132392668000,0.30416748,-3.0776002,0.2562671,-0.6860303,0.9576728,-0.084155895
1643,A,710132412873000,0.40954837,-3.8464015,0.014370117,0.4910869,0.6870956,0.023435818
1643,A,710132433001000,1.22625,-8.193362,0.3520679,0.51026165,0.46019423,0.39414784
1643,A,710132453066000,8.188572,-18.065634,-8.499925,0.37816888,0.64341974,0.624245
1643,A,710132473162000,14.429994,-28.213331,-20.633095,0.38029942,0.4079963,0.7861652
1643,A,710132493396000,7.6664577,-17.727936,-1.8010547,0.221575,-0.36432046,0.60080916
1643,A,710132513524000,3.7458107,-3.5685792,1.0059083,-0.1917476,-1.3997575,-0.2972088
1643,A,710132533644000,-1.0514137,-5.137317,-2.8836036,-0.6263755,-1.361408,-1.2026836
1643,A,710132553740000,-4.095484,-13.962964,-1.4298267,-2.606702,-0.6103965,-2.0719395
1643,A,710132573960000,-1.8896705,-15.85982,7.1084185,-3.0306773,0.757403,-2.2093585
1643,A,710132594056000,3.1326857,-12.969031,2.7207422,-1.6085494,0.51026165,-1.1749867
1643,A,710132614284000,1.6621436,-7.062913,-2.2608986,-0.95660746,0.41545314,-1.2900352
1643,A,710132634380000,-1.0059083,-3.2093263,1.101709,-0.43782368,-0.3057309,-1.623463
1643,A,710132654504000,-0.23471193,-3.3362625,3.2093263,-0.32170987,-1.8290591,-0.9981528
1643,A,710132674600000,0.13651612,-4.0787187,3.0344899,0.35899413,-1.9686087,-0.36751625
1643,A,710132694815000,0.5029541,-6.1216702,4.6199927,0.81066626,-1.0801781,0.37603834
1643,A,710132714911000,1.8920655,-11.448194,5.860613,1.200553,0.4250405,1.087635
1643,A,710132735046000,2.8955786,-13.51749,1.9064356,2.501241,0.7978831,2.179531
1643,A,710132755142000,-0.6227051,-8.020921,-2.43813,1.7385116,0.07669904,1.5584819
1643,A,710132775343000,0.2802173,-8.557405,-5.127737,-0.0958738,0.45593318,-1.3986923
1643,A,710132795439000,4.0499783,-11.759546,-2.0573218,-1.0812434,0.16618125,1.0887003
1643,A,710132815636000,1.6334034,-8.813672,3.171006,0.12676647,-0.025566347,1.768339
1643,A,710132835732000,0.6730005,-7.5179667,4.4427614,0.29507825,0.32490566,-0.04261058
1643,A,710132855887000,2.816543,-8.052056,3.4703834,0.5368933,-0.066046394,0.37710363
1643,A,710132875983000,3.791316,-8.289163,-0.26105714,2.7537086,0.87990844,0.7669904
1643,A,710132896224000,3.4440382,-8.128696,-1.5495777,1.8194717,1.4572818,0.13954964
1643,A,710132916320000,2.9171338,-8.370594,-0.6682105,-1.438107,1.0279802,-0.020240024
1643,A,710132936456000,2.4453151,-9.230406,0.25147706,-0.011717909,0.48682585,0.42717105
1643,A,710132956552000,1.8465601,-8.830438,0.8382569,0.9821738,0.78723043,0.5635249
1643,A,710132976747000,2.4333398,-7.7574687,0.42152345,0.46019423,0.8064052,0.6359629
1643,A,710132996843000,6.595884,-10.190808,-0.40715334,0.39734364,0.3121225,0.813862
1643,A,710133017067000,9.599238,-10.815908,-0.62510014,-0.03195793,-0.61678815,0.29614353
1643,A,710133037163000,9.108259,-6.631809,1.0705738,-0.28549087,-1.4210628,-0.753142
1643,A,710133057319000,7.4988065,-8.840017,0.97956306,-0.9715212,-1.1089402,-1.5350461
1643,A,710133077415000,5.7767873,-14.509029,0.26345217,-3.0999196,-0.29294774,-2.1060278
1643,A,710133097622000,3.9901028,-14.010865,-0.4406836,-2.6482475,0.8671253,-1.627724
1643,A,710133117718000,2.694397,-12.695999,-3.166216,-1.4359765,0.4644553,-1.0183928
1643,A,710133137881000,0.45026368,-12.312796,-3.6068995,-0.8969527,0.32490566,-1.5488945
1643,A,710133157977000,-1.3747413,-14.2623415,-1.2406201,-0.6498113,-0.8447547,-1.7427727
1643,A,710133178183000,-5.4678297,-16.928,1.9136207,-0.33981937,-1.8919097,-0.83516735
1643,A,710133198279000,-5.5636306,-14.422809,0.9268726,0.14168017,-1.4998924,-0.10865697
1643,A,710133218485000,-0.16286133,-9.074729,-0.85741705,0.46871635,-0.4644553,0.63915867
1643,A,710133238581000,4.1170387,-8.277188,-2.0094216,1.5904398,0.624245,1.4444987
1643,A,710133258765000,4.9457154,-8.669971,-0.859812,2.8208203,0.45912898,2.163552
1643,A,710133278861000,5.654641,-7.671248,-0.8262818,0.8692558,-0.007456851,0.13848437
1643,A,710133299068000,6.720425,-9.424402,0.23950197,0.09374327,0.79894835,-1.4626081
1643,A,710133319164000,2.675237,-7.9706254,0.5748047,-0.36645097,-0.3749731,1.9430424
1643,A,710133339326000,1.5304176,-4.488267,0.25387207,1.0482203,-0.2609898,1.365669
1643,A,710133359422000,-0.45505372,-2.7063723,0.84065187,0.30360037,0.97045594,-0.23648871
1643,A,710133379657000,-1.3172607,-2.8979738,0.732876,-0.2130529,0.29827404,1.0066749
1643,A,710133399753000,-0.26584718,-4.176914,-1.3675562,1.9867182,-0.7052051,0.76485986
1643,A,710133419971000,0.7065308,-5.031936,-2.2297633,1.4913702,1.4711303,0.02876214
1643,A,710133440067000,0.9484278,-4.373306,-0.7807764,-1.1632688,1.6692694,-0.21837921
1643,A,710133460238000,0.30895755,-3.415298,-0.2802173,0.098004326,0.6593987,0.31957933
1643,A,710133480334000,0.22752686,-4.0739284,-0.17962648,0.8404937,0.5752428,0.5901565
1643,A,710133500538000,0.8047266,-7.6401124,0.21555176,0.700944,0.9683254,0.63383234
1643,A,710133520634000,5.5612354,-15.780785,-6.4426026,0.23648871,0.14913702,0.8426242
1643,A,710133540795000,12.894786,-24.139402,-17.131575,-0.05219796,-0.9757822,0.18109496
1643,A,710133560891000,9.759705,-18.626068,-4.4619217,-0.3334278,-1.4104102,-0.7680557
1643,A,710133581104000,5.2738333,-5.6977515,2.7494826,-1.4945661,-1.0865698,-1.470065
1643,A,710133601200000,1.1232642,-3.803291,-0.5029541,-3.307646,-0.068176925,-2.2327943
1643,A,710133621405000,-3.2117214,-12.463682,-5.134922,-2.3105586,1.0950918,-1.7662084
1643,A,710133641501000,-1.7531544,-20.314556,7.9706254,-1.2751216,0.4825648,-1.1387677
1643,A,710133661659000,5.007986,-16.482525,5.503755,-0.7797736,0.015978966,-1.5947009
1643,A,710133681755000,-1.5687379,-4.8139896,-2.6536818,-0.9214538,-1.3784522,-1.3646038
1643,A,710133701945000,-4.378096,-0.84065187,0.6394702,-0.3121225,-2.062352,-0.6689861
1643,A,710133722041000,-1.6860938,-2.9578493,1.587898,0.28336033,-1.8290591,-0.19707392
1643,A,710133742528000,0.4382886,-4.991221,2.2201831,0.54648066,-0.5539375,0.5390238
1643,A,710133762624000,0.977168,-8.349038,2.5315359,1.7353158,1.0120013,1.4753913
1643,A,710133782838000,2.4884255,-12.684024,4.112249,2.9859362,0.28868666,2.2700787
1643,A,710133802934000,3.7338357,-11.045831,3.2308815,0.35153726,0.007456851,-0.00958738
1643,A,710133823150000,0.3161426,-7.209009,1.7818946,0.28122982,1.2293152,-1.1334413
1643,A,710133843246000,0.13172609,-9.369317,-0.9580079,-0.10546118,-0.4048005,1.4391723
1643,A,710133863397000,4.5936475,-11.539205,-5.0846267,0.7680557,0.11504856,0.5816344
1643,A,710133883493000,0.6825806,-8.53106,-2.0549269,-0.022370555,1.1813782,0.294013
1643,A,710133903699000,0.44786867,-7.5083866,3.671565,0.38456047,-0.53795856,1.176052
1643,A,710133923795000,2.44292,-7.3383403,6.2941117,2.5023062,-0.42290998,0.33449304
1643,A,710133944009000,2.5363257,-7.527547,2.816543,0.9651296,1.401888,-0.05752428
1643,A,710133964105000,2.2968237,-9.364527,-3.532654,-0.9768475,1.3177321,-0.14594123
1643,A,710133984329000,3.403323,-9.798025,-3.6955154,0.2545982,0.76912093,0.36645097
1643,A,710134004425000,3.7482057,-9.08431,-0.37362307,0.8223842,0.5539375,0.53263223
1643,A,710134024637000,2.2513185,-8.202942,1.2885206,0.5752428,0.8181231,0.4495416
1643,A,710134044733000,3.0368848,-7.683223,2.090852,0.42397526,0.20133498,0.7030745
1643,A,710134064932000,8.056846,-10.475816,-0.045505375,-0.0053263223,-0.70200926,0.29294774
1643,A,710134085028000,9.8938265,-9.251961,-0.56522465,0.034088463,-1.5052186,-0.5390238
1643,A,710134105236000,8.856783,-5.7887626,0.4143384,-0.5933523,-1.0226538,-1.2591426
1643,A,710134125332000,7.6257424,-9.570498,0.6011499,-3.1265512,0.111852765,-1.8120148
1643,A,710134145542000,6.0570045,-14.820381,-0.22752686,-2.9518478,1.3496901,-1.7779263
1643,A,710134165638000,3.5254688,-13.99889,-2.5147705,-1.9984361,0.90654004,-1.0546118
1643,A,710134185709000,0.96040285,-11.61824,-2.2561085,-1.2058793,0.98856544,-1.5020229
1643,A,710134205805000,-3.0847852,-14.650335,-0.7065308,-0.69029135,-0.5049353,-1.6085494
1643,A,710134225997000,-7.8748245,-19.378103,1.4944923,-0.4612595,-1.7928401,-0.77125144
1643,A,710134246093000,-6.4905033,-15.067068,0.0023950196,0.01917476,-1.7140105,-0.09267801
1643,A,710134266295000,-1.1711646,-9.860296,-1.5807129,0.37710363,-0.53263223,0.5699165
1643,A,710134286391000,4.598438,-10.856624,-1.4274317,1.0450244,0.24927188,1.4146712
1643,A,710134306601000,6.06419,-9.7740755,0.06466553,2.5225463,0.14274544,2.1518342
1643,A,710134326697000,8.432864,-8.962164,0.09580079,1.6160061,0.3206446,0.60293967
1643,A,710134346908000,3.7027004,-9.441168,-0.0023950196,-0.02876214,0.6764429,-0.9683254
1643,A,710134367004000,0.22273682,-7.438931,0.65384036,-0.9736517,0.5422196,1.0120013
1643,A,710134387220000,1.0083033,-4.521797,-0.1101709,-0.19600865,0.350472,1.0695255
1643,A,710134407316000,-0.77359134,-2.6512868,-0.39278322,0.039414786,0.52624065,0.45486793
1643,A,710134427523000,-0.9699829,-2.6033864,-0.5628296,1.0333065,-1.2974921,0.6562029
1643,A,710134447619000,0.038320314,-3.8775368,-1.3771362,3.0328078,0.63702816,0.4282363
1643,A,710134467833000,1.3124708,-4.0787187,-1.8992506,0.87032104,1.4029533,0.33449304
1643,A,710134487929000,1.0394385,-3.0081446,-0.7831714,-1.1930962,0.34301516,-0.14061491
1643,A,710134508200000,-0.10538086,-2.2345533,0.46942386,0.59228706,0.6380934,-0.017044231
1643,A,710134528296000,0.49097902,-2.7782228,0.74006104,0.6221144,0.6583334,0.40053943
1643,A,710134548511000,1.4394068,-6.8665214,1.2645704,0.32490566,0.70840085,0.6380934
1643,A,710134568607000,8.121511,-18.063238,-5.9228835,0.35899413,0.47617322,0.82557994
1643,A,710134588813000,15.000008,-28.402538,-18.824854,0.16192019,-0.039414786,0.6359629
1643,A,710134608909000,7.206614,-16.56635,-5.046306,-0.16192019,-0.9598033,-0.08841695
1643,A,710134629121000,2.684817,-3.8344264,-0.0071850587,-0.26418558,-1.3347764,-0.9054748
1643,A,710134649217000,-1.4346168,-8.995694,-2.7710378,-1.7939054,-0.9374327,-1.6532904
1643,A,710134669426000,-5.589976,-17.804577,-1.4250367,-3.2234902,0.07456851,-2.1379857
1643,A,710134689522000,-5.223538,-19.167341,5.369634,-1.973935,0.4261058,-1.4157364
1643,A,710134709873000,2.047742,-11.821816,2.3447242,-1.1952267,-0.2695119,-1.0801781
1643,A,710134729969000,2.3710694,-3.9613624,0.79754156,-0.69668293,-0.46339005,-1.7832527
1643,A,710134750186000,0.728086,-1.710044,3.5709743,-0.34834146,-1.6458336,-1.526524
1643,A,710134770282000,-0.25866213,-1.695674,4.0859036,0.34301516,-2.2615564,-0.8362326
1643,A,710134790478000,-0.06227051,-1.7675245,4.751719,0.81705785,-1.5414376,-0.08522116
1643,A,710134810574000,1.5974782,-5.4319043,6.1647806,1.0908308,-0.083090626,0.43888897
1643,A,710134830764000,4.998406,-14.559324,4.8307548,1.8759307,0.35792887,1.2239889
1643,A,710134850860000,3.4368532,-15.050303,-1.5543678,2.4639566,0.010652645,2.1965754
1643,A,710134870994000,-3.781736,-7.776629,-7.424561,0.69668293,0.084155895,0.2428803
1643,A,710134891090000,-0.2921924,-10.274634,-5.980364,0.18216023,0.5113269,-0.66579026
1643,A,710134911299000,1.8154249,-10.724898,3.2117214,-0.18002969,0.09054748,1.6096146
1643,A,710134931395000,1.6669337,-7.077283,5.2666483,0.2876214,0.38775626,0.8277105
1643,A,710134951574000,2.6488917,-6.952742,2.943479,-0.27057716,1.1227888,0.17789917
1643,A,710134971670000,3.66438,-8.284373,-0.119750984,0.4889564,-0.07137272,1.0695255
1643,A,710134991880000,4.4403663,-8.339458,-1.1903248,2.851713,0.029827405,0.5496765
1643,A,710135011976000,4.033213,-7.999366,-0.4766089,0.7126619,1.9196066,-0.20133498
1643,A,710135032183000,2.9985645,-8.404124,0.30416748,-1.2080098,1.3443637,-0.14913702
1643,A,710135052279000,2.1124072,-8.557405,0.62031007,0.6870956,0.52624065,0.4889564
1643,A,710135072482000,3.0919704,-8.298743,0.26584718,0.82344943,0.7105314,0.5251754
1643,A,710135092578000,6.5479836,-9.501043,-0.79754156,0.25246766,0.61678815,0.56672066
1643,A,710135112790000,7.92991,-9.467513,0.1341211,0.41438788,-0.29294774,0.76592517
1643,A,710135132886000,8.514295,-6.8976564,1.8633252,0.024501082,-1.0120013,0.13422333
1643,A,710135153092000,8.236472,-8.181387,1.5567628,-0.5091964,-1.0333065,-0.6487461
1643,A,710135173188000,7.1371584,-13.428875,0.81191164,-1.7150757,-0.71585774,-1.4093449
1643,A,710135193391000,4.754114,-15.483802,-0.09340577,-3.5356128,0.2545982,-2.3712788
1643,A,710135213487000,2.5051906,-14.683866,-3.6068995,-2.3116238,1.1792477,-1.8386464
1643,A,710135233704000,-0.3065625,-13.347445,-4.040398,-1.2293152,0.2609898,-1.1984226
1643,A,710135253800000,-2.2345533,-13.670772,-1.9112257,-0.59761333,-0.0958738,-1.6735305
1643,A,710135274606000,-5.4366946,-16.362774,1.4465919,-0.5965481,-1.3528858,-1.3507553
1643,A,710135294734000,-6.9216065,-14.746136,1.0130934,-0.1949434,-2.049569,-0.6103965
1643,A,710135314894000,-2.215393,-8.904683,-1.0322535,0.43569317,-1.8844528,0.035153728
1643,A,710135335054000,3.0129347,-7.2281694,-2.3135889,1.0450244,-0.22690132,0.7414241
1643,A,710135355214000,6.5384035,-9.378897,-1.2478052,2.2903185,1.176052,1.5616777
1643,A,710135375374000,7.3622904,-9.280701,-0.36164796,2.7888622,0.44421527,2.1848574
1643,A,710135395584000,8.202942,-8.808882,0.69695073,0.21411815,0.27164245,-0.56245965
1643,A,710135415712000,4.0739284,-8.085587,0.46463382,-0.4495416,0.5656554,-0.53795856
1643,A,710135435912000,1.3986914,-5.4103494,0.4263135,-0.32277513,-0.8607337,2.0762005
1643,A,710135456040000,-0.5292993,-2.6393116,0.4239185,0.75633776,0.56672066,0.4165184
1643,A,710135476187000,-1.4705421,-1.9663111,0.34488282,0.27164245,0.26205507,0.27803403
1643,A,710135496315000,-0.1939966,-3.8679566,-1.3986914,1.4093449,-0.21624869,0.9853696
1643,A,710135516516000,0.8669971,-4.89542,-2.4692652,2.51722,0.58909124,0.17576863
1643,A,710135536644000,0.87178713,-4.423601,-1.346001,-0.6924219,1.7193369,-0.053263225
1643,A,710135556750000,0.20597169,-3.6092947,-0.4143384,-0.71159667,1.1835088,0.26205507
1643,A,710135576878000,-0.33530274,-3.2500417,-0.5843848,0.86179894,0.6689861,0.58056915
1643,A,710135597070000,0.6610254,-5.199588,-0.60833496,0.6668556,0.77125144,0.58056915
1643,A,710135617198000,3.3099172,-11.8074465,-2.6560767,0.46232477,0.406931,0.7861652
1643,A,710135637394000,10.835069,-23.96696,-15.505357,0.099069595,-0.49960902,0.6295713
1643,A,710135657522000,8.442444,-26.105715,-10.140513,-0.13848437,-1.3560816,-0.2428803
1643,A,710135677611000,6.09293,-12.334352,1.4801221,-0.531567,-1.3177321,-1.1163971
1643,A,710135697739000,1.9902613,-6.696475,-2.8141482,-2.5459821,-0.62531024,-1.9813919
1643,A,710135717931000,-3.6763551,-14.185701,-4.567302,-3.2085764,0.86179894,-2.2594259
1643,A,710135738027000,-3.9948928,-16.829803,4.3421707,-1.736381,0.8266452,-1.2985574
1643,A,710135758118000,0.46702883,-10.360855,4.7086086,-1.0748519,0.20559604,-1.4242586
1643,A,710135778214000,1.2981006,-3.4871485,1.21188,-0.5454154,-0.6199839,-1.8333201
1643,A,710135798437000,0.70174074,-0.9436377,2.9458742,-0.36432046,-1.9899141,-1.0780476
1643,A,710135818533000,1.1520045,-1.4944923,4.8834453,0.11611383,-2.1177456,-0.406931
1643,A,710135838758000,-0.19639161,-2.3638844,5.0630717,0.65513766,-1.1813782,0.40586576
1643,A,710135858854000,-1.0538087,-5.860613,5.736072,1.3635385,0.26205507,1.107875
1643,A,710135878996000,3.04886,-14.4802885,5.158872,2.5853968,0.6040049,1.9419771
1643,A,710135899092000,4.3373804,-17.399818,-4.014053,1.9206718,0.26418558,1.5883093
1643,A,710135919303000,-1.465752,-9.208851,-6.974297,0.16831179,0.42717105,-1.3198626
1643,A,710135939399000,1.1663746,-8.346643,-3.027305,-0.42290998,0.41545314,0.76592517
1643,A,710135959555000,3.1542408,-10.442286,1.7148341,0.47617322,-0.07137272,2.0367856
1643,A,710135979651000,2.4908204,-8.52627,3.9422023,0.30253512,1.3326459,-0.10439592
1643,A,710135999859000,2.7231374,-7.424561,3.4512234,-0.1917476,0.49854377,0.49534798
1643,A,710136019955000,3.300337,-7.5946074,0.32572266,1.3411679,-0.6178534,1.1291803
1643,A,710136040164000,3.432063,-7.719148,-0.4981641,2.7238812,1.325189,0.1587244
1643,A,710136060260000,2.9961696,-7.719148,0.39517823,-0.7286409,2.0655477,-0.2545982
1643,A,710136080410000,2.42376,-8.384964,0.55803955,-0.91186637,0.8213189,0.1949434
1643,A,710136100506000,2.4932153,-8.983719,-0.05748047,0.9406285,0.9054748,0.48363006
1643,A,710136120705000,2.3303542,-8.341853,0.033530276,0.7488809,1.0652645,0.5219796
1643,A,710136140801000,3.1255007,-8.054451,0.5460645,0.294013,0.52837116,0.74035877
1643,A,710136160961000,6.224656,-10.166859,0.45026368,0.02130529,-0.46871635,0.49960902
1643,A,710136181057000,8.382568,-9.934542,0.17244141,-0.08522116,-1.4040185,-0.46978164
1643,A,710136201260000,8.49274,-7.5203614,0.8430469,-0.51026165,-1.325189,-1.1206582
1643,A,710136221356000,7.4676714,-10.617122,1.0538087,-2.630138,-0.67218184,-1.8056233
1643,A,710136241543000,5.5660257,-14.765296,-0.122146,-3.10205,1.1132014,-2.0410466
1643,A,710136261639000,3.3434474,-13.974939,-1.2286451,-1.8461033,1.0887003,-1.2090752
1643,A,710136281804000,1.7914747,-13.002562,-3.187771,-1.1174624,0.5795039,-1.2964269
1643,A,710136301900000,0.16765137,-11.797867,-3.3721876,-0.66579026,-0.34088463,-1.7704695
1643,A,710136322134000,-1.4513819,-12.559483,-1.5998731,-0.6114618,-1.6692694,-1.0045444
1643,A,710136342230000,-5.0367265,-15.522122,1.3915064,-0.018109497,-1.9366508,-0.35579833
1643,A,710136362392000,-5.855823,-14.9161825,0.49337405,0.45380265,-1.0567423,0.40906155
1643,A,710136382488000,-1.1999048,-9.944121,-0.6514453,1.2815131,0.716923,1.135572
1643,A,710136402690000,4.631968,-8.528665,-1.219065,2.711098,0.8788432,1.9164108
1643,A,710136422786000,7.697593,-9.958491,-0.6610254,1.7598169,-0.037284255,1.3305153
1643,A,710136442976000,5.616321,-7.793394,0.8669971,0.00958738,0.2759035,-1.2900352
1643,A,710136463072000,6.8689165,-8.6077,0.93405765,-0.6423545,0.25353295,0.86392945
1643,A,710136483237000,2.2417383,-8.281978,-0.059875492,0.15126756,0.03089267,1.8279938
1643,A,710136503333000,0.6442603,-5.4223247,-0.39996827,0.15446335,0.1917476,0.008522116
1643,A,710136523570000,-0.5508545,-3.1111305,-0.42152345,-0.049002163,-0.10865697,0.52624065
1643,A,710136543666000,-0.5987549,-3.173401,-0.46463382,2.5204158,0.022370555,0.6221144
1643,A,710136563863000,0.3544629,-4.2080493,-1.9902613,2.417085,1.3070794,-0.024501082
1643,A,710136583959000,1.101709,-4.392466,-2.5938063,-1.5009576,1.7992316,-0.068176925
1643,A,710136604153000,1.2094849,-3.788921,-0.5340894,-0.39414784,0.850081,0.5954828
1643,A,710136624249000,0.29698244,-2.8859987,0.09101075,0.74461985,0.6849651,0.5965481
1643,A,710136644452000,-0.16046631,-2.7614577,-1.0705738,0.6668556,0.79894835,0.515588
1643,A,710136664548000,0.45026368,-4.7636943,-0.21555176,0.3930826,0.21092236,0.72651035
1643,A,710136684724000,4.3134303,-13.306729,-4.720584,-0.14594123,-0.70627034,0.18216023
1643,A,710136704820000,14.3749075,-28.74263,-19.454744,0.10759171,-1.6575515,-0.4889564
1643,A,710136725014000,6.3803325,-22.618565,-6.6342044,-0.5123922,-1.3731259,-1.164334
1643,A,710136745110000,4.0571632,-5.894143,2.684817,-2.9987195,-0.55606806,-1.7864485
1643,A,710136765249000,1.6501685,-5.6618266,-4.026028,-3.1467912,1.0972224,-1.9792614
1643,A,710136785345000,-3.3386574,-14.202466,-3.523074,-1.8173412,1.0396981,-1.2655342
1643,A,710136805533000,-3.3410523,-16.892073,3.9661524,-1.1270498,0.66579026,-1.4988271
1643,A,710136825629000,1.8345851,-12.997771,2.0980372,-0.8767126,-0.54435015,-1.7108147
1643,A,710136845847000,3.032095,-6.447393,-1.4154567,-0.51984906,-1.784318,-0.9938917
1643,A,710136865943000,0.3520679,-2.1746778,2.8548634,0.15339808,-1.9824572,-0.28655612
1643,A,710136886097000,-0.06945557,-1.9663111,4.988826,0.4463458,-1.1494204,0.44847634
1643,A,710136906193000,0.5891748,-2.320774,5.096602,1.1696603,0.19281286,1.1867046
1643,A,710136926340000,1.0538087,-3.9781277,6.0617948,2.6450517,0.32170987,1.9750003
1643,A,710136946436000,2.0573218,-10.317744,6.382727,1.6788567,0.004261058,1.0908308
1643,A,710136966928000,3.4057178,-17.19145,2.1243825,0.024501082,0.35579833,-1.2197278
1643,A,710136987024000,-2.083667,-10.506951,-6.143225,-0.023435818,0.39840892,0.6146576
1643,A,710137007252000,-1.7435743,-9.105865,-8.624466,0.5858955,-0.77870834,1.2793826
1643,A,710137027348000,3.7529957,-12.674444,1.3004956,0.51026165,1.0567423,-0.12037488
1643,A,710137047557000,3.0416749,-8.186177,4.6199927,0.010652645,-0.23009712,1.1068097
1643,A,710137067653000,2.548301,-6.8761015,4.263135,1.2538162,-1.6873789,1.0823087
1643,A,710137087847000,2.3303542,-7.5323367,1.7315992,1.8865833,0.8202536,0.09054748
1643,A,710137107943000,2.938689,-8.392149,-0.86220706,-0.07243799,1.1899004,-0.113983296
1643,A,710137128161000,3.2548318,-8.339458,-0.40715334,-0.10226539,0.7797736,0.0958738
1643,A,710137148257000,2.7327175,-8.0305,0.48379397,0.6849651,0.3653857,0.6498113
1643,A,710137168468000,2.579436,-8.710687,0.021555176,0.67537767,0.8000136,0.58909124
1643,A,710137188564000,2.3447242,-8.919053,-0.39996827,0.36218992,0.39734364,0.76912093
1643,A,710137208774000,2.2201831,-8.140672,0.16525635,0.31957933,-0.06924219,0.6764429
1643,A,710137228870000,5.087022,-9.24717,0.5508545,-0.0053263223,-1.1291803,-0.17896444
1643,A,710137249080000,7.9538603,-10.274634,0.19639161,-0.013848438,-1.7033578,-0.99495703
1643,A,710137269176000,8.782537,-7.29523,0.9915381,-1.4572818,-1.3166668,-1.5733956
1643,A,710137289384000,8.169412,-7.838899,0.7544312,-3.5111117,-0.1949434,-2.021872
1643,A,710137309480000,6.981482,-13.644427,0.05508545,-2.3691483,0.680704,-1.4849787
1643,A,710137329714000,3.788921,-15.775994,-0.75203615,-1.5211977,0.27377295,-1.087635
1643,A,710137349810000,2.0118165,-14.006075,-1.3388159,-0.9395633,0.3568636,-1.7534252
1643,A,710137370016000,1.1759547,-12.818145,-3.3841627,-0.52624065,-1.0226538,-1.6245283
1643,A,710137390112000,-0.7113208,-11.225457,-3.0249097,-0.08628642,-1.7566211,-0.64555025
1643,A,710137410338000,-2.299219,-13.254039,-0.45505372,0.38242993,-1.3454291,0.128897
1643,A,710137430434000,-6.361172,-15.543677,1.21188,0.77125144,-0.05219796,0.7914915
1643,A,710137450643000,-3.7362306,-13.0313015,0.2083667,1.788579,0.75101143,1.7587516
1643,A,710137470739000,2.3638844,-8.631651,-1.4489869,2.8165593,0.3888215,2.3425164
1643,A,710137490969000,6.6413894,-8.772957,-1.7268091,0.6498113,0.066046394,-0.4133226
1643,A,710137511065000,6.615044,-8.669971,0.34967285,-0.35579833,0.6988135,-0.5400891
1643,A,710137531307000,7.711963,-8.037686,0.8430469,-0.7957525,0.13635385,1.929194
1643,A,710137551403000,4.3230104,-8.861572,-0.100590825,0.15765914,0.8362326,0.8628642
1643,A,710137571618000,1.9064356,-7.110813,0.10538086,0.3387541,0.6199839,0.10546118
1643,A,710137591714000,0.62749517,-4.061953,0.09580079,1.707619,0.12037488,0.97258645
1643,A,710137611915000,-0.96040285,-2.1435425,0.102985844,2.6450517,1.144094,0.24820662
1643,A,710137632011000,-0.5245093,-3.06323,-0.9029224,-0.5539375,1.5116103,-0.05219796
1643,A,710137652219000,0.45984375,-4.095484,-2.196233,-0.6487461,0.98750013,0.13209279
1643,A,710137672315000,0.5245093,-3.906277,-1.719624,0.87564737,0.6263755,0.44315
1643,A,710137692526000,-0.35925296,-3.3314724,-0.16765137,0.58696073,0.6860303,0.535828
1643,A,710137712622000,-0.732876,-3.173401,-0.31853762,0.23861924,0.6540724,0.79681784
1643,A,710137732834000,0.32572266,-4.184099,-0.050295413,0.16298546,-0.2130529,0.69987875
1643,A,710137752930000,2.088457,-9.759705,-0.46702883,-0.056459017,-1.3305153,-0.35153726
1643,A,710137773102000,11.970308,-24.33819,-13.771363,-0.4889564,-1.3880396,-1.1856394
1643,A,710137793198000,14.058765,-30.035942,-14.518609,-2.4053671,-0.9981528,-1.8791265
1643,A,710137813412000,6.725215,-9.989627,4.5553274,-3.3204293,0.660464,-2.2306638
1643,A,710137833508000,1.7699195,-2.0285816,-1.4897022,-1.8492991,0.8085357,-1.2602079
1643,A,710137853722000,-4.380491,-9.79563,-7.101233,-1.0471549,0.40906155,-1.3848438
1643,A,710137873818000,-5.1732426,-18.147064,3.8176613,-0.5368933,-0.39414784,-1.8077538
1643,A,710137894025000,1.6765138,-15.285015,5.3480787,-0.4708469,-1.8801918,-1.1163971
1643,A,710137914121000,4.6199927,-8.224498,-0.3305127,0.15978967,-2.0154803,-0.45380265
1643,A,710137934323000,1.4178516,-2.1076174,2.3782544,0.6061355,-1.1430287,0.39627838
1643,A,710137954419000,1.0490186,-2.335144,4.615203,1.1462245,0.35260254,1.1558119
1643,A,710137974619000,0.22752686,-3.2260914,4.3301954,2.6035063,0.81066626,2.07407
1643,A,710137994715000,0.9436377,-4.615203,4.2248144,1.8098843,-0.027696876,1.4263891
1643,A,710138014929000,4.0020776,-10.825489,2.201023,0.053263225,0.35579833,-1.5030881
1643,A,710138035025000,2.8764186,-15.220349,-0.52690434,-0.81918836,0.06711166,0.9044095
1643,A,710138055199000,-2.9482691,-9.067544,-3.2524366,0.40266997,-0.27696875,2.0900488
1643,A,710138075295000,-0.9508228,-7.5059915,-2.4141798,0.4676511,0.6487461,-0.2034655
1643,A,710138095518000,3.558999,-11.481724,-1.4609619,-0.07350325,0.43569317,0.535828
1643,A,710138115614000,2.7063723,-9.333391,2.2249732,1.8407769,-0.4314321,1.0418286
1643,A,710138135830000,2.8716285,-7.1323686,4.1314087,2.790993,0.89588743,0.1736381
1643,A,710138155926000,2.2944288,-7.4269557,1.7411792,-1.0759171,1.7726,-0.09161274
1643,A,710138176137000,2.435735,-7.9969707,-0.033530276,-0.5134575,0.92997587,0.29507825
1643,A,710138196233000,2.794988,-8.064031,-0.2562671,0.7669904,0.75101143,0.47617322
1643,A,710138216344000,2.2561085,-8.363408,0.32572266,0.6040049,0.9076053,0.43888897
1643,A,710138236440000,2.1315675,-8.8951025,0.4263135,0.3834952,0.35260254,0.70200926
1643,A,710138256630000,2.4141798,-8.978929,-0.28979737,0.010652645,-0.51665324,0.40266997
1643,A,710138276726000,3.0656252,-8.334668,-0.859812,-0.06178534,-1.6319852,-0.3568636
1643,A,710138296958000,5.326524,-9.417217,0.34009278,-0.25992453,-1.470065,-1.1068097
1643,A,710138317054000,8.1071415,-10.461446,0.6514453,-2.5832663,-0.6199839,-1.8322549
1643,A,710138337235000,8.329878,-7.7407036,0.8813672,-3.1265512,0.9193232,-2.0474384
1643,A,710138357331000,7.5395217,-10.042317,0.62989014,-1.7917749,0.8809737,-1.2655342
1643,A,710138377509000,6.303692,-14.73416,-0.39517823,-1.1387677,0.6849651,-1.4168017
1643,A,710138397605000,3.7266505,-13.5725765,-0.6586304,-0.5571333,-0.21624869,-1.7971011
1643,A,710138417814000,2.5842261,-12.846886,-1.698069,-0.42184472,-1.5733956,-1.0407634
1643,A,710138437910000,1.1400293,-12.245735,-3.3266823,0.026631612,-1.6948358,-0.35153726
1643,A,710138458145000,-0.26584718,-11.967913,-2.1148024,0.31318775,-0.85540736,0.4111921
1643,A,710138478241000,-3.6955154,-14.772481,1.2406201,0.90973586,0.19920446,1.180313
1643,A,710138499049000,-5.7552323,-16.015497,1.3124708,2.122007,0.17044231,2.292449
1643,A,710138519177000,-1.7411792,-11.096126,-0.035925295,1.9547603,0.0958738,1.7459685
1643,A,710138539337000,3.1255007,-8.008945,-1.1567944,0.053263225,0.5933523,-1.2964269
1643,A,710138559497000,6.8808913,-9.455538,-1.1448194,-0.3057309,0.91825795,0.23009712
1643,A,710138579657000,7.726333,-9.580078,-0.49337405,0.31851408,-0.28016454,1.6149409
1643,A,710138599817000,4.960086,-8.152647,0.6945557,0.79042625,0.922519,0.19813919
1643,A,710138620036000,4.160149,-7.790999,0.88376224,0.13635385,0.84368944,0.7318367
1643,A,710138640164000,1.5040723,-5.4486694,0.5891748,0.82557994,-0.2428803,1.0141318
1643,A,710138660371000,-0.5364844,-2.806963,0.366438,2.433064,0.74461985,0.20772657
1643,A,710138680499000,-1.4130616,-2.2465284,-0.100590825,-0.22264028,1.8024274,-0.10865697
1643,A,710138700553000,-0.34488282,-3.7050953,-1.7747096,-0.67218184,1.454086,0.20985709
1643,A,710138720681000,0.7376661,-4.2248144,-2.6393116,0.6892261,0.7414241,0.6956177
1643,A,710138740875000,0.90771246,-3.774551,-0.9316626,0.5773733,1.0396981,0.5763081
1643,A,710138761003000,0.019160157,-3.3650026,0.2706372,0.28229508,0.5656554,0.71159667
1643,A,710138781085000,-0.4023633,-3.408113,-0.85023195,0.20985709,-0.35473305,0.5592638
1643,A,710138801213000,0.23710695,-5.118157,-0.37122804,-0.18002969,-1.3060142,-0.32597092
1643,A,710138821394000,2.4956105,-12.284056,-3.027305,-0.43356264,-1.3411679,-1.0610034
1643,A,710138841522000,13.783338,-29.3342,-20.331322,-2.0271983,-0.95128113,-1.7726
1643,A,710138861823000,10.37283,-27.070908,-6.715635,-3.1904671,0.48149952,-2.202967
1643,A,710138881951000,6.382727,-8.224498,4.140989,-1.9057581,0.813862,-1.3422332
1643,A,710138902073000,1.1615845,-3.9877076,-2.9817994,-1.176052,0.36432046,-1.2463595
1643,A,710138922201000,-4.140989,-12.178675,-4.8139896,-0.7456851,-0.21624869,-1.8801918
1643,A,710138942359000,-2.687212,-15.780785,5.968389,-0.5997439,-1.7587516,-1.2538162
1643,A,710138962487000,1.6669337,-11.211087,3.9541774,0.05219796,-2.018676,-0.4644553
1643,A,710138982603000,1.21188,-4.90979,-0.6514453,0.4165184,-1.3177321,0.3110572
1643,A,710139002699000,0.10777588,-1.7292042,2.3638844,1.0237192,0.18109496,0.9683254
1643,A,710139022955000,0.30895755,-2.5195606,4.663103,2.4106934,0.6583334,1.7939054
1643,A,710139043051000,-0.1580713,-4.524192,4.5720925,2.328668,-0.12463594,1.7917749
1643,A,710139063256000,1.3292359,-7.8197393,4.1625443,0.1736381,0.1438107,-1.284709
1643,A,710139083352000,5.4223247,-13.584552,0.21315674,-0.24820662,0.73822826,-0.03089267
1643,A,710139103497000,4.267925,-14.372513,-2.7734327,0.3206446,-0.44741106,2.3829966
1643,A,710139123593000,-2.0860622,-7.32397,-2.0022364,1.0141318,0.6018744,0.11611383
1643,A,710139143837000,-0.96758795,-6.6461797,-0.6466553,-0.03089267,0.9470201,0.3174488
1643,A,710139163933000,3.6691701,-9.881851,-0.06227051,0.5305017,-0.37710363,1.1195929
1643,A,710139184080000,3.1470559,-9.041199,1.9160157,2.2498386,0.42717105,0.21198763
1643,A,710139204176000,2.6153615,-7.812554,2.2465284,0.039414786,2.2903185,-0.17576863
1643,A,710139224391000,2.4261549,-8.111932,0.20118165,-0.71798825,1.4136059,0.05539375
1643,A,710139244487000,2.7135572,-8.624466,-0.16765137,0.5763081,0.6764429,0.55287224
1643,A,710139264700000,2.6009912,-8.217313,0.40715334,0.7190535,1.0077401,0.5411543
1643,A,710139284796000,2.4740553,-8.186177,0.50534916,0.28868666,0.7030745,0.6487461
1643,A,710139304949000,2.6225464,-8.52148,-0.098195806,0.025566347,-0.28336033,0.5454154
1643,A,710139325045000,3.0871804,-8.741821,-0.7089258,-0.22583607,-1.3496901,-0.38242993
1643,A,710139345251000,3.1350808,-8.008945,-0.5029541,-0.66579026,-1.4349113,-1.1856394
1643,A,710139365347000,4.854705,-9.029224,1.0059083,-2.5481126,-0.6924219,-1.9941751
1643,A,710139385538000,8.701106,-11.220667,0.7664063,-3.0519826,1.0801781,-2.091114
1643,A,710139405634000,9.285491,-8.48316,-0.05269043,-1.7193369,1.164334,-1.2282499
1643,A,710139425851000,7.7287283,-9.522598,0.033530276,-1.1430287,0.95660746,-1.4444987
1643,A,710139445947000,5.3169436,-14.63357,-0.25866213,-0.6625945,-0.28229508,-1.7054884
1643,A,710139466157000,3.2524366,-14.901813,-0.7592212,-0.5305017,-2.0964406,-0.81918836
1643,A,710139486253000,2.2896388,-12.966637,-3.0201197,-0.09374327,-2.078331,-0.2759035
1643,A,710139506412000,-0.026345216,-12.422967,-3.4464333,0.28122982,-1.2026836,0.45806372
1643,A,710139526508000,-3.6068995,-15.7185135,0.47181886,0.99069595,0.34514567,1.2857742
1643,A,710139546718000,-7.3455253,-16.726816,2.0812721,2.5662222,0.6988135,2.1827269
1643,A,710139566814000,-3.04407,-10.9644,-0.54366946,1.7225326,0.083090626,1.0610034
1643,A,710139586993000,1.5160475,-7.422166,-2.327959,0.058589544,0.95660746,-1.4871092
1643,A,710139607089000,4.991221,-8.866363,-1.5280225,-0.40266997,0.66579026,0.6359629
1643,A,710139627291000,6.0665846,-9.057964,-0.30895755,0.4250405,-0.20133498,1.2836437
1643,A,710139647387000,7.7335186,-9.05557,-0.014370117,0.5049353,1.0727214,0.17576863
1643,A,710139667560000,4.0835085,-9.137,0.7496411,0.3121225,-0.018109497,0.98430437
1643,A,710139687656000,1.8154249,-6.2653713,1.2933106,1.5648735,-0.6711166,0.7435546
1643,A,710139707835000,0.7496411,-3.180586,0.4143384,1.7832527,1.3198626,-0.04261058
1643,A,710139727931000,-0.91250247,-2.1603076,0.0,-0.64341974,1.5084145,-0.1587244
1643,A,710139748136000,-1.1064991,-3.66438,-0.67539555,-0.16085494,1.1057445,0.10013486
1643,A,710139768232000,-0.1460962,-4.598438,-1.8226099,0.6423545,0.67218184,0.5592638
1643,A,710139788406000,0.1820215,-3.9829175,-1.8441651,0.57098174,0.9139969,0.6135923
1643,A,710139808502000,0.26345217,-3.4631984,-0.26584718,0.43356264,0.314253,0.813862
1643,A,710139828706000,-0.28261232,-2.9027638,-0.0023950196,0.3121225,-0.54435015,0.5954828
1643,A,710139848802000,-0.06227051,-3.290757,0.4239185,-0.07243799,-1.1068097,-0.25033715
1643,A,710139868974000,1.2933106,-7.438931,1.1807446,-0.37923414,-0.92464954,-0.92038846
1643,A,710139889070000,9.17053,-21.080963,-11.484119,-2.2540996,-0.57311225,-1.6532904
1643,A,710139909244000,19.847528,-37.03898,-14.6671,-3.3523872,0.9214538,-2.2700787
1643,A,710139929340000,7.151529,-17.478853,1.0202783,-1.9526298,1.3315805,-1.5648735
1643,A,710139949531000,-0.7879615,-2.6321266,-1.6405884,-1.2634037,0.6679208,-1.2048141
1643,A,710139969627000,-7.6401124,-12.921131,-7.30481,-0.8586032,0.043675844,-1.5936357
1643,A,710139989789000,-6.969507,-18.33627,6.7491655,-0.45380265,-1.2282499,-1.220793
1643,A,710140009885000,-0.22273682,-10.308165,7.086863,0.05006743,-1.897236,-0.62317973
1643,A,710140030080000,3.1302907,-3.8464015,1.6214283,0.3174488,-1.3496901,0.18429075
1643,A,710140050176000,2.4069948,-1.214275,2.2968237,0.6892261,0.037284255,1.0013486
1643,A,710140070368000,1.9591261,-1.1951149,4.026028,1.917476,0.5187838,1.9526298
1643,A,710140090464000,0.031135255,-1.7651294,4.9624805,2.5278726,0.21411815,2.2253375
1643,A,710140110621000,-0.36883304,-4.6654983,5.149292,0.2545982,-0.039414786,-0.71585774
1643,A,710140130717000,3.2380664,-13.079203,3.9901028,-0.53795856,0.6775082,-0.33449304
1643,A,710140150904000,5.5612354,-18.472786,-2.4572902,-0.46658584,0.25992453,1.546764
1643,A,710140171000000,-1.5615528,-10.933265,-7.5706573,0.330232,0.80747044,0.53263223
1643,A,710140191463000,-0.95561284,-8.171807,-3.9469924,0.39095205,0.30679616,0.40586576
1643,A,710140211559000,1.0490186,-9.323812,3.532654,1.470065,-0.1768339,1.196292
1643,A,710140231768000,1.0633887,-8.140672,4.4643164,2.6333337,0.5603291,0.45167214
1643,A,710140251864000,2.4333398,-7.1778736,2.8141482,-0.28122982,1.8120148,-0.046871636
1643,A,710140272076000,3.8751419,-7.94907,0.57001466,-0.8223842,0.96619487,-0.020240024
1643,A,710140292172000,3.2093263,-8.461604,0.22273682,0.78723043,0.7233146,0.2790993
1643,A,710140312417000,2.802173,-7.9706254,0.46942386,0.572047,0.6689861,0.43782368
1643,A,710140332513000,2.4932153,-7.9802055,0.19639161,0.4282363,0.6317018,0.71585774
1643,A,710140352675000,2.339934,-9.16095,0.26584718,0.22796659,0.05539375,0.74035877
1643,A,710140372771000,2.5123756,-8.923843,-0.45984375,0.035153728,-0.94275904,-0.07243799
1643,A,710140392979000,4.4595265,-8.878338,0.059875492,-0.094808534,-1.3528858,-0.81066626
1643,A,710140413075000,8.006551,-10.966795,0.47181886,-1.0705907,-1.0546118,-1.2793826
1643,A,710140433281000,8.866363,-9.15616,0.5484595,-3.2756882,-0.1917476,-1.8546255
1643,A,710140453377000,7.4748564,-9.041199,0.6394702,-2.7590349,1.1121361,-1.6628778
1643,A,710140473615000,4.9169755,-13.943805,0.25866213,-1.5606124,0.8064052,-1.099353
1643,A,710140493711000,3.2620168,-14.920972,-0.12693603,-0.9619338,0.664725,-1.3923006
1643,A,710140513922000,2.3710694,-12.746294,-1.0059083,-0.33449304,-0.49428272,-1.6745957
1643,A,710140534018000,0.5125342,-11.903248,-3.0249097,-0.33449304,-1.707619,-0.8447547
1643,A,710140554236000,-1.83219,-14.451549,-2.1076174,0.07989483,-1.6682042,0.0031957934
1643,A,710140574332000,-6.600674,-16.95674,1.9423609,0.49321744,-0.69987875,0.6040049
1643,A,710140594545000,-4.7876444,-13.055252,0.9532178,1.2016183,0.18961707,1.2729911
1643,A,710140614641000,-0.32332766,-8.51669,-1.1160791,2.485262,0.6103965,2.0687435
1643,A,710140634850000,2.9506643,-8.260423,-1.3939015,1.506284,0.43888897,0.7435546
1643,A,710140654946000,5.9061184,-8.583751,0.6227051,0.020240024,0.2790993,-1.3049489
1643,A,710140675156000,9.2256155,-9.599238,1.2334352,-0.51452273,-0.33129725,1.4274544
1643,A,710140695252000,3.427273,-9.129815,-0.050295413,0.5816344,-0.3749731,2.1283984
1643,A,710140715460000,1.1783496,-7.0437527,0.27542725,-0.07882957,0.45699844,-0.30679616
1643,A,710140735556000,0.8167017,-4.5936475,0.14370118,-0.2545982,-0.19281286,0.039414786
1643,A,710140755753000,-0.7711963,-3.2117214,-0.86220706,2.7888622,-0.23329292,0.7307714
1643,A,710140775849000,-1.1088941,-3.8416114,-1.5399976,2.352104,1.2346416,0.29614353
1643,A,710140796091000,-0.047900394,-4.8091993,-1.3292359,-1.365669,1.3763217,-0.01917476
1643,A,710140816187000,0.46463382,-4.095484,-0.81909674,0.060720075,0.30360037,0.24607609
1643,A,710140836402000,0.32093263,-3.3123121,-0.043110352,0.9310411,0.4857606,0.44208476
1643,A,710140856498000,0.21794678,-3.2021413,0.8981324,0.35260254,0.535828,0.47297743
1643,A,710140876711000,0.8981324,-3.6500099,0.7185059,0.294013,0.25992453,0.7275756
1643,A,710140896807000,1.8920655,-6.236631,0.5005591,0.111852765,-0.3355583,0.6562029
1643,A,710140917020000,4.8355446,-13.895904,-2.4788454,-0.24181503,-0.8127968,-0.1470065
1643,A,710140937116000,15.828685,-30.136532,-20.422333,-0.9555422,-0.46658584,-0.9768475
1643,A,710140957361000,12.159514,-25.104595,-4.054768,-2.4096282,-0.19920446,-1.8471686
1643,A,710140977457000,3.4344583,-2.799778,-0.2706372,-3.2096417,0.6530071,-2.4106934
1643,A,710140997664000,-2.6153615,-1.5184424,-2.2680836,-1.5606124,0.74461985,-1.5393071
1643,A,710141017760000,-7.3718705,-13.337864,-4.0044727,-0.8863,-0.29827404,-1.2655342
1643,A,710141037974000,-6.368357,-19.871477,9.204061,-0.61678815,-0.39627838,-1.639442
1643,A,710141058070000,5.4534597,-16.492105,5.8198977,-0.39414784,-1.4306501,-1.2420983
1643,A,710141078281000,5.6738014,-6.356382,-0.49576905,0.22050974,-2.0271983,-0.67537767
1643,A,710141098377000,-0.43589357,-1.1615845,0.89573735,0.7126619,-1.6149409,0.11824436
1643,A,710141118578000,-1.2022998,-1.5256275,2.3495142,1.0343717,-0.04474111,0.90973586
1643,A,710141138674000,-1.829795,-2.3926246,2.3543043,2.1486385,0.77125144,1.8748654
1643,A,710141158885000,0.17244141,-5.5253105,4.0499783,2.2210765,0.3057309,2.010154
1643,A,710141178981000,4.5744877,-13.766573,3.65959,-0.03089267,0.28655612,-0.58056915
1643,A,710141199184000,2.6656568,-14.837147,-0.23231691,0.2034655,1.0034791,-0.3888215
1643,A,710141219280000,-2.090852,-7.793394,-2.1315675,0.14274544,-0.23755397,1.2229236
1643,A,710141239492000,0.7927515,-7.9706254,-2.2561085,0.78296936,0.4165184,0.25353295
1643,A,710141259588000,3.5110989,-10.909314,-1.710044,0.05539375,0.7914915,0.55074173
1643,A,710141279795000,1.1951149,-9.457932,1.8154249,0.74781567,-0.15020229,1.0396981
1643,A,710141299891000,1.9447559,-7.391031,3.0225148,2.0612867,0.5858955,0.12037488
1643,A,710141320105000,3.0536501,-7.2329593,2.0309765,0.15020229,1.7331853,-0.16192019
1643,A,710141340201000,3.0296998,-7.3814507,1.587898,-0.4016047,1.470065,-0.08628642
1643,A,710141360410000,2.555486,-7.9921803,0.18920656,0.6785734,0.8543421,0.5592638
1643,A,710141380506000,2.6177564,-9.311836,-1.1520045,0.6402239,0.90973586,0.65513766
1643,A,710141400730000,2.0237916,-9.259146,-0.974773,0.314253,0.8042747,0.61678815
1643,A,710141420826000,2.8764186,-8.222102,0.117355965,0.2876214,-0.18216023,0.6487461
1643,A,710141440995000,6.943162,-9.627979,0.6179151,-0.09374327,-1.1909657,-0.07669904
1643,A,710141461091000,9.417217,-10.566827,0.28740236,-0.57417756,-1.196292,-0.9715212
1643,A,710141481299000,8.234077,-7.4916215,0.49576905,-1.7694043,-0.6870956,-1.5329156
1643,A,710141501395000,6.5479836,-10.133328,-0.2562671,-3.1148334,0.36325517,-1.9217371
1643,A,710141521608000,4.533772,-15.217955,-1.4010864,-1.8844528,1.3848438,-1.3369069
1643,A,710141541704000,2.6896071,-13.675562,0.24908204,-1.4434333,0.51665324,-1.0503508
1643,A,710141561912000,1.3915064,-10.942844,-1.343606,-1.2676647,0.32170987,-1.3422332
1643,A,710141582008000,0.76161623,-12.17149,-4.423601,-0.80747044,-0.14594123,-1.5701998
1643,A,710141602220000,-2.8596535,-15.8694,-1.0394385,-0.8863,-1.220793,-0.6295713
1643,A,710141622316000,-6.9240017,-18.238075,2.327959,-0.66365975,-0.6625945,0.2609898
1643,A,710141642524000,-4.095484,-14.039605,0.8813672,0.041545313,-0.24181503,0.850081
1643,A,710141662620000,0.89573735,-8.947793,-1.1208692,1.0450244,-0.13954964,1.5126755
1643,A,710141682834000,5.1540823,-8.760982,-1.0490186,2.038916,0.57417756,1.8311896
1643,A,710141702930000,6.476133,-8.475974,-0.07424561,1.6000272,0.6125271,0.75633776
1643,A,710141723793000,9.206455,-9.22801,-0.76161623,0.57311225,-0.08735169,-0.26631612
1643,A,710141743921000,2.5267458,-8.289163,0.24908204,-0.0053263223,0.6306366,0.531567
1643,A,710141764081000,1.2430152,-5.9468336,1.3675562,-0.39627838,0.850081,0.8341021
1643,A,710141784241000,0.852627,-3.6548,0.7759864,-0.18002969,0.41864893,0.34621096
1643,A,710141804401000,-0.6442603,-2.5890162,-0.20357667,0.6689861,-0.43675843,0.62531024
1643,A,710141824561000,-1.2957057,-3.6164796,-1.219065,2.3691483,0.05752428,0.7094661
1643,A,710141844680000,-1.0753639,-4.9433208,-1.9088306,2.0250678,1.4988271,-0.008522116
1643,A,710141864808000,-0.30177248,-4.30385,-1.3795313,-0.9651296,1.2836437,-0.10226539
1643,A,710141885012000,-0.23231691,-2.955454,0.17723145,0.06498113,1.1270498,0.07882957
1643,A,710141905140000,-0.55803955,-2.8524685,0.91010743,0.8383631,0.8319715,0.5368933
1643,A,710141925195000,-0.031135255,-4.2032595,1.453777,0.5219796,0.8948221,0.5795039
1643,A,710141945323000,1.4010864,-9.079519,2.943479,0.38775626,0.6018744,0.82344943
1643,A,710141965518000,8.008945,-19.617605,-6.495293,0.18216023,0.27377295,0.6764429
1643,A,710141985646000,14.801221,-30.428724,-24.117847,-0.0127831735,-0.45380265,0.010652645
1643,A,710142005715000,8.835227,-17.371077,-1.3579761,-0.21624869,-0.79255676,-0.6775082
1643,A,710142025843000,4.6128078,-2.9506643,1.2406201,-1.176052,-0.64555025,-1.180313
1643,A,710142046075000,-1.5567628,-5.0343313,-4.138594,-2.7441213,-0.24820662,-1.7086842
1643,A,710142066203000,-6.0019193,-15.713724,-1.9806812,-2.5768747,0.91825795,-1.6160061
1643,A,710142086359000,-2.5195606,-19.155367,8.631651,-1.3241237,0.6317018,-0.8330368
1643,A,710142106487000,5.879773,-11.819422,2.6321266,-1.180313,0.25885928,-1.2655342
1643,A,710142126567000,1.468147,-2.703977,-0.9532178,-0.7765778,0.2066613,-1.845038
1643,A,710142146695000,-1.1711646,-0.9196875,2.8476784,-0.5954828,-1.2538162,-1.0247844
1643,A,710142166908000,-0.67539555,-2.0525317,3.791316,-0.42290998,-1.1909657,-0.28122982
1643,A,710142187036000,-0.58198977,-3.3099172,3.5805542,0.08522116,-0.21837921,0.0479369
1643,A,710142207126000,1.7268091,-7.5131764,4.0523734,0.67005134,0.14168017,0.44421527
1643,A,710142227222000,5.1971927,-15.366446,1.7579445,1.2410331,0.31318775,0.96299905
1643,A,710142247444000,2.0190015,-13.395345,-1.6549586,1.0066749,0.29294774,0.5901565
1643,A,710142267540000,-3.178191,-6.5791187,-1.8848804,0.6146576,-0.34408042,-0.57417756
1643,A,710142287761000,0.48379397,-8.990904,-2.6081765,0.84155893,-0.9470201,1.107875
1643,A,710142307857000,2.8907888,-10.942844,-0.28979737,0.7233146,0.05539375,1.6564863
1643,A,710142327984000,1.0849439,-8.384964,2.7566676,-0.18429075,1.1558119,0.04261058
1643,A,710142348080000,1.7172291,-7.1611085,3.515889,0.48469532,0.16618125,1.2793826
1643,A,710142368285000,4.1553593,-7.94428,1.951941,0.902279,-1.3166668,1.4444987
1643,A,710142388381000,4.402046,-8.044871,0.25866213,0.9938917,-0.50813115,0.5699165
1643,A,710142408487000,3.9206471,-7.817344,-0.79993653,0.9171927,0.99708754,0.094808534
1643,A,710142428583000,3.1542408,-8.377779,-0.49097902,1.2069446,0.09374327,0.41758367
1643,A,710142448913000,1.7363893,-8.950189,0.39517823,0.7105314,0.4346279,0.4495416
1643,A,710142469009000,1.3124708,-8.217313,0.7376661,0.32597092,0.8809737,0.386691
1643,A,710142489188000,4.7133985,-8.890313,-0.25147706,0.40053943,0.38136467,0.60293967
1643,A,710142509284000,8.401729,-11.103311,-0.5484595,0.56459016,-0.043675844,0.8223842
1643,A,710142529434000,8.490345,-7.9730206,1.1352394,0.25353295,-0.165116,0.40373522
1643,A,710142549530000,7.1084185,-7.917935,2.0118165,-0.14487597,-0.8127968,-0.2790993
1643,A,710142569752000,5.479805,-13.438456,0.9963282,-0.5965481,-0.8000136,-0.93636745
1643,A,710142589848000,3.532654,-15.637083,-0.488584,-2.1198764,-0.55287224,-1.5275892
1643,A,710142609962000,2.5027955,-14.865887,-3.0201197,-3.2639704,0.2514024,-1.9952403
1643,A,710142630058000,-0.24668702,-13.033697,-3.7098854,-1.8908445,1.0290455,-1.4104102
1643,A,710142650270000,-2.215393,-11.8074465,-2.44771,-1.0759171,0.05752428,-1.0130665
1643,A,710142670366000,-4.4499464,-14.899417,1.0609937,-0.664725,-0.21731395,-1.5361114
1643,A,710142690592000,-7.0437527,-15.565232,1.0083033,-0.588026,-1.1824435,-1.4647386
1643,A,710142710688000,-3.551814,-11.476934,-0.5628296,-0.07137272,-1.716141,-0.9257148
1643,A,710142730862000,2.3830445,-8.866363,-1.9423609,0.24820662,-1.2729911,-0.2545982
1643,A,710142750958000,8.205338,-9.948912,-0.27542725,0.49215218,0.07137272,0.39947417
1643,A,710142771093000,6.840176,-8.234077,0.9627979,1.2389026,0.1257012,1.0812434
1643,A,710142791189000,6.6174393,-7.565867,0.73527104,1.9813919,-0.3568636,1.635181
1643,A,710142811351000,2.9051588,-8.188572,-0.06945557,1.3571469,0.043675844,0.87777793
1643,A,710142831447000,1.1088941,-6.07856,-0.2802173,0.06178534,0.3834952,-0.50600064
1643,A,710142851656000,-0.117355965,-3.6883302,-0.5029541,0.84155893,0.47830373,0.35579833
1643,A,710142871752000,-0.7185059,-2.926714,-0.47181886,0.9534117,0.19920446,1.2101405
1643,A,710142891957000,0.07664063,-3.786526,-1.4465919,0.05006743,0.6764429,0.48363006
1643,A,710142912053000,0.4526587,-3.9901028,-2.1435425,-0.54435015,0.8852348,0.74035877
1643,A,710142932201000,0.33769777,-3.4009278,-0.98195803,0.76592517,0.624245,0.95234644
1643,A,710142952297000,-0.27542725,-2.7542725,0.6346802,1.9100192,0.829841,0.3089267
1643,A,710142972490000,0.17962648,-2.692002,0.13651612,0.3920173,2.198706,-0.43249738
1643,A,710142992586000,2.0309765,-4.629573,-0.38559815,-0.5368933,1.3667343,-0.28549087
1643,A,710143012783000,4.5601172,-11.999048,-1.5687379,0.42077947,0.8330368,0.36325517
1643,A,710143032879000,14.336588,-26.76195,-16.068186,0.7435546,1.1472899,0.5816344
1643,A,710143053079000,9.201666,-28.230097,-9.845925,0.3206446,0.98430437,0.5944176
1643,A,710143073175000,0.44307864,-10.236314,0.39757326,0.350472,0.3834952,0.8309063
1643,A,710143093411000,-0.56522465,-7.414981,-3.671565,0.31638354,-0.22796659,0.4079963
1643,A,710143113507000,-3.4703834,-13.622871,-3.5206788,-0.1438107,-1.0215886,-0.49960902
1643,A,710143133671000,-2.3662794,-13.97015,4.27032,-0.4111921,-1.5020229,-0.98856544
1643,A,710143153767000,1.2717555,-8.473579,3.5757644,-1.5158713,-0.81705785,-1.3166668
1643,A,710143173957000,1.22625,-3.5613942,-0.0047900393,-2.9859362,0.037284255,-1.3699301
1643,A,710143194053000,1.1208692,-1.9160157,2.4812403,-2.1145499,0.6562029,-0.8841695
1643,A,710143214249000,2.6345215,-2.9578493,5.704937,-1.623463,0.4261058,-0.82877576
1643,A,710143234345000,2.9794044,-4.5409575,6.686895,-1.3837786,0.85327685,-1.5084145
1643,A,710143254518000,4.2176294,-7.510782,4.6822634,-1.1185277,0.47617322,-2.0485036
1643,A,710143274614000,7.690408,-12.391831,0.38320315,-1.0460896,-0.8117315,-1.0354371
1643,A,710143294805000,3.8224514,-13.646822,-3.7003052,-0.93636745,-0.51452273,-0.2695119
1643,A,710143314901000,-2.924319,-10.154883,-6.8928666,-0.6785734,-0.29933932,0.13422333
1643,A,710143335031000,-0.93405765,-9.402847,-1.81782,0.10013486,-0.4016047,0.4878911
1643,A,710143355127000,1.214275,-9.606423,2.2824538,1.1920309,0.624245,0.3920173
1643,A,710143375347000,0.9244776,-7.726333,3.544629,1.3763217,0.42397526,0.13954964
1643,A,710143395443000,2.076482,-7.072493,3.671565,1.3060142,-0.6295713,0.17576863
1643,A,710143415955000,2.1483326,-7.3000197,0.6227051,1.6777915,-0.30146983,1.2665994
1643,A,710143436051000,2.5099807,-8.198153,-0.86220706,0.44101948,0.97471696,1.3038837
1643,A,710143456257000,2.6225464,-8.57417,0.244292,-0.33449304,1.5446335,-0.3174488
1643,A,710143476353000,2.4980054,-8.346643,0.7831714,0.479369,0.9821738,0.96619487
1643,A,710143496486000,2.4045997,-8.547825,0.53169435,1.144094,-0.3057309,1.9100192
1643,A,710143516582000,2.2513185,-8.753797,0.14130616,1.1622036,0.14807177,0.96619487
1643,A,710143536797000,2.703977,-8.583751,-0.021555176,-0.07137272,2.2093585,0.13848437
1643,A,710143556893000,4.758904,-9.560919,0.28979737,0.34408042,0.8905611,-0.05219796
1643,A,710143577104000,7.168294,-10.075848,0.122146,1.3326459,0.37923414,0.4111921
1643,A,710143597200000,7.9347,-7.9610453,0.6562354,0.700944,0.572047,0.73609775
1643,A,710143617409000,7.683223,-9.7621,0.51013917,0.6689861,0.6892261,0.51026165
1643,A,710143637505000,7.0054326,-14.10906,-0.23471193,0.6625945,0.16831179,0.7073356
1643,A,710143657716000,4.711004,-14.140196,-0.035925295,0.64768076,0.37284255,0.6380934
1643,A,710143677812000,3.6236646,-13.153448,-1.698069,0.4346279,0.1555286,0.22050974
1643,A,710143697980000,1.4130616,-11.888878,-3.5206788,0.07243799,-0.56672066,0.07456851
1643,A,710143718076000,-0.07424561,-11.167976,-2.3638844,-0.15446335,-0.99069595,-0.4346279
1643,A,710143738283000,-2.8285182,-14.03242,0.69216067,-0.7946873,-0.29933932,-0.82557994
1643,A,710143758379000,-5.118157,-15.402371,1.4154567,-2.0176108,-0.3334278,-1.0333065
1643,A,710143778608000,-2.059717,-11.072176,0.043110352,-2.908172,0.2908172,-1.1419635
1643,A,710143798704000,2.4788454,-7.7071733,-0.74724615,-2.183792,0.6306366,-0.8990832
1643,A,710143818911000,6.0665846,-8.207732,-0.6562354,-1.7726,0.0,-0.5997439
1643,A,710143839007000,7.448511,-8.708291,-0.6562354,-1.28897,0.5273059,-1.3560816
1643,A,710143859248000,6.2797413,-8.760982,-0.28979737,-1.164334,0.6327671,-1.8588865
1643,A,710143879344000,4.021238,-7.9945755,0.6945557,-1.1622036,-0.5933523,-1.0333065
1643,A,710143899592000,3.3985329,-6.3132715,0.20597169,-0.7957525,-0.33449304,-0.74035877
1643,A,710143919688000,0.2921924,-4.5457473,0.1101709,-0.42077947,0.17789917,-0.48363006
1643,A,710143939894000,-1.1496094,-3.7506008,-0.13651612,0.101200126,-0.19813919,0.3355583
1643,A,710143959990000,-0.06706055,-4.7062135,-1.7794995,0.9044095,0.18216023,0.58909124
1643,A,710143980203000,0.8669971,-5.4510646,-2.5099807,1.3784522,0.16298546,0.008522116
1643,A,710144000299000,0.85023195,-4.90979,-0.5724097,1.4508902,-0.531567,-0.101200126
1643,A,710144020546000,0.41194338,-3.894302,0.7185059,0.8724516,-0.1768339,0.44528055
1643,A,710144040642000,-0.086220704,-2.9410841,0.028740235,-0.0777643,1.071656,0.07137272
1643,A,710144060911000,0.05508545,-3.8751419,-1.2549903,0.5006743,0.80747044,1.3145363
1643,A,710144081007000,1.6405884,-7.829319,-2.201023,1.6692694,0.43888897,2.2146847
1643,A,710144101226000,8.715476,-15.059883,-8.727451,2.1454427,0.112918034,1.3475596
1643,A,710144121322000,16.243023,-25.724905,-13.414505,0.08628642,1.3187973,0.4250405
1643,A,710144141527000,8.792117,-19.320623,0.2778223,-0.80107886,0.2247708,0.39521313
1643,A,710144161623000,1.6094532,-5.8893533,-0.1460962,1.2783173,0.40586576,0.29827404
1643,A,710144181820000,-3.2045362,-11.292518,-4.5840673,1.4040185,0.70627034,0.58696073
1643,A,710144201916000,-6.1935205,-17.74949,1.1687696,0.14807177,0.70840085,0.9214538
1643,A,710144222121000,-1.219065,-15.450272,7.1467385,0.41545314,0.7094661,0.82344943
1643,A,710144242217000,2.0046315,-8.054451,1.585503,0.53795856,0.35579833,0.89801794
1643,A,710144262427000,0.21315674,-2.7207422,-0.91729254,0.3153183,0.035153728,0.39521313
1643,A,710144282523000,-0.7496411,-1.4609619,2.2680836,-0.07137272,-0.7882957,-0.24394555
1643,A,710144302752000,-1.6262183,-2.2441335,3.8008962,-0.5006743,-1.0066749,-0.5997439
1643,A,710144322848000,-1.4801221,-3.9613624,5.625901,-1.6682042,-0.95234644,-1.2420983
1643,A,710144343051000,1.1759547,-9.182506,8.301138,-3.0850058,0.4910869,-2.1017668
1643,A,710144363147000,5.249883,-15.878981,3.1925611,-2.1539648,1.2719258,-1.5851135
1643,A,710144383361000,2.0237916,-11.148816,-4.3086405,-1.2761868,0.23648871,-1.0471549
1643,A,710144403457000,-0.1460962,-7.699988,-6.0833497,-0.73290193,0.039414786,-1.3496901
1643,A,710144423624000,3.8799317,-10.152488,-4.191284,-0.6860303,-0.7126619,-1.2761868
1643,A,710144443720000,1.3292359,-9.489068,2.090852,-0.29614353,-1.6149409,-0.8767126
1643,A,710144463784000,1.0418335,-7.9059596,4.960086,0.28868666,-1.2644689,-0.29614353
1643,A,710144483880000,4.176914,-7.8580594,3.5087037,0.47404268,0.23435818,0.47297743
1643,A,710144504097000,4.897815,-8.408914,0.7089258,1.3411679,0.902279,1.3134711
1643,A,710144524193000,3.302732,-8.145462,-0.92208254,1.9153455,-0.018109497,1.6809874
1643,A,710144544400000,3.5877395,-8.461604,-1.6046631,0.30679616,0.034088463,-0.101200126
1643,A,710144564496000,3.056045,-8.749006,-0.83586186,0.16405073,0.043675844,-0.6828345
1643,A,710144584668000,1.8681153,-8.064031,1.2070899,0.128897,-0.08628642,0.7222493
1643,A,710144604764000,3.1446607,-7.9083548,1.7818946,0.18322548,0.9033443,0.15233281
1643,A,710144624993000,6.912027,-10.451866,-0.24668702,0.50813115,0.7435546,0.8948221
1643,A,710144645089000,7.903565,-10.461446,-0.9364527,0.9353022,-0.4644553,1.5723304
1643,A,710144665298000,6.976692,-8.2197075,-0.22992188,0.531567,0.38562572,0.8522116
1643,A,710144685394000,5.6426663,-12.082874,-0.6562354,0.1587244,1.3401027,0.165116
1643,A,710144705605000,3.396138,-15.3736315,-0.34009278,1.0088054,1.2964269,-0.011717909
1643,A,710144725701000,2.8836036,-13.244458,-0.081430666,0.6956177,0.51665324,0.49854377
1643,A,710144745906000,2.320774,-11.278148,-2.3830445,0.18642128,0.8159926,0.83942837
1643,A,710144766002000,0.92926764,-11.345208,-3.906277,0.294013,0.9257148,0.78723043
1643,A,710144786241000,-2.0190015,-14.997613,-0.48618898,0.38562572,0.29507825,0.73609775
1643,A,710144806337000,-7.3718705,-17.67285,1.8992506,0.2130529,-0.40906155,0.27057716
1643,A,710144826531000,-3.3673975,-13.208533,0.53169435,-0.07882957,-1.2463595,-0.29188246
1643,A,710144846627000,2.5075855,-7.5203614,-0.9915381,-0.25246766,-1.2175972,-0.66365975
1643,A,710144866860000,5.494175,-7.903565,-0.68737066,-1.8993665,-0.9054748,-1.3326459
1643,A,710144886956000,7.2664895,-8.145462,-0.2778223,-3.029612,0.5550028,-2.1976407
1643,A,710144907197000,8.986114,-9.704619,-1.0777588,-2.0889835,0.91186637,-1.5350461
1643,A,710144927293000,2.823728,-8.313113,0.26345217,-1.2836437,0.083090626,-1.0620687
1643,A,710144947665000,1.84177,-5.295388,0.98195803,-0.8809737,-0.084155895,-1.4764565
1643,A,710144967761000,0.53169435,-3.032095,0.47900394,-0.70840085,-1.051416,-1.3475596
1643,A,710144987921000,-1.2621753,-2.5459058,0.17004639,0.037284255,-1.7608821,-0.8266452
1643,A,710145008081000,-1.7962648,-4.258345,-0.76401126,0.6114618,-1.4839134,-0.056459017
1643,A,710145028241000,-0.69695073,-5.415139,-1.5447876,0.80747044,0.0777643,0.6679208
1643,A,710145048418000,-0.031135255,-4.0427933,-1.0298585,1.7949706,0.6679208,1.5286545
1643,A,710145068514000,-0.17483643,-2.8500733,0.102985844,2.6674223,-0.18748654,2.0676782
1643,A,710145088644000,-0.05508545,-3.2476466,0.8646021,0.38029942,-0.05219796,-0.18322548
1643,A,710145108740000,0.9148975,-4.6942387,1.7603394,-0.07350325,0.4079963,-0.70200926
1643,A,710145128953000,2.3662794,-9.7740755,1.9399658,-0.13102753,-0.1470065,1.5243934
1643,A,710145149049000,11.769127,-23.71788,-16.168777,0.5539375,0.59228706,0.8213189
1643,A,710145169298000,16.243023,-31.949562,-13.687537,-0.043675844,0.87032104,0.16831179
1643,A,710145189394000,7.699988,-11.972703,2.823728,0.71798825,0.04474111,1.2261194
1643,A,710145209604000,1.0562036,-2.4501052,-2.7758276,2.6780748,-0.15339808,0.75101143
1643,A,710145229700000,-7.1132083,-12.284056,-6.5551686,0.46658584,2.0975058,-0.13635385
1643,A,710145249908000,-6.823411,-18.642834,7.7239385,-1.1089402,1.5275892,-0.20026971
1643,A,710145270004000,2.1818628,-12.061319,6.167176,0.4463458,0.7946873,0.32810146
1643,A,710145290214000,4.373306,-4.30385,2.315984,0.700944,0.7850999,0.5571333
1643,A,710145310310000,1.4058765,-1.1759547,3.288362,0.5187838,0.79255676,0.62104917
1643,A,710145330526000,0.54366946,-1.7914747,3.8008962,0.082025364,0.1587244,0.6775082
1643,A,710145350622000,-1.2789404,-3.2284865,3.3721876,-0.03195793,-0.9289106,0.049002163
1643,A,710145370835000,0.44307864,-7.1611085,3.6739602,0.07669904,-1.5243934,-0.6764429
1643,A,710145390931000,5.982759,-14.873072,1.7028589,-0.7957525,-1.3156016,-1.1366372
1643,A,710145411146000,2.0285816,-13.493541,-2.802173,-3.0786142,-0.50600064,-1.7651432
1643,A,710145431242000,-4.133804,-8.210127,-3.8607717,-2.7973845,1.1675298,-1.8034927
1643,A,710145451413000,-0.8669971,-8.837623,-2.335144,-1.6287893,0.8341021,-1.1217234
1643,A,710145471509000,1.463357,-10.095008,1.0083033,-0.8223842,0.644485,-1.3827133
1643,A,710145491717000,1.1280543,-8.784932,3.3506324,-0.49747851,-0.737163,-1.4189322
1643,A,710145511813000,3.3530276,-7.431746,2.9410841,-0.58483016,-1.2612731,-0.7765778
1643,A,710145532026000,5.4678297,-7.3383403,0.87178713,-0.05219796,-1.901497,-0.18322548
1643,A,710145552122000,4.0763235,-7.6664577,0.21076173,0.43675843,-0.89588743,0.45380265
1643,A,710145572334000,3.4560134,-7.7622585,0.083825685,1.0972224,0.60507023,1.3486248
1643,A,710145592430000,3.0656252,-8.339458,0.15328126,2.279666,0.21411815,2.2242723
1643,A,710145612635000,2.323169,-9.043594,-0.33530274,0.7882957,0.15126756,0.5070659
1643,A,710145632731000,3.06323,-8.50711,-0.33769777,0.16405073,1.0982877,-1.7534252
1643,A,710145652935000,6.7635355,-9.644744,0.31135255,-0.20133498,-0.28442562,0.5763081
1643,A,710145673031000,8.648416,-10.614727,0.05269043,0.2545982,0.33449304,0.53795856
1643,A,710145693317000,7.783814,-7.676038,0.67539555,0.4079963,0.9395633,0.30466563
1643,A,710145713413000,6.576724,-10.483001,0.5292993,0.7318367,-0.21198763,1.0567423
1643,A,710145733623000,4.8283596,-14.976058,0.23710695,0.8692558,-0.00958738,0.80747044
1643,A,710145753719000,3.5063088,-13.9174595,0.3281177,0.49534798,0.9150622,0.21518342
1643,A,710145773940000,2.0190015,-12.509188,-2.2465284,0.6562029,1.2186625,0.046871636
1643,A,710145794036000,0.098195806,-12.27208,-3.9469924,0.87138635,0.92784536,0.294013
1643,A,710145814237000,-2.7422974,-15.388001,-0.46463382,0.12463594,0.6103965,0.8863
1643,A,710145834333000,-6.7898808,-17.268091,2.3303542,0.28655612,1.0290455,0.793622
1643,A,710145854548000,-4.5840673,-12.89239,0.9388477,0.5368933,0.58909124,0.6263755
1643,A,710145874644000,0.0047900393,-7.549102,-0.55803955,0.28868666,-0.1257012,0.4111921
1643,A,710145894843000,5.4510646,-7.91075,-0.855022,0.06924219,-1.0034791,-0.10439592
1643,A,710145914939000,7.1467385,-8.8879175,-0.33769777,0.19068234,-1.2410331,-0.5305017
1643,A,710145935131000,9.263936,-9.939331,-0.8382569,-0.95660746,-0.902279,-1.1909657
1643,A,710145955227000,3.6883302,-9.002879,0.059875492,-2.646117,0.10972224,-1.8375812
1643,A,710145975439000,2.550696,-5.5660257,1.1376343,-2.6120284,1.0450244,-1.9217371
1643,A,710145995535000,0.9532178,-3.1063404,0.20597169,-1.6714,0.4889564,-1.087635
1643,A,710146015763000,-1.1783496,-2.7758276,0.011975098,-1.0982877,0.26205507,-1.4125407
1643,A,710146035859000,-1.334026,-3.9493873,-0.7065308,-0.7137272,-0.60933125,-1.5233282
1643,A,710146056110000,-0.2562671,-5.046306,-1.5208374,-0.21624869,-1.3038837,-0.90654004
1643,A,710146076206000,0.45984375,-4.519402,-0.8214917,0.035153728,-1.4913702,-0.13422333
1643,A,710146096395000,0.27542725,-3.65959,0.79754156,0.19600865,-0.11824436,0.43888897
1643,A,710146116491000,0.014370117,-3.1374757,0.8885523,0.70200926,0.1257012,1.1728562
1643,A,710146136700000,0.6322852,-3.7434156,0.15088624,1.8663434,-0.9108011,2.1880531
1643,A,710146156796000,1.1520045,-7.462881,0.62989014,1.4828482,-0.64555025,1.2602079
1643,A,710146176996000,7.189849,-17.823736,-10.600357,-0.033023197,0.28868666,-0.5454154
1643,A,710146197092000,17.220192,-31.846577,-17.593815,0.5230448,0.58909124,0.36645097
1643,A,710146217298000,8.49753,-18.233284,2.1291726,0.535828,0.41864893,1.0396981
1643,A,710146237394000,1.6884888,-1.8226099,-0.08861572,-0.29614353,0.8745821,0.2727077
1643,A,710146257599000,-4.89542,-7.9778104,-6.1695704,0.026631612,0.34088463,0.58483016
1643,A,710146277695000,-8.952583,-19.49546,3.1039455,1.8034927,-0.8330368,1.135572
1643,A,710146297892000,-0.72569096,-19.4763,8.617281,2.3137543,1.1941614,0.60080916
1643,A,710146317988000,5.2115626,-9.1849,1.104104,-0.46339005,1.7662084,-0.00958738
1643,A,710146338200000,0.8334668,-1.8130299,-0.39517823,-0.15339808,0.98430437,-0.28229508
1643,A,710146358296000,-0.4622388,-0.64186525,3.04886,0.7797736,0.85966843,0.2396845
1643,A,710146378506000,-1.0681788,-0.76401126,3.8368216,0.38029942,0.82344943,0.5432849
1643,A,710146398602000,-1.8010547,-1.8106349,4.4116263,0.25353295,0.572047,0.65513766
1643,A,710146418811000,0.62031007,-6.9934573,6.423443,0.24181503,0.22264028,0.69987875
1643,A,710146438907000,4.023633,-16.51366,4.3469605,0.036218993,-0.39840892,0.3270362
1643,A,710146459132000,2.560276,-15.567628,-3.4751735,-0.1768339,-1.2719258,-0.44208476
1643,A,710146479228000,-2.3135889,-8.57417,-4.87147,-0.6764429,-1.3283848,-1.1451592
1643,A,710146499436000,1.9327809,-10.011182,-2.9746144,-2.5683527,-0.8990832,-1.8716697
1643,A,710146519532000,1.1543995,-10.075848,2.936294,-3.1798143,0.68389976,-2.3222766
1643,A,710146539751000,1.8753004,-7.711963,3.1159205,-1.7235979,0.6530071,-1.2825783
1643,A,710146559847000,4.2343946,-7.398216,2.5818312,-0.9715212,-0.1107875,-1.2772521
1643,A,710146580043000,4.0356083,-7.776629,2.1818628,-0.7073356,-0.77870834,-1.4104102
1643,A,710146600139000,2.3830445,-7.5227566,0.79035646,-0.5390238,-1.7491642,-0.96939063
1643,A,710146620348000,2.8524685,-8.068821,-1.214275,0.3153183,-2.1422467,-0.69135666
1643,A,710146640444000,2.3423293,-8.943004,-1.0083033,0.8309063,-1.623463,-0.06178534
1643,A,710146660659000,1.7603394,-9.19448,0.27542725,1.257012,0.44421527,0.757403
1643,A,710146680755000,3.7458107,-8.461604,1.0322535,2.3307986,0.70840085,1.7928401
1643,A,710146700951000,8.801697,-10.277029,-0.6514453,1.9451729,-0.24927188,1.856756
1643,A,710146721047000,9.984837,-9.453142,0.047900394,-0.26844665,0.69987875,-0.7286409
1643,A,710146741259000,7.7311234,-6.672525,0.79754156,-0.3685815,0.6593987,-0.12037488
1643,A,710146761355000,5.0271463,-10.823093,0.2921924,-0.09161274,-0.5251754,1.0546118
1643,A,710146781578000,2.6512868,-16.161592,0.67539555,0.35473305,0.47191215,0.44421527
1643,A,710146801674000,2.193838,-15.064673,0.050295413,0.8681905,-0.6828345,0.65726817
1643,A,710146821775000,1.2789404,-11.982284,-2.7063723,2.3957798,-0.5113269,0.8511463
1643,A,710146841871000,-0.244292,-12.406201,-3.9661524,1.3965617,1.5765914,0.46871635
1643,A,710146862078000,-3.6548,-15.82629,-0.4742139,-0.95447695,0.85327685,0.0127831735
1643,A,710146882174000,-7.2497244,-16.511265,2.1746778,0.4111921,0.8117315,-0.13741912
1643,A,710146902408000,-4.7325587,-12.116405,1.223855,0.5699165,0.6743124,0.19600865
1643,A,710146922504000,-0.2921924,-8.044871,-1.2813355,0.39521313,0.628506,0.51984906
1643,A,710146942691000,3.8775368,-8.071217,-1.1352394,0.5251754,0.47510794,0.8628642
1643,A,710146962787000,7.5467067,-8.303533,0.18920656,0.1917476,0.14913702,0.7946873
1643,A,710146982999000,8.708291,-10.027947,-0.6610254,0.06924219,-0.5858955,0.16618125
1643,A,710147003095000,2.6273365,-8.459209,0.14130616,0.16085494,-1.3475596,-0.45380265
1643,A,710147023307000,2.3758595,-5.4606447,1.22625,-0.406931,-1.2101405,-1.0652645
1643,A,710147043403000,0.87418216,-3.278782,0.43110353,-2.4799356,-0.7584683,-1.6053536
1643,A,710147063619000,-0.14849122,-3.2811768,-0.4047583,-3.0668964,0.40906155,-2.0644825
1643,A,710147083715000,-0.8143067,-4.184099,-1.1496094,-1.7651432,0.42290998,-1.2996227
1643,A,710147103925000,-0.40954837,-4.5936475,-1.2669654,-1.1611383,0.15978967,-1.1984226
1643,A,710147124021000,0.14849122,-3.8248463,-1.0059083,-0.48043427,0.28122982,-1.6042882
1643,A,710147144229000,0.17483643,-3.2356715,0.51013917,-0.5049353,-1.3241237,-1.176052
1643,A,710147164325000,0.28979737,-3.1973512,1.4250367,0.07882957,-1.7417074,-0.40266997
1643,A,710147184562000,1.5447876,-4.3230104,1.0562036,0.5028048,-0.8341021,0.34301516
1643,A,710147204658000,2.572251,-8.758587,1.214275,0.8852348,0.18002969,1.0982877
1643,A,710147224862000,9.939331,-18.257235,-10.480606,1.9345202,0.14168017,2.1017668
1643,A,710147244958000,16.932789,-29.34857,-16.872913,1.9313245,0.11930962,1.6969663
1643,A,710147265167000,7.422166,-16.923208,0.79993653,0.051132694,0.6668556,-1.3262542
1643,A,710147285263000,1.3268409,-4.1218286,-2.0453467,-0.5933523,0.43888897,0.11930962
1643,A,710147305483000,-6.0522146,-11.726016,-6.2653713,-0.23329292,-0.7041398,1.6543556
1643,A,710147325579000,-9.750125,-20.046314,4.253555,0.46019423,0.72651035,0.28122982
1643,A,710147345796000,0.2706372,-15.684983,7.1299734,0.53476274,0.24820662,0.77870834
1643,A,710147365892000,4.8906302,-6.8521514,3.671565,1.8429075,-0.23648871,1.1121361
1643,A,710147386101000,1.3795313,-1.9088306,3.415298,1.8588865,0.77125144,0.34408042
1643,A,710147406197000,0.57719976,-1.2621753,4.026028,-0.8873653,1.0492855,-0.082025364
1643,A,710147426405000,0.14130616,-1.1232642,3.5134938,0.043675844,0.87351686,-0.017044231
1643,A,710147446501000,-0.54366946,-2.7422974,3.9709425,0.62317973,0.45593318,0.31638354
1643,A,710147466821000,2.3064039,-10.37762,6.4833183,0.31638354,0.5635249,0.42397526
1643,A,710147486917000,5.9540186,-17.2154,0.21315674,0.5901565,0.47297743,0.69348717
1643,A,710147507111000,-2.315984,-11.01709,-6.303692,0.18642128,-0.23861924,0.7137272
1643,A,710147527207000,-2.435735,-8.552615,-5.9635987,-0.04261058,-1.24849,0.0053263223
1643,A,710147547357000,-0.0023950196,-10.181229,1.3004956,0.1949434,-1.5446335,-0.8873653
1643,A,710147567453000,-0.38080812,-9.405242,3.8056862,-1.1707256,-0.9832391,-1.6500946
1643,A,710147587685000,2.1363575,-8.320298,2.3543043,-2.4596956,-0.13315806,-1.5787219
1643,A,710147607781000,6.2438164,-8.087981,0.64186525,-2.202967,0.3888215,-0.96619487
1643,A,710147627959000,5.5732107,-7.544312,0.47181886,-1.6330504,1.0578076,-0.97897804
1643,A,710147648055000,3.772156,-7.0078273,0.6945557,-1.0066749,0.88203895,-1.3965617
1643,A,710147668229000,3.2452517,-8.155042,1.0035132,-0.5390238,-0.5539375,-1.3358417
1643,A,710147688325000,1.1999048,-9.022039,0.6490503,-0.034088463,-1.1483551,-0.5965481
1643,A,710147708537000,1.7220191,-8.284373,-0.79754156,0.25566345,-0.8330368,-0.084155895
1643,A,710147728633000,6.744375,-9.400452,-1.334026,0.5049353,0.2908172,0.35579833
1643,A,710147748843000,9.053174,-10.219549,-0.10538086,0.96619487,0.36964676,1.1504856
1643,A,710147768939000,8.3250885,-7.065308,1.839375,1.7747306,-0.6146576,2.146508
1643,A,710147789137000,7.0006423,-8.926238,1.7315992,1.0247844,-0.029827405,0.2908172
1643,A,710147809233000,5.137317,-14.2623415,0.8262818,-0.15126756,0.53476274,-1.2431636
1643,A,710147829460000,2.7854078,-14.6671,-0.30895755,-0.59867865,0.0031957934,1.7299895
1643,A,710147849556000,2.0932472,-13.004956,-1.1543995,0.12037488,0.46232477,1.6255935
1643,A,710147869786000,0.3161426,-12.20502,-2.9841945,-0.30999196,0.79042625,-0.07669904
1643,A,710147889882000,-0.90771246,-12.0110235,-3.2165112,0.10226539,0.008522116,0.49854377
1643,A,710147910091000,-3.8511915,-14.925762,-0.023950197,3.197924,0.18535602,0.9129316
1643,A,710147930187000,-6.4426026,-16.736397,1.710044,2.0357203,1.7875137,0.060720075
1643,A,710147950396000,-4.133804,-13.163028,0.847837,-1.7544906,0.8767126,-0.10013486
1643,A,710147970492000,0.7783814,-8.5598,-0.93405765,0.27164245,0.25992453,0.26525086
1643,A,710147990702000,6.600674,-8.885523,-0.9963282,0.9108011,0.48043427,0.38562572
1643,A,710148010798000,6.840176,-8.768167,-0.18441652,0.42717105,0.57417756,0.5763081
1643,A,710148031017000,7.695198,-8.363408,0.8430469,0.19813919,0.15765914,0.7094661
1643,A,710148051113000,3.3123121,-8.241262,0.37122804,-0.04474111,-0.59761333,0.16192019
1643,A,710148071384000,1.8776954,-6.231841,0.21794678,0.0479369,-1.442368,-0.51452273
1643,A,710148091480000,0.32572266,-3.6931202,-0.364043,-0.43569317,-1.3198626,-1.0205233
1643,A,710148111504000,-0.9532178,-2.9099488,-0.32093263,-2.590723,-0.8117315,-1.6980315
1643,A,710148131600000,-0.3784131,-3.9134622,-1.1136842,-3.2884715,0.588026,-2.2349248
1643,A,710148151841000,0.49576905,-4.3637257,-1.9088306,-1.8801918,0.74461985,-1.3507553
1643,A,710148171937000,0.5963599,-3.8176613,-1.4226416,-0.9012137,0.58909124,-1.3219932
1643,A,710148192185000,-0.17723145,-3.4584084,-0.07903565,-0.4314321,-0.17576863,-1.6990968
1643,A,710148212281000,-0.028740235,-3.3338673,0.4382886,-0.49854377,-1.6490294,-1.1547467
1643,A,710148232441000,1.4825171,-4.5888577,0.21794678,0.3888215,-1.937716,-0.36005938
1643,A,710148252601000,3.0847852,-10.27224,0.11496094,0.80107886,-1.4210628,0.4644553
1643,A,710148272761000,11.079361,-20.609144,-12.284056,1.0343717,0.051132694,1.1547467
1643,A,710148293218000,13.064832,-27.389444,-16.28374,2.2019017,0.165116,2.1614215
1643,A,710148313314000,6.821016,-12.935501,2.1076174,1.7204021,0.068176925,1.7385116
1643,A,710148333547000,2.943479,-1.9926564,-1.6405884,-0.082025364,0.8841695,-1.3113406
1643,A,710148353643000,-1.7244141,-6.095325,-3.9709425,-0.40373522,0.36751625,0.12676647
1643,A,710148373860000,-4.512217,-16.743582,-0.07903565,0.32384038,-0.95447695,1.4455639
1643,A,710148393956000,0.6777906,-18.93742,7.5012016,0.680704,1.0375676,0.19387813
1643,A,710148414289000,6.586304,-12.329561,0.9987232,0.3334278,0.06498113,1.0460896
1643,A,710148434417000,0.6682105,-1.9902613,0.033530276,1.9366508,-0.6892261,0.92784536
1643,A,710148454611000,-2.5004005,-0.8214917,3.3985329,1.5574167,1.2623384,0.13954964
1643,A,710148474739000,-1.2741505,-2.5914114,2.799778,-0.74248934,1.5382419,-0.17896444
1643,A,710148494837000,0.57719976,-3.9853127,3.0129347,0.30360037,1.2101405,0.007456851
1643,A,710148514933000,3.4727786,-9.19448,0.97956306,0.53795856,0.50387007,0.40266997
1643,A,710148535158000,4.7062135,-15.067068,2.1124072,0.43995422,0.85753787,0.5422196
1643,A,710148555286000,0.8669971,-10.7871685,1.2885206,0.13422333,0.535828,0.80747044
1643,A,710148575487000,-2.936294,-6.13604,0.17004639,0.05539375,-0.15233281,0.65513766
1643,A,710148595615000,0.44786867,-9.436378,-2.7806177,0.05006743,-1.3124058,-0.11504856
1643,A,710148615890000,3.4679885,-11.144027,-2.1219873,0.14274544,-1.510545,-0.8628642
1643,A,710148636018000,0.85741705,-7.7862086,1.5280225,-1.5243934,-1.099353,-1.4732608
1643,A,710148656210000,0.32332766,-6.9551373,3.420088,-3.4045851,-0.015978966,-1.9995013
1643,A,710148676338000,2.9530592,-8.035291,3.3673975,-2.1049626,1.0205233,-1.6831179
1643,A,710148696591000,3.8775368,-8.514295,-0.009580079,-0.90654004,0.58056915,-1.401888
1643,A,710148716719000,3.2117214,-8.612491,-1.5423926,-0.3121225,-0.18961707,-1.8322549
1643,A,710148736935000,2.440525,-9.019644,-0.1341211,-0.14487597,-1.4796523,-1.4828482
1643,A,710148757063000,1.7292042,-9.093889,1.3076807,0.0777643,-1.8333201,-0.624245
1643,A,710148777232000,1.4370118,-7.932305,0.74006104,0.08522116,-0.9619338,0.27377295
1643,A,710148797360000,3.8104763,-8.519085,-0.5843848,0.34408042,0.20879184,1.0365024
1643,A,710148817585000,8.102351,-11.314073,-0.25387207,1.1046792,0.26418558,1.933455
1643,A,710148837713000,9.568104,-8.669971,1.3172607,2.1475732,-0.25992453,2.6567695
1643,A,710148857933000,9.182506,-7.5203614,1.2166699,0.36112466,0.4282363,-0.4079963
1643,A,710148878061000,8.133487,-13.45043,0.7041358,-0.08841695,1.1217234,-1.0705907
1643,A,710148898136000,4.7014236,-15.514937,0.20118165,-0.2972088,0.17576863,1.7310548
1643,A,710148918232000,2.7830129,-13.574971,-1.1975098,0.6945524,0.13209279,0.9715212
1643,A,710148938458000,0.9148975,-13.215718,-3.8296363,0.112918034,0.2790993,0.036218993
1643,A,710148958586000,-0.728086,-11.56555,-2.818938,0.6828345,-0.05752428,1.0769824
1643,A,710148978735000,-2.5267458,-13.962964,0.086220704,2.932673,0.43995422,0.6125271
1643,A,710148998863000,-6.5120583,-16.808249,2.3423293,0.8511463,1.4508902,0.12676647
1643,A,710149018935000,-4.5481424,-13.44085,0.36164796,-1.1100056,1.1547467,-0.16831179
1643,A,710149039031000,0.36883304,-8.581355,-2.0453467,0.6221144,0.79894835,0.3121225
1643,A,710149059255000,4.6918435,-8.643626,-1.456172,0.5006743,0.7350325,0.5028048
1643,A,710149079351000,6.564749,-8.971744,0.5388794,0.21837921,0.76592517,0.5635249
1643,A,710149099472000,6.07856,-7.8820095,1.6453785,0.18429075,0.1768339,0.6945524
1643,A,710149119568000,5.245093,-8.849598,0.38080812,0.027696876,-0.81066626,0.16405073
1643,A,710149139772000,1.096919,-7.072493,-0.14849122,-0.31638354,-1.8152106,-0.9438243
1643,A,710149159868000,-0.29937744,-4.28948,-0.51732427,-1.3869743,-1.1685951,-1.8098843
1643,A,710149180079000,-1.5543678,-2.6009912,-0.58677983,-3.193663,0.13848437,-2.2221417
1643,A,710149200175000,-1.1112891,-2.8788135,-0.81909674,-2.2945797,0.95660746,-1.4231933
1643,A,710149220301000,0.17004639,-3.781736,-1.6836988,-1.3060142,0.52411014,-1.0801781
1643,A,710149240397000,0.6777906,-3.4703834,-1.4753321,-0.9395633,0.025566347,-1.530785
1643,A,710149260609000,-0.021555176,-2.8788135,-0.17962648,-0.64555025,-1.24849,-1.3347764
1643,A,710149280705000,-0.3065625,-2.7830129,-0.1341211,-0.14487597,-1.6447684,-0.69029135
1643,A,710149300843000,1.3747413,-4.1625443,-0.19160157,0.098004326,-1.0120013,0.20133498
1643,A,710149320939000,3.166216,-9.309442,0.49576905,0.39095205,-0.0010652645,1.0098706
1643,A,710149341165000,12.969031,-22.637726,-13.277988,1.6117451,0.12783173,1.9078887
1643,A,710149361261000,16.362774,-31.870525,-12.770245,2.5395904,-0.18216023,2.0463731
1643,A,710149381470000,3.8727467,-14.077926,2.2489235,0.07243799,0.43036684,-0.5368933
1643,A,710149401566000,0.6011499,-5.1924024,-3.391348,0.008522116,0.42077947,-0.49428272
1643,A,710149421866000,-5.9875493,-12.947476,-6.8761015,0.09161274,-0.08841695,1.6447684
1643,A,710149441962000,-7.553892,-15.335311,5.5229154,0.3653857,0.49747851,0.5539375
1643,A,710149462168000,-1.8705103,-10.916499,5.886958,-0.098004326,-0.004261058,-0.035153728
1643,A,710149482264000,2.3806496,-6.2510014,1.6238233,1.2665994,-0.48363006,0.7978831
1643,A,710149502387000,2.0022364,-2.3375392,2.6608667,2.7409256,0.51771855,0.40266997
1643,A,710149522483000,1.2909156,-2.4069948,5.6929617,-0.13954964,1.5180018,0.38456047
1643,A,710149542691000,-0.45026368,-3.6859353,6.550379,-0.5944176,0.6775082,0.16831179
1643,A,710149562787000,0.6610254,-6.1959157,5.5564456,0.75101143,0.5422196,0.36751625
1643,A,710149583045000,5.5444703,-12.940291,2.1291726,0.52411014,0.6135923,0.4495416
1643,A,710149603141000,6.11688,-14.62878,-4.1146436,0.36112466,0.5581986,0.6348976
1643,A,710149623437000,-1.5112574,-8.598121,-6.0186844,0.12144015,-0.18748654,0.66365975
1643,A,710149643533000,-0.58677983,-8.452024,-2.9841945,-0.084155895,-0.99921805,0.05539375
1643,A,710149663736000,2.7375073,-9.877061,1.0418335,-0.2908172,-1.2836437,-0.87351686
1643,A,710149683832000,2.4165747,-8.193362,3.3362625,-1.7502295,-0.737163,-1.804558
1643,A,710149703937000,3.417693,-7.31918,3.532654,-2.9987195,0.20879184,-2.3744745
1643,A,710149724033000,4.1050634,-7.6233473,0.78556645,-1.8482338,0.6380934,-1.5712651
1643,A,710149744254000,3.5901344,-8.076006,-0.040715333,-1.200553,-0.013848438,-1.1408982
1643,A,710149764350000,2.8141482,-8.351434,-0.7185059,-0.8948221,-0.36325517,-1.5776566
1643,A,710149784554000,2.3734643,-8.988508,-1.0562036,-0.65194184,-1.2154667,-1.2420983
1643,A,710149804650000,1.1567944,-8.638836,-0.43589357,0.165116,-1.71188,-0.67324716
1643,A,710149824758000,1.829795,-7.7622585,0.34727785,0.62317973,-1.6895094,-0.101200126
1643,A,710149844854000,6.2797413,-9.393267,0.86220706,0.96406436,0.05752428,0.66365975
1643,A,710149865061000,9.778865,-10.791959,0.31135255,1.9899141,0.84688526,1.7512947
1643,A,710149885157000,9.386082,-6.9862723,0.84065187,2.3734093,-0.5795039,2.1315942
1643,A,710149905486000,7.7071733,-9.424402,0.119750984,-0.4261058,0.29507825,-0.4878911
1643,A,710149925582000,4.631968,-15.847845,-0.6682105,0.11504856,0.813862,-0.7392935
1643,A,710149945784000,3.03928,-15.433507,0.55803955,0.4048005,-0.6348976,0.9683254
1643,A,710149965880000,2.1267774,-12.583433,-1.336421,0.8831042,0.773382,0.5070659
1643,A,710149986082000,0.7424561,-12.188255,-3.666775,0.0479369,0.51452273,0.99708754
1643,A,710150006178000,-2.196233,-15.876585,-1.0681788,0.6689861,-0.8852348,1.1451592
1643,A,710150026355000,-7.460486,-17.560284,1.8800904,1.707619,0.7456851,0.18002969
1643,A,710150046451000,-4.3349857,-12.76785,0.57001466,0.221575,1.0748519,0.11611383
1643,A,710150066538000,0.22752686,-7.9155397,-1.2813355,-0.094808534,1.3635385,-0.21411815
1643,A,710150086634000,4.378096,-8.097562,-1.2502003,0.24927188,0.850081,0.23009712
1643,A,710150106778000,6.0354495,-8.708291,-0.22752686,0.54648066,0.777643,0.47830373
1643,A,710150126874000,9.254355,-9.172925,0.4239185,0.34301516,0.9534117,0.5571333
1643,A,710150147096000,4.1218286,-9.024434,0.84544194,0.24074976,0.45699844,0.8245147
1643,A,710150167192000,1.719624,-5.7911572,1.219065,0.08522116,-0.60080916,0.39947417
1643,A,710150187390000,1.1831397,-3.3985329,0.9268726,0.38775626,-1.603223,-0.31851408
1643,A,710150207486000,-1.1232642,-2.6369166,-0.059875492,0.4250405,-1.3337111,-0.8277105
1643,A,710150227732000,-1.8082398,-3.8224514,-1.3819263,-1.8556907,-0.9267801,-1.200553
1643,A,710150247828000,-0.38320315,-5.0558863,-2.047742,-3.6080508,0.49854377,-2.0687435
1643,A,710150268023000,0.4406836,-4.145779,-1.3555812,-2.621616,1.3709954,-1.8237327
1643,A,710150288119000,0.19639161,-3.1901662,0.15567628,-1.5808525,0.5209143,-0.94808537
1643,A,710150308264000,-0.11256592,-3.168611,0.855022,-0.72011876,0.63915867,-1.5733956
1643,A,710150328360000,0.8286768,-3.8583767,1.1088941,-0.6146576,-0.71479243,-1.4562165
1643,A,710150348535000,2.1148024,-7.5323367,2.069297,-0.06391586,-2.2615564,-0.5837649
1643,A,710150368631000,8.466394,-19.41882,-11.038646,0.6785734,-1.6863136,0.13635385
1643,A,710150388830000,19.397264,-34.780476,-17.826132,0.72970617,-0.25992453,0.737163
1643,A,710150408926000,8.464,-16.123272,2.0573218,1.4636734,0.29827404,1.5606124
1643,A,710150429365000,0.92926764,-0.6706055,-2.5363257,2.9337382,-0.053263225,2.3755398
1643,A,710150449461000,-5.848638,-8.428074,-7.781419,0.45380265,0.4910869,-0.16192019
1643,A,710150469672000,-8.722662,-18.214125,4.509822,-0.101200126,1.2879047,-1.1930962
1643,A,710150489768000,-1.7699195,-16.288528,8.576566,-0.18322548,-0.4314321,1.3699301
1643,A,710150509923000,6.167176,-9.81958,2.5027955,0.8127968,0.035153728,0.9757822
1643,A,710150530019000,3.1111305,-2.9746144,1.0106983,-0.12250541,1.4508902,0.3536678
1643,A,710150550234000,0.23950197,-1.4298267,2.5267458,0.39627838,-0.24074976,1.2229236
1643,A,710150570330000,-1.3507911,-1.9088306,3.412903,2.4224114,-0.5006743,0.79894835
1643,A,710150590588000,-0.26105714,-3.3769777,4.3349857,0.9054748,1.5787219,0.0777643
1643,A,710150610684000,1.7651294,-8.452024,6.5240335,-1.1472899,1.3603427,-0.25033715
1643,A,710150631144000,4.864285,-16.425045,2.5818312,0.350472,0.95447695,0.2034655
1643,A,710150651240000,-0.2778223,-11.714041,-4.5960426,0.65726817,0.664725,0.51665324
1643,A,710150671428000,-3.2021413,-6.598279,-5.3552637,0.3387541,0.86499476,0.51984906
1643,A,710150691524000,1.3603711,-10.40157,-2.2968237,0.22370553,0.27696875,0.6764429
1643,A,710150711664000,1.0394385,-10.97877,2.7327175,0.094808534,-0.5784386,0.39095205
1643,A,710150731760000,1.3627661,-8.452024,3.0009596,0.008522116,-1.5286545,-0.34514567
1643,A,710150751971000,4.095484,-7.6017923,2.0549269,-0.20240025,-1.4402375,-0.9491506
1643,A,710150772067000,4.785249,-7.697593,0.9268726,-2.3819313,-0.8319715,-1.5947009
1643,A,710150792285000,3.894302,-7.678433,0.15567628,-3.1435955,0.7957525,-2.005893
1643,A,710150812381000,3.2189064,-8.322693,0.021555176,-1.933455,0.98430437,-1.2868395
1643,A,710150832573000,2.2465284,-9.275911,-0.23231691,-1.0727214,0.5294364,-1.1899004
1643,A,710150852669000,1.6669337,-8.4376545,-0.13172609,-0.71798825,-0.06498113,-1.4327807
1643,A,710150872882000,4.4523416,-8.186177,0.14370118,-0.7307714,-1.293231,-0.96299905
1643,A,710150892978000,8.459209,-10.880574,-0.57719976,0.03089267,-1.7875137,-0.38029942
1643,A,710150913123000,8.931028,-9.031619,0.4526587,0.34194988,-1.1504856,0.26631612
1643,A,710150933219000,7.8987746,-7.089258,1.4034815,0.73290193,0.18748654,0.9235843
1643,A,710150953424000,6.559959,-11.577525,1.22625,1.9813919,0.53476274,1.8343854
1643,A,710150973520000,4.3349857,-15.117364,0.3879932,2.347843,0.13528858,1.6426378
1643,A,710150993723000,2.931504,-13.857584,-0.9651929,-0.1736381,0.4346279,-0.88949585
1643,A,710151013819000,1.3268409,-12.866045,-3.6260598,-0.07456851,0.51984906,-0.34408042
1643,A,710151034145000,-0.8861573,-12.001443,-3.515889,0.2695119,-0.67005134,1.3837786
1643,A,710151054241000,-2.907554,-14.717396,-0.09340577,0.5006743,0.75633776,0.5187838
1643,A,710151074457000,-7.1371584,-16.633411,1.7603394,-0.2876214,0.78723043,0.6061355
1643,A,710151094553000,-4.6726832,-13.313914,0.14370118,1.1462245,-0.87351686,1.0343717
1643,A,710151114688000,0.06466553,-8.52148,-1.2382251,2.663161,0.11824436,0.294013
1643,A,710151134784000,5.376819,-8.842413,-1.0418335,0.101200126,1.365669,-0.024501082
1643,A,710151155004000,6.2941117,-8.55501,0.8813672,-0.49960902,1.0279802,-0.0777643
1643,A,710151175100000,8.382568,-8.787327,1.3986914,0.43888897,0.61891866,0.35579833
1643,A,710151195289000,2.5123756,-8.583751,-0.14370118,0.46339005,0.6743124,0.45593318
1643,A,710151215385000,1.7483643,-6.8832865,-0.019160157,0.51771855,0.6988135,0.58056915
1643,A,710151235824000,0.6514453,-4.3158255,-0.66342044,0.20772657,0.12357068,0.70840085
1643,A,710151255920000,-0.8646021,-2.9770093,-0.7783814,-0.06178534,-0.58696073,0.17257284
1643,A,710151276142000,-0.53169435,-3.6284547,-1.1136842,-0.12783173,-1.3986923,-0.5571333
1643,A,710151296238000,0.39996827,-4.2990603,-1.5208374,-1.019458,-1.2335763,-1.3496901
1643,A,710151316387000,0.8214917,-3.891907,-1.2070899,-3.1808796,-0.5784386,-2.1965754
1643,A,710151336483000,0.3305127,-3.3123121,0.14370118,-2.5470474,0.9757822,-2.1369205
1643,A,710151356701000,-0.6011499,-2.8883936,-0.22273682,-1.555286,0.7584683,-1.0056096
1643,A,710151376797000,0.18441652,-3.3721876,-0.92926764,-0.93849796,0.9406285,-1.4306501
1643,A,710151397023000,1.2597803,-6.959927,0.62989014,-0.46019423,-0.5070659,-1.5275892
1643,A,710151417119000,8.329878,-18.970951,-7.4509063,-0.21198763,-2.1720743,-0.7520767
1643,A,710151437251000,18.7554,-34.145794,-18.87994,0.350472,-2.4564998,-0.01917476
1643,A,710151457347000,5.716912,-16.187937,-0.86939216,0.56885123,-1.28897,0.9193232
1643,A,710151477507000,1.8274,-2.1363575,0.7759864,1.1930962,0.42290998,1.7289242
1643,A,710151497667000,-1.7818946,-5.609136,-4.6032276,2.7047064,0.3472762,2.4181504
1643,A,710151517827000,-5.6690116,-15.107784,-2.3926246,0.37071204,0.096939065,0.45806372
1643,A,710151538027000,-4.030818,-15.871795,7.9538603,0.10759171,1.0333065,-1.2218584
1643,A,710151558123000,3.293152,-12.717554,3.3266823,0.22690132,0.6103965,0.86392945
1643,A,710151578343000,2.555486,-5.465435,0.24668702,0.71585774,-0.1107875,0.9353022
1643,A,710151598439000,0.07185059,-1.7411792,2.8093581,-0.09161274,1.1792477,0.07669904
1643,A,710151618565000,-0.31853762,-2.672842,4.160149,0.24501082,-0.3888215,0.9960223
1643,A,710151638661000,0.15088624,-4.0906935,3.6260598,2.2871227,-0.72437984,0.8021441
1643,A,710151658970000,0.74724615,-7.30481,4.1002736,1.1952267,1.1206582,0.1917476
1643,A,710151679066000,2.7422974,-14.020445,4.519402,-0.6870956,1.139833,-0.24714136
1643,A,710151699278000,1.8513502,-12.904366,-0.6322852,0.4111921,0.716923,0.0777643
1643,A,710151719374000,-2.4069948,-6.935977,-3.3099172,0.49960902,0.5454154,0.44208476
1643,A,710151739496000,1.7962648,-9.393267,-3.803291,0.34301516,0.8000136,0.5454154
1643,A,710151759592000,3.3626075,-10.696157,-0.53169435,0.4165184,0.34940675,0.8383631
1643,A,710151779794000,0.8765772,-8.3322735,2.8548634,0.29614353,-0.3685815,0.76485986
1643,A,710151799890000,1.5136524,-7.414981,4.143384,-0.04261058,-1.3454291,-0.007456851
1643,A,710151820053000,3.7458107,-7.656878,2.1674929,-0.20133498,-1.6383767,-1.0386329
1643,A,710151840149000,4.521797,-7.951465,-0.23710695,-1.933455,-0.83729786,-2.0527647
1643,A,710151860359000,3.7937112,-8.104747,-0.8813672,-3.299124,0.38136467,-2.271144
1643,A,710151880455000,2.9482691,-9.335787,-0.57959473,-1.9707392,0.5581986,-1.2548815
1643,A,710151900662000,2.0812721,-9.295072,0.3879932,-1.3560816,-0.0053263223,-1.2729911
1643,A,710151920758000,2.7375073,-8.131092,0.87418216,-0.74035877,-0.12783173,-1.7502295
1643,A,710151940904000,6.6821046,-10.250684,0.26584718,-0.5699165,-1.1536814,-1.2367721
1643,A,710151961000000,8.931028,-10.820699,-0.045505375,0.19387813,-1.6117451,-0.5965481
1643,A,710151981167000,8.286768,-6.967112,0.87897223,0.7552725,-0.92784536,0.15126756
1643,A,710152001263000,7.0078273,-9.7812605,0.100590825,0.9502159,0.4857606,0.92784536
1643,A,710152021415000,5.352869,-15.32573,-0.28740236,1.8216022,0.13528858,1.9526298
1643,A,710152041511000,3.1566358,-13.625267,0.51492923,2.3883228,-0.7637946,2.1518342
1643,A,710152061714000,2.201023,-11.352393,-1.3148658,-0.112918034,0.35260254,-0.6135923
1643,A,710152081810000,0.4263135,-11.491304,-3.5542092,-0.22903186,1.0812434,-0.36645097
1643,A,710152101950000,-1.2525953,-14.05637,-2.311194,-0.017044231,0.03089267,1.5190672
1643,A,710152122046000,-5.5540504,-17.246536,1.6453785,0.406931,0.5113269,0.58483016
1643,A,710152142303000,-5.6761966,-15.505357,1.6549586,-0.096939065,0.7094661,0.29933932
1643,A,710152162399000,-1.7866846,-9.503438,0.0047900393,0.9193232,0.2130529,1.0130665
1643,A,710152182591000,3.4009278,-8.150251,-1.1304493,2.7579696,0.3153183,0.46978164
1643,A,710152202687000,5.728887,-9.029224,-0.22992188,0.44421527,1.2452941,-0.03089267
1643,A,710152222861000,8.490345,-9.0891,0.44547364,-0.7254451,1.0088054,-0.09267801
1643,A,710152242957000,5.094207,-9.565708,-0.09340577,0.52624065,0.78083885,0.43036684
1643,A,710152263155000,1.6453785,-7.1874537,1.0562036,0.37710363,0.72437984,0.49215218
1643,A,710152283251000,1.1424243,-4.368516,0.33530274,0.4293016,0.5539375,0.47404268
1643,A,710152303448000,-0.7161109,-2.9003687,-0.54366946,0.32810146,-0.007456851,0.6593987
1643,A,710152323544000,-1.2789404,-3.420088,-1.0130934,0.0031957934,-0.47510794,0.21944448
1643,A,710152343813000,-0.33290774,-4.497847,-1.6357985,-0.16831179,-1.0034791,-0.56459016
1643,A,710152363909000,0.6825806,-4.404441,-1.4154567,-1.0503508,-0.8681905,-1.3837786
1643,A,710152384118000,0.44307864,-3.647615,-0.18920656,-2.8176246,-0.42397526,-2.0325246
1643,A,710152404214000,-0.18681154,-3.0895753,0.9484278,-2.424542,0.5219796,-1.768339
1643,A,710152424311000,0.4526587,-3.396138,0.84065187,-1.743838,0.30466563,-0.97258645
1643,A,710152444407000,1.6597486,-5.7001467,0.92208254,-1.1526161,0.16192019,-1.4104102
1643,A,710152464605000,4.90979,-13.630056,-2.9841945,-0.9779128,-0.5795039,-1.4807175
1643,A,710152484701000,16.901653,-29.734169,-20.839066,-0.33129725,-1.3454291,-0.74461985
1643,A,710152504896000,11.910433,-25.032745,-2.5938063,0.5368933,-1.4168017,-0.39627838
1643,A,710152524992000,3.027305,-3.66438,-0.4766089,0.74035877,-0.46871635,0.34621096
1643,A,710152545172000,-2.3950195,-2.2537134,-3.915857,1.3891048,0.7456851,1.514806
1643,A,710152565268000,-7.2281694,-13.627662,-3.911067,2.5353293,-0.24074976,2.5331988
1643,A,710152585507000,-6.564749,-18.877544,9.515413,0.4857606,0.11611383,0.28016454
1643,A,710152605603000,3.051255,-15.529307,6.1216702,0.16937704,0.6380934,-1.0407634
1643,A,710152625798000,5.415139,-7.2521195,1.0106983,0.040480047,-0.92464954,1.2879047
1643,A,710152645894000,0.4382886,-1.6597486,1.5519727,0.80107886,0.36964676,0.95128113
1643,A,710152666088000,-2.1770728,-1.477727,2.1483326,-0.165116,0.6359629,0.27483824
1643,A,710152686184000,-2.1411476,-2.1004322,2.459685,0.23116238,-0.76485986,0.8564726
1643,A,710152706378000,0.58677983,-5.2882032,3.5015187,2.3510387,-0.09267801,0.094808534
1643,A,710152726474000,3.661985,-13.074412,3.5757644,0.9651296,1.0759171,0.05965481
1643,A,710152746803000,2.7734327,-14.578485,0.6610254,-0.4250405,1.3028184,0.040480047
1643,A,710152766899000,-1.6118482,-8.5119,-1.0777588,0.221575,0.82877576,0.5496765
1643,A,710152787101000,-0.19878663,-8.157437,-1.331631,0.41758367,0.6380934,0.7073356
1643,A,710152807197000,3.403323,-10.866204,-0.9388477,0.4282363,0.8490158,0.58056915
1643,A,710152827411000,1.3651612,-9.393267,1.343606,0.40373522,0.16618125,0.8245147
1643,A,710152847507000,2.4045997,-7.6305327,2.548301,0.06178534,-0.68816084,0.49002165
1643,A,710152867716000,3.6116896,-7.417376,2.6512868,-0.13528858,-1.4871092,-0.51452273
1643,A,710152887812000,3.8296363,-7.4652762,1.5615528,-0.97258645,-1.0748519,-1.5723304
1643,A,710152907997000,3.6092947,-7.92991,-0.74724615,-2.7494476,-0.068176925,-2.223207
1643,A,710152928093000,2.938689,-9.182506,-1.6477735,-2.0591562,0.72437984,-1.6245283
1643,A,710152948394000,1.9830762,-9.350157,-0.62989014,-1.5563514,0.5070659,-0.9534117
1643,A,710152968490000,2.7399025,-8.145462,0.58677983,-1.0130665,0.44528055,-1.4817829
1643,A,710152988701000,7.3455253,-9.726174,-0.117355965,-0.773382,-0.9896307,-1.4881744
1643,A,710153008797000,9.841136,-10.7943535,-0.90052736,-0.053263225,-1.6458336,-0.721184
1643,A,710153029099000,8.372989,-7.0437527,0.364043,0.3121225,-1.2921658,-0.23222765
1643,A,710153049195000,6.600674,-9.261541,-0.17723145,0.34514567,-0.3153183,0.5123922
1643,A,710153069397000,4.7253737,-14.437179,-0.10777588,1.212271,0.6263755,1.5861788
1643,A,710153089493000,3.3793726,-14.259947,1.0154883,2.0421119,-0.29614353,2.453304
1643,A,710153109694000,1.6908839,-12.121195,-2.7830129,0.21944448,0.23329292,-0.59122175
1643,A,710153129790000,-0.2682422,-13.208533,-4.6678934,0.046871636,0.350472,-1.3113406
1643,A,710153149946000,-5.1061816,-17.651295,0.26345217,-0.20772657,-0.31318775,1.3432984
1643,A,710153170042000,-7.6161623,-18.925446,2.179468,-0.011717909,1.1217234,0.23435818
1643,A,710153190249000,-4.7086086,-12.4684725,0.6945557,0.32384038,0.6711166,0.30253512
1643,A,710153210345000,0.28500733,-8.238868,-1.6765138,0.91825795,-0.4165184,0.98430437
1643,A,710153230560000,5.2882032,-8.547825,-1.4418018,1.4029533,0.1736381,0.18855181
1643,A,710153250656000,6.615044,-8.080796,0.059875492,0.33768883,1.3347764,0.22903186
1643,A,710153270851000,8.646021,-9.611214,0.4382886,0.3323625,0.89801794,0.700944
1643,A,710153290947000,2.6249416,-8.382568,0.74006104,0.8404937,0.92784536,0.9406285
1643,A,710153311151000,2.43813,-5.0367265,0.98914313,0.49960902,1.0375676,0.8724516
1643,A,710153331247000,0.8334668,-2.4812403,-0.0047900393,0.32490566,0.7414241,0.76059884
1643,A,710153351449000,-0.30177248,-2.3064039,-0.47181886,0.4825648,0.19600865,0.71798825
1643,A,710153371545000,-0.99393314,-3.7529957,-1.3603711,0.035153728,-0.5592638,-0.018109497
1643,A,710153391749000,-0.7831714,-4.9241605,-1.2717555,-0.350472,-1.0961571,-0.71798825
1643,A,710153411845000,-0.44307864,-4.1721244,-0.852627,-1.1930962,-1.0535465,-1.4636734
1643,A,710153432050000,-0.76161623,-2.8955786,0.18441652,-2.412824,-0.23542345,-2.1092236
1643,A,710153452146000,-1.0346485,-2.7542725,0.55324954,-2.2413163,1.0652645,-1.8354506
1643,A,710153472350000,0.1460962,-4.1625443,0.87418216,-1.4988271,0.4910869,-0.9736517
1643,A,710153492446000,2.2776637,-10.178833,2.0405567,-0.95234644,-0.022370555,-1.4977618
1643,A,710153512674000,11.151212,-23.26522,-13.529466,-0.54648066,-1.3923006,-1.4562165
1643,A,710153532770000,14.082715,-30.977184,-17.756676,0.15765914,-1.9931098,-0.84581995
