Subject-Id,Activity Label,Time stamp,Accel_x,Accel_y,Accel_z,Gyro_x,Gyro_y,Gyro_z
1630,A,1559965958874670,4.921158,1.2752228,1.9311523,0.0957489,-0.18128967,-0.024597168
1630,A,1559966009228674,9.19873,1.5335693,1.7286224,1.2500153,0.13652039,0.4416809
1630,A,1559966059582678,12.07312,1.9255981,1.9891052,0.18008423,-0.34272766,0.32832336
1630,A,1559966109936682,13.473724,1.6065369,2.1875305,-0.11955261,0.43847656,0.28744507
1630,A,1559966160290686,12.95079,3.4613953,3.6158447,0.91337585,-0.32374573,0.41682434
1630,A,1559966210644690,8.920059,3.0270844,6.4876404,0.7370148,-0.44952393,0.34033203
1630,A,1559966260998694,5.003006,-1.0421906,4.0717316,0.7766571,0.35803223,0.09666443
1630,A,1559966311352697,7.198761,-2.1325684,5.985016,0.9083252,0.17123413,-0.033172607
1630,A,1559966361706701,8.849838,1.9388885,2.0559235,0.79660034,0.001159668,0.13183594
1630,A,1559966412060705,6.1624756,1.2184753,0.655838,0.21507263,0.20082092,0.20863342
1630,A,1559966462414709,7.0088043,-0.7933502,1.7465973,-0.11779785,0.3296051,0.34172058
1630,A,1559966512768713,9.307434,0.18792725,0.7094269,0.087524414,-0.4477539,0.029571533
1630,A,1559966563122717,9.522263,-0.7016144,1.1669922,0.486969,-0.3739624,-0.035964966
1630,A,1559966613476721,11.573303,-2.6312714,0.4963684,-0.21873474,0.5691986,-0.02798462
1630,A,1559966663830725,14.315414,-0.85665894,5.0755157,-0.2833252,0.03756714,-0.21847534
1630,A,1559966714184729,9.568375,4.4032135,5.6256256,-0.23828125,-0.22009277,-0.101486206
1630,A,1559966764538733,5.6486664,4.031845,3.4830933,-0.6938782,0.052383423,-0.0773468
1630,A,1559966814892737,8.57991,0.5519409,2.229004,-0.716156,-0.051361084,-0.105895996
1630,A,1559966865246740,8.489868,0.2046814,2.3012848,-0.8192749,-0.17558289,-0.2037201
1630,A,1559966915600744,5.390686,1.297287,0.76434326,-0.5974884,0.080947876,-0.48043823
1630,A,1559966965954748,6.4326324,0.3688202,0.74386597,0.13442993,0.22883606,-0.22969055
1630,A,1559967016308752,9.739243,0.96839905,1.0725098,0.48483276,-0.48568726,0.30978394
1630,A,1559967066662756,11.283386,1.5145874,1.7746887,-0.110321045,-0.22613525,0.2339325
1630,A,1559967117016760,13.432999,2.4463654,2.6334686,0.51138306,0.5705261,0.18930054
1630,A,1559967167370764,12.616867,2.9992676,4.806076,0.726532,-0.016708374,0.46420288
1630,A,1559967217724768,7.3726807,0.93551636,4.4523926,0.5056,-0.35513306,0.4076233
1630,A,1559967268078772,4.4662476,-0.90309143,5.369934,0.67303467,0.25611877,0.015411377
1630,A,1559967318432776,6.841324,0.4981842,5.2265015,0.664093,0.013412476,-0.09446716
1630,A,1559967368786779,8.623474,1.6135254,1.8369598,0.5287323,-0.018493652,0.13024902
1630,A,1559967419140783,7.2047424,-0.4987793,1.087616,0.17979431,0.24499512,0.3000946
1630,A,1559967469494787,8.033798,0.045333862,0.84516907,-0.23950195,0.14430237,0.2500763
1630,A,1559967519848791,8.6957855,0.8111572,1.1243591,-0.23210144,-0.50546265,-0.067337036
1630,A,1559967570202795,8.796616,-1.445816,1.2588348,0.29486084,-0.39749146,-0.094436646
1630,A,1559967620556799,11.795563,-1.94487,1.6934662,-0.123809814,0.46131897,-0.23692322
1630,A,1559967670910803,13.742218,0.087875366,3.878769,-0.71829224,0.28407288,-0.5145569
1630,A,1559967721264807,9.853348,1.8247528,4.5792236,-0.52311707,-0.17175293,-0.4658203
1630,A,1559967771618811,5.5884094,2.7515411,4.655899,-0.404953,-0.03388977,-0.31152344
1630,A,1559967821972815,7.7059937,2.2043304,2.1728058,-0.41589355,0.018203735,-0.06871033
1630,A,1559967872326819,9.825226,0.041290283,1.4847412,-0.52978516,5.0354004E-4,-0.08699036
1630,A,1559967922680822,6.9121246,0.9398804,1.7611237,-0.55262756,0.09603882,-0.2802124
1630,A,1559967973034826,6.0600586,1.3386383,1.0047607,-0.37295532,-0.05456543,-0.3309021
1630,A,1559968023388830,8.468857,0.8087158,0.49978638,0.3560791,-0.13679504,-0.041656494
1630,A,1559968073742834,9.595917,0.7772064,1.2033539,0.289917,-0.024749756,0.25624084
1630,A,1559968124096838,12.821442,1.7540436,2.0146637,0.52900696,0.39193726,0.29614258
1630,A,1559968174450842,13.723602,3.2351532,4.8917084,1.0093994,0.029586792,0.36746216
1630,A,1559968224804846,8.956406,2.932495,4.4696503,0.7817993,-0.13264465,0.51057434
1630,A,1559968275158850,5.130417,0.32382202,4.557312,0.83106995,0.3299408,0.32473755
1630,A,1559968325512854,5.8438263,0.23931885,5.99765,0.92085266,0.25549316,0.11054993
1630,A,1559968375866858,7.616745,1.7644958,1.5218506,0.87713623,0.001953125,0.24676514
1630,A,1559968426220862,7.1606903,0.43751526,0.77700806,0.25938416,0.17562866,0.4666748
1630,A,1559968476574865,8.279205,-0.48544312,1.6637573,-0.05567932,0.0949707,0.20343018
1630,A,1559968526928869,9.921936,0.1287384,1.0846558,-0.02848816,-0.4391327,0.1003418
1630,A,1559968577282873,9.576584,-0.4515686,0.83461,0.6349335,-0.2702484,0.14665222
1630,A,1559968627636877,12.155975,-2.8489838,1.91362,-0.13285828,0.3364563,-0.25064087
1630,A,1559968677990881,13.617645,0.36543274,1.8677063,-0.84213257,-0.10328674,-0.30204773
1630,A,1559968728344885,8.990234,2.7602692,3.7820892,-0.92622375,-0.30799866,-0.3282776
1630,A,1559968778698889,5.857422,4.530365,4.9569397,-0.78767395,0.33314514,-0.43165588
1630,A,1559968829052893,8.659912,1.9757385,1.2073975,-0.90463257,-0.3620758,-0.31704712
1630,A,1559968879406897,8.359863,-1.6815033,0.5579834,-1.1091003,-0.15846252,-0.37278748
1630,A,1559968929760901,5.6113586,0.9386139,1.4439392,-0.8803406,0.07098389,-0.5821533
1630,A,1559968980114904,7.059723,2.2962952,1.0289917,0.45845032,0.51031494,-0.11154175
1630,A,1559969030468908,11.604462,1.3401489,0.4001007,0.0087890625,0.14035034,0.2694397
1630,A,1559969080822912,14.14473,0.58522034,0.7721405,-0.92689514,-0.01979065,0.10694885
1630,A,1559969131176916,12.385178,2.3096771,2.5226746,0.2342987,-0.078125,0.0859375
1630,A,1559969181530920,9.621826,3.3471222,6.596466,0.34768677,-0.5651703,0.33148193
1630,A,1559969231884924,5.2235565,0.24441528,5.3184357,0.24414063,0.118881226,0.014007568
1630,A,1559969282238928,6.3640137,-2.922989,4.9699097,0.76734924,0.519989,0.09616089
1630,A,1559969332592932,7.785019,0.85539246,4.288147,0.84739685,0.023391724,0.35679626
1630,A,1559969382946936,5.757187,1.466095,1.3402863,0.35588074,-0.07470703,0.45207214
1630,A,1559969433300940,5.4259033,0.6997986,0.65509033,0.49092102,0.26286316,0.356781
1630,A,1559969483654944,9.778748,1.7443695,2.084793,0.2492981,-0.600647,0.121780396
1630,A,1559969534008947,10.304062,-0.44631958,1.7997437,0.27755737,-0.34443665,0.025817871
1630,A,1559969584362951,12.839676,-2.726181,0.23786926,-0.6227875,0.21139526,-0.32026672
1630,A,1559969634716955,14.235428,0.21786499,3.8147583,-0.9345856,-0.14613342,-0.43481445
1630,A,1559969685070959,9.549164,3.5712128,6.123291,-1.0369873,-0.096450806,-0.43588257
1630,A,1559969735424963,6.252411,3.1882324,3.9874725,-1.117981,-0.05128479,-0.254776
1630,A,1559969785778967,9.019516,-0.664505,1.5989838,-0.8304291,-0.28575134,-0.049865723
1630,A,1559969836132971,7.5671997,-0.28770447,1.5350342,-0.82588196,5.187988E-4,-0.12913513
1630,A,1559969886486975,4.5115356,1.1640625,1.8155212,-0.097473145,-0.19303894,-0.36993408
1630,A,1559969936840979,6.585266,1.2443542,1.0320587,-0.069747925,0.081954956,-0.13098145
1630,A,1559969987194983,10.194031,1.3853607,0.44718933,1.3112183,0.7361145,-0.15745544
1630,A,1559970037548987,9.634598,0.7554321,1.8768158,-0.53507996,0.12591553,0.13583374
1630,A,1559970087902990,12.369034,2.2531586,-1.4679108,0.6629944,0.0418396,0.43362427
1630,A,1559970138256994,12.719742,1.3844147,6.350403,0.77697754,-0.42866516,0.41305542
1630,A,1559970188610998,7.783539,1.765976,3.8901062,0.73765564,-0.07577515,0.39822388
1630,A,1559970238965002,6.371582,-2.2174988,7.5460052,0.65231323,0.31774902,0.20552063
1630,A,1559970289319006,8.57164,0.7986908,5.851776,0.9040375,0.28707886,0.08004761
1630,A,1559970339673010,7.0148315,2.1408997,-0.50190735,0.6243744,0.052444458,0.09289551
1630,A,1559970390027014,5.4746857,-0.14854431,2.0003204,-0.06298828,0.34558105,0.4113922
1630,A,1559970440381018,8.27626,-1.059082,-0.101638794,0.044540405,0.3701172,0.467865
1630,A,1559970490735022,9.664917,0.28974915,1.1468964,-0.09111023,-0.25073242,0.34539795
1630,A,1559970541089026,8.808716,0.13571167,1.8329773,0.828537,-0.62324524,0.051818848
1630,A,1559970591443029,12.747711,-1.6741638,1.2789917,0.054122925,0.5680542,-0.10899353
1630,A,1559970641797033,14.915192,-0.029067993,1.8545074,-0.38867188,0.20471191,-0.36254883
1630,A,1559970692151037,9.828354,1.657547,6.8395996,-0.14700317,-0.20205688,-0.4633484
1630,A,1559970742505041,4.7365417,3.3990784,5.813507,-0.6803131,0.013305664,-0.40942383
1630,A,1559970792855606,9.941391,2.0514069,1.3856659,-0.7888794,-0.13412476,-0.15608215
1630,A,1559970843209610,9.633743,-0.26127625,1.9841614,-0.79447937,-0.24464417,-0.12950134
1630,A,1559970893563614,5.591873,0.39367676,0.8104706,-0.28442383,-0.09399414,-0.72120667
1630,A,1559970943917618,6.0557404,0.14320374,0.7702179,-0.72216797,0.06890869,-0.76730347
1630,A,1559970994271622,8.387802,0.8932953,-0.5122986,1.3110046,0.42131042,0.41557312
1630,A,1559971044625626,10.3675995,2.5016937,2.5056763,0.59910583,-0.76345825,0.1917572
1630,A,1559971094979630,12.651901,2.5956573,0.99357605,-0.9907074,0.22758484,0.103500366
1630,A,1559971145333633,14.933777,2.651245,2.224701,0.8688507,0.21437073,0.39517212
1630,A,1559971195687637,11.788971,2.4054565,6.885788,0.5760193,-0.6929779,0.38885498
1630,A,1559971246041641,5.317444,1.1123047,3.9507294,0.5566864,0.55519104,0.23954773
1630,A,1559971296395645,4.9334717,-2.528946,7.121567,0.69148254,0.31507874,-0.005554199
1630,A,1559971346749649,8.739014,2.4106903,4.6739197,1.0130463,-0.06425476,-0.011581421
1630,A,1559971397103653,6.2687073,1.9133453,-2.1792603,0.4750061,-0.083114624,0.045272827
1630,A,1559971447457657,6.7921753,-1.0866852,2.306015,-0.27908325,0.6733093,0.5367279
1630,A,1559971497811661,9.0468445,0.8783722,0.026016235,-0.86006165,0.1960907,0.10432434
1630,A,1559971548165665,9.541107,-0.047470093,1.4900208,0.47251892,-1.2938232,-0.32284546
1630,A,1559971598519669,8.945602,-1.72789,-0.84672546,0.31755066,0.37921143,-0.024261475
1630,A,1559971648873673,14.698608,-1.7998047,5.165756,-0.56344604,0.4489746,-0.34358215
1630,A,1559971699227676,15.408005,3.0284576,4.655411,-0.06781006,-0.12374878,-0.28305054
1630,A,1559971749581680,5.5072784,3.9688416,5.981186,-0.34469604,-0.0712738,-0.3251953
1630,A,1559971799935684,4.42984,3.7310028,0.93688965,-0.595047,0.14059448,-0.15377808
1630,A,1559971850289688,9.8572235,-0.713501,2.5727844,-0.69999695,-0.21646118,-0.08999634
1630,A,1559971900643692,8.530853,0.436203,0.56929016,-0.56677246,0.20776367,-0.3132782
1630,A,1559971950997696,4.7774506,0.8112793,0.10256958,-0.321167,-0.11854553,-0.21182251
1630,A,1559972001351700,7.4619904,-0.09526062,0.48980713,0.20726013,0.8037567,-0.2286377
1630,A,1559972051705704,10.283173,1.6192169,0.4551239,0.5881653,-0.7137909,0.35299683
1630,A,1559972102059708,10.10965,2.8783417,2.84404,-0.3594818,0.120773315,0.19581604
1630,A,1559972152413712,14.213257,3.1346283,0.8928833,0.80345154,0.20985413,0.5149231
1630,A,1559972202767715,12.930389,3.9704132,10.382019,0.9404297,-0.46913147,0.46694946
1630,A,1559972253121719,6.6202545,0.64723206,3.8997955,0.65704346,0.18998718,0.21517944
1630,A,1559972303475723,5.383255,-0.6818695,7.3928375,0.86073303,0.43740845,0.078567505
1630,A,1559972353829727,8.674866,1.9749146,3.6010742,0.8611145,0.045700073,0.051223755
1630,A,1559972404183731,6.4900665,1.5963135,0.13400269,0.60523987,0.14833069,0.1938324
1630,A,1559972454537735,5.167618,0.12911987,1.8024292,-0.3848114,0.21017456,0.45417786
1630,A,1559972504891739,8.072037,0.17448425,0.74372864,-0.2590027,0.2701416,0.3572998
1630,A,1559972555245743,9.493088,0.09373474,0.93670654,-0.7470093,-0.45239258,0.0038604736
1630,A,1559972605599747,9.886978,-0.34535217,1.3175659,0.030471802,-0.5466461,-0.09365845
1630,A,1559972655953751,14.197098,-2.275467,1.1255798,-0.823349,0.034225464,-0.28442383
1630,A,1559972706307755,15.477295,1.4469147,2.7763824,-1.1067505,-0.12049866,-0.46369934
1630,A,1559972756661758,8.252487,1.7677002,7.267685,-0.90852356,-0.03807068,-0.6438141
1630,A,1559972807015762,5.3619385,4.4093323,5.940674,-1.153183,0.6878967,-0.37496948
1630,A,1559972857369766,9.576569,1.0271759,1.593277,-0.8397827,-0.22917175,-0.07347107
1630,A,1559972907723770,7.2221985,-0.7796936,0.8164673,-0.5610657,-0.039154053,-0.43258667
1630,A,1559972958077774,4.251129,0.6761017,1.0788574,0.02645874,0.058547974,-0.6060333
1630,A,1559973008431778,5.632721,0.72187805,1.5239716,-0.061264038,0.49943542,-0.14324951
1630,A,1559973058785782,11.009445,1.7041168,0.4661255,1.3700409,0.12080383,0.32400513
1630,A,1559973109139786,10.799652,3.3791656,2.3549805,-0.50697327,-0.39022827,0.47190857
1630,A,1559973159493790,12.301834,2.7776794,2.2778473,0.88230896,-0.0014343262,0.4459381
1630,A,1559973209847794,11.884979,2.1971283,8.242813,1.084198,-0.46470642,0.49848938
1630,A,1559973260201798,8.2070465,1.660965,4.075836,0.4883423,-0.49845886,0.41952515
1630,A,1559973310555801,5.832657,-3.6073456,5.887863,0.90278625,0.55470276,0.07797241
1630,A,1559973360909805,7.99646,0.9356842,4.8694153,0.82980347,0.13841248,-0.03781128
1630,A,1559973411263809,6.963272,2.8512573,0.06448364,0.47369385,0.01991272,0.23101807
1630,A,1559973461617813,5.7418365,-0.0065307617,1.2698364,-0.36009216,0.12649536,0.4664917
1630,A,1559973511971817,7.466461,-0.32026672,0.53230286,-0.16499329,0.009719849,0.28652954
1630,A,1559973562325821,10.120056,0.36427307,0.98321533,-0.33589172,-0.8269501,-0.10105896
1630,A,1559973612679825,10.2057495,-0.541626,1.2700043,0.22532654,-0.50434875,-0.10197449
1630,A,1559973663033829,14.08847,-1.8347168,0.5369873,-0.8516388,0.37565613,-0.3176117
1630,A,1559973713387833,14.587082,0.6178589,4.582611,-1.1393738,-0.16096497,-0.40579224
1630,A,1559973763741837,8.436844,3.0906067,7.2232056,-0.62158203,0.11375427,-0.43493652
1630,A,1559973814095840,5.9969635,3.951233,4.8955536,-0.5490265,0.6448059,-0.3304596
1630,A,1559973864449844,8.983841,0.4066925,1.1024628,-0.019577026,-0.61213684,-0.2641449
1630,A,1559973914803848,6.7194977,-0.6457062,1.1100769,-0.09150696,-0.10920715,-0.30673218
1630,A,1559973965157852,4.372879,0.59632874,2.1557617,0.31204224,0.29968262,-0.60331726
1630,A,1559974015511856,7.1013184,0.86772156,2.9870453,0.088134766,0.22428894,-0.04560852
1630,A,1559974065865860,9.459503,3.3753662,-0.23153687,-0.059753418,-0.41918945,0.46611023
1630,A,1559974116219864,10.2938385,3.9464722,2.9164581,-0.88246155,-0.37219238,-7.4768066E-4
1630,A,1559974166573868,15.627228,3.87706,1.0029602,-0.13461304,0.4419403,-0.047958374
1630,A,1559974216927872,12.373123,1.6005859,3.1079102,0.92074585,-0.5265045,0.32624817
1630,A,1559974267281876,9.610062,0.30110168,3.6432037,0.5457916,-0.064193726,0.17977905
1630,A,1559974317635880,8.049454,-0.68341064,6.5517883,0.3180542,0.9248352,-4.7302246E-4
1630,A,1559974367989883,6.2231445,-0.07637024,6.8575745,1.0831146,0.4935608,-0.04585266
1630,A,1559974418343887,7.0401154,2.320221,1.6049957,0.54141235,0.16255188,0.2083435
1630,A,1559974468697891,5.6522827,1.2383575,-1.5924225,-0.0058288574,0.16706848,0.52401733
1630,A,1559974519051895,7.113373,0.13920593,0.516449,-0.12261963,-0.2589264,0.37556458
1630,A,1559974569405899,8.993118,0.80493164,2.1840973,-0.28092957,-0.7624054,0.14405823
1630,A,1559974619759903,10.416016,-0.5365906,0.44180298,-0.09408569,-0.25956726,0.18061829
1630,A,1559974670113907,12.697449,-2.647522,0.57632446,-0.68203735,0.18301392,-0.17016602
1630,A,1559974720467911,13.227493,-0.7123108,4.2666626,-1.2384491,-0.53419495,-0.3877716
1630,A,1559974770821915,8.53302,2.5373077,5.942642,-0.94111633,0.06677246,-0.2701416
1630,A,1559974821175919,6.819519,3.7999878,5.054245,-0.8672638,0.7199249,-0.15681458
1630,A,1559974871529923,9.589569,1.5506897,1.9473114,-0.44984436,0.07878113,-0.25238037
1630,A,1559974921883926,7.3455048,-0.576355,1.0494537,-0.39543152,0.19265747,-0.27563477
1630,A,1559974972237930,4.3319397,-0.51530457,0.7774048,-0.87112427,0.3824463,-0.8604431
1630,A,1559975022591934,5.2930603,0.4141388,2.0924377,0.057724,0.42344666,-0.6767731
1630,A,1559975072945938,8.774261,3.4858093,1.9393463,0.585083,-0.09690857,0.55574036
1630,A,1559975123299942,11.784958,2.2361908,0.86305237,0.11323547,-0.4340515,0.5414276
1630,A,1559975173653946,13.982239,0.8165436,5.436249,0.3835907,-0.20314026,0.29776
1630,A,1559975224007950,11.965515,2.9992676,7.1716766,0.61634827,-0.5871277,0.3315277
1630,A,1559975274361954,8.090561,1.2161102,5.129486,0.6563568,-0.58044434,0.21954346
1630,A,1559975324715958,7.014862,-1.5720673,5.635147,0.45739746,0.06739807,0.088150024
1630,A,1559975375069962,7.9473114,0.16166687,4.0601196,0.6458435,0.42936707,0.015808105
1630,A,1559975425423965,6.6154633,1.3308716,2.1130524,0.47410583,-0.13911438,0.27700806
1630,A,1559975475777969,4.8102264,0.6458893,0.41111755,0.103897095,0.13447571,0.59820557
1630,A,1559975526131973,6.8432617,0.22109985,0.344635,-0.41778564,0.29974365,0.44000244
1630,A,1559975576485977,9.251556,0.58200073,2.303009,-0.014221191,-0.6975708,0.17021179
1630,A,1559975626839981,9.644409,-1.1908112,1.2085724,0.6632385,-0.2939911,0.20854187
1630,A,1559975677193985,12.429199,-2.5581665,1.8375092,-0.09188843,0.27970886,-0.13578796
1630,A,1559975727547989,14.12085,0.6241455,4.8881683,-0.69621277,-0.11613464,-0.41482544
1630,A,1559975777901993,9.379349,3.9125214,6.1155396,-0.41537476,-0.10839844,-0.35787964
1630,A,1559975828255997,6.280716,4.917572,4.946747,-0.5924225,0.41348267,-0.24256897
1630,A,1559975878610001,8.285568,1.882721,2.8559113,-0.7427826,-0.1746521,-0.07325745
1630,A,1559975928964005,8.290985,-0.7890167,0.94789124,-0.8828125,-0.22973633,-0.15982056
1630,A,1559975979318008,5.0516815,-0.13378906,0.16828918,-0.39767456,0.13175964,-0.64611816
1630,A,1559976029672012,6.060196,0.36083984,0.56170654,0.6596527,0.5727539,-0.33486938
1630,A,1559976080026016,9.863724,1.1040497,0.7827606,0.6242981,-0.48876953,0.35914612
1630,A,1559976130380020,11.274429,2.1467896,2.504242,-0.095047,-0.27204895,0.18804932
1630,A,1559976180734024,13.578918,4.28183,2.665924,0.6575165,0.29658508,0.29818726
1630,A,1559976231088028,12.522202,3.6173859,6.6865387,1.1949005,-0.102386475,0.36628723
1630,A,1559976281442032,8.310562,0.04272461,6.100586,0.643631,-0.2953186,0.27908325
1630,A,1559976331796036,5.679718,-1.586792,6.7154083,0.62135315,0.2998047,-0.051452637
1630,A,1559976382150040,6.8198853,0.8291931,5.334915,0.6670685,0.1635437,-0.09605408
1630,A,1559976432504044,6.4553223,1.7452545,0.75375366,0.23570251,-0.058013916,0.11105347
1630,A,1559976482858048,5.876419,0.34191895,-0.0776062,-0.57081604,0.32185364,0.3447876
1630,A,1559976533212051,8.060379,-3.2043457E-4,0.97351074,-0.7536011,0.17779541,-0.025466919
1630,A,1559976583566055,9.470108,-0.46385193,1.3534546,-0.5108948,-0.92796326,-0.2167511
1630,A,1559976633920059,9.211761,-1.4135895,0.45874023,0.18856812,-0.28189087,-0.002746582
1630,A,1559976684274063,12.812286,-2.4489288,2.8251038,-0.3894043,0.21109009,-0.26727295
1630,A,1559976734628067,15.041916,1.0171967,4.024658,-0.8701782,-0.14009094,-0.30110168
1630,A,1559976784982071,8.946701,2.6797333,5.7232056,-0.47431946,-0.29292297,-0.23283386
1630,A,1559976835336075,5.715088,4.287903,5.604782,-0.54026794,0.70414734,-0.18595886
1630,A,1559976885690079,8.266754,1.5625458,2.9880981,-0.5865021,0.030944824,0.06756592
1630,A,1559976936044083,7.6365356,-0.57025146,0.74176025,-0.8209686,-0.19075012,-0.097229004
1630,A,1559976986398087,4.3520355,0.75567627,0.25198364,-0.13101196,0.070114136,-0.69525146
1630,A,1559977036752090,6.009369,1.3092651,0.095962524,0.8417816,1.1208191,-0.47808838
1630,A,1559977087106094,10.827286,1.3669281,0.821228,0.90216064,-0.6855774,0.41764832
1630,A,1559977137460098,10.864197,0.13830566,1.4827576,-0.097595215,-0.2074585,0.08331299
1630,A,1559977187814102,13.912964,3.6503906,1.0069885,0.29789734,0.26527405,0.27171326
1630,A,1559977238168106,12.020538,4.063095,8.621826,0.63635254,-0.20622253,0.21646118
1630,A,1559977288522110,7.624405,0.511261,5.9561157,0.15486145,0.22525024,0.089416504
1630,A,1559977338876114,5.4212494,-2.5788727,6.4652557,0.5065155,0.49952698,0.015274048
1630,A,1559977389230118,8.800934,-0.073913574,4.4306335,0.89282227,0.26589966,0.019927979
1630,A,1559977439584122,7.3759613,2.5335083,-0.25175476,0.38801575,-0.19363403,0.2002716
1630,A,1559977489938126,5.4087524,0.7753601,-0.25053406,-0.1330719,0.5453491,0.50016785
1630,A,1559977540292130,6.709839,-7.6293945E-4,1.7855377,-1.125412,0.10739136,0.056289673
1630,A,1559977590646133,9.787689,0.7059479,1.5106049,-0.33103943,-1.3793488,0.04940796
1630,A,1559977641000137,9.380051,-1.2893677,0.012817383,0.06460571,-0.14477539,0.260437
1630,A,1559977691354141,13.018646,-2.7220764,3.4974976,-0.8851166,0.20573425,-0.18695068
1630,A,1559977741708145,16.469604,0.43110657,5.0845337,-0.9412384,0.043518066,-0.22619629
1630,A,1559977792062149,8.081619,3.880371,6.400223,-0.3762207,0.22377014,-0.25271606
1630,A,1559977842416153,5.9637146,5.044388,3.7486877,-0.74990845,0.23432922,-0.07128906
1630,A,1559977892770157,7.4845734,-0.04034424,2.3327942,-0.57398987,-0.027053833,-0.016326904
1630,A,1559977943124161,6.8296204,-0.8044739,1.8914185,-0.8027191,0.18762207,-0.30937195
1630,A,1559977993478165,5.1792755,0.060455322,0.5223999,-0.090927124,-0.41218567,-0.3132782
1630,A,1559978043832169,7.1848297,0.627655,0.6163788,0.50616455,0.28379822,-0.1736145
1630,A,1559978094186173,11.257385,2.1223755,1.1583862,0.82888794,-0.34417725,0.010406494
1630,A,1559978144540176,9.843445,-0.27346802,1.3377838,0.00289917,0.12390137,0.042648315
1630,A,1559978194894180,15.482147,2.9187012,1.6678314,1.0258026,-0.026809692,0.4680786
1630,A,1559978245248184,11.713852,3.2047882,7.2734985,1.223999,-0.32009888,0.3071289
1630,A,1559978295602188,6.1231995,0.5297699,4.048279,0.40560913,0.4506073,0.019561768
1630,A,1559978345956192,5.9771576,-3.030655,7.281494,0.7025299,0.5609436,0.008651733
1630,A,1559978396310196,9.379105,0.95777893,4.410141,0.7607269,-0.08509827,-0.05769348
1630,A,1559978446664200,5.356964,1.6204071,-1.6062775,0.67285156,-0.3013916,0.0011138916
1630,A,1559978497018204,5.4631805,-0.65678406,0.53582764,-0.12271118,0.20358276,0.34483337
1630,A,1559978547372208,8.897324,-0.0438385,0.8700714,-0.67544556,-0.026428223,-0.07432556
1630,A,1559978597726212,10.117401,0.26223755,1.797226,0.30723572,-1.623352,-0.31967163
1630,A,1559978648080215,9.389343,-1.1268921,-0.58184814,-0.031951904,0.252594,0.047546387
1630,A,1559978698434219,14.76178,-3.5554047,4.6586304,-1.3911743,0.07336426,-0.5153198
1630,A,1559978748788223,14.114334,1.9216614,4.3194885,-1.0935974,-0.32765198,-0.2733612
1630,A,1559978799142227,5.381897,3.8863068,5.8855133,-0.70840454,0.144104,-0.32139587
1630,A,1559978849496231,7.7030945,4.033737,2.5628052,-1.1558685,0.33659363,-0.1491394
1630,A,1559978899850235,8.204987,-0.9174652,1.6334839,-0.84310913,-0.22364807,0.1695404
1630,A,1559978950204239,7.532654,0.79519653,1.3454437,-0.853302,0.14178467,-0.16366577
1630,A,1559979000558243,4.342514,1.3003235,0.6210327,0.026153564,0.013671875,-0.3383789
1630,A,1559979050912247,7.0727386,1.035492,0.26202393,0.6588745,0.32278442,0.01586914
1630,A,1559979101266251,11.239548,1.1366882,0.8456421,1.3600464,-0.41600037,0.26853943
1630,A,1559979151620255,10.719742,0.1434021,0.88853455,-0.31828308,-0.058624268,0.23495483
1630,A,1559979201974258,14.727661,4.534317,-0.21113586,0.5043793,0.2945404,0.2975006
1630,A,1559979252328262,13.5346985,2.7277222,6.6651917,0.8031311,0.1905365,0.27563477
1630,A,1559979302682266,5.7615814,0.38719177,3.5956573,0.40376282,-0.0027923584,0.19772339
1630,A,1559979353036270,4.073242,-2.33049,6.327484,0.6569061,0.68429565,0.12309265
1630,A,1559979403390274,9.013779,0.20396423,4.1857452,0.76976013,0.00390625,-0.049697876
1630,A,1559979453744278,8.248413,2.0549164,0.22782898,0.2866974,-0.003326416,0.32873535
1630,A,1559979504098282,4.943161,0.702301,0.16978455,-0.056289673,0.23220825,0.23529053
1630,A,1559979554452286,8.350723,-0.14041138,0.7476349,0.5808716,0.5156708,0.53526306
1630,A,1559979604806290,10.61528,0.7228699,-0.78323364,0.02217102,-1.0509796,0.0887146
1630,A,1559979655160294,9.665558,-1.4971161,2.2756195,0.64038086,0.22421265,0.10218811
1630,A,1559979705514298,12.817688,0.6482544,-1.3623505,-0.739975,0.0030517578,-0.3699646
1630,A,1559979755868301,15.077499,0.32809448,3.7851868,-0.16633606,-0.69259644,-0.30259705
1630,A,1559979806222305,6.171356,3.7360077,6.936783,-0.3713684,0.05595398,-0.24301147
1630,A,1559979856576309,7.393158,3.6038666,3.3179321,-0.8468628,0.4940033,-0.19598389
1630,A,1559979906930313,10.169373,-1.0443573,1.9589233,-0.6648407,-0.09820557,-0.07701111
1630,A,1559979957284317,8.131088,0.91612244,0.7605896,-0.8397217,0.18992615,-0.677948
1630,A,1559980007638321,4.5466614,0.80352783,0.40405273,-0.17062378,-0.06719971,-0.8258209
1630,A,1559980057992325,6.0482025,-0.5449066,0.099349976,-0.041046143,0.30488586,-0.33164978
1630,A,1559980108346329,10.428055,0.60643005,-0.37216187,0.83924866,-0.58332825,0.45584106
1630,A,1559980158700333,10.555145,1.963623,1.3834839,-0.01272583,-0.11090088,0.25167847
1630,A,1559980209054337,12.333603,2.594818,0.23745728,0.20046997,0.62028503,0.29129028
1630,A,1559980259408340,12.6332245,2.350174,6.9771576,0.7047577,-0.24081421,0.5545807
1630,A,1559980309762344,7.401947,-0.36087036,3.0191498,0.3010254,0.12895203,0.3292389
1630,A,1559980360116348,5.939728,-1.1084442,5.9526825,0.38754272,0.64263916,-0.07090759
1630,A,1559980410470352,8.142807,0.63279724,5.520294,0.60269165,0.338562,-0.18882751
1630,A,1559980460824356,8.994003,1.6502075,0.33555603,0.3934784,-0.033493042,0.15562439
1630,A,1559980511178360,5.595459,-0.145401,-0.5119934,-0.08479309,0.11671448,0.40823364
1630,A,1559980561532364,6.001877,-0.33940125,2.094223,-0.18183899,0.50061035,0.36515808
1630,A,1559980611886368,9.189178,0.9047699,0.06896973,-0.76934814,-0.46032715,-0.18421936
1630,A,1559980662240372,9.245728,-1.0396118,1.0687256,0.25180054,-1.1040802,-0.02973938
1630,A,1559980712594376,11.797028,-2.9591217,-0.11230469,-0.4225464,0.3082428,-0.04071045
1630,A,1559980762948194,14.661667,-0.8367157,5.810791,-1.2249298,-0.0982666,-0.41667175
1630,A,1559980813302197,10.964584,1.8191223,6.7771454,-0.81518555,-0.2559204,-0.36898804
1630,A,1559980863656201,5.1063995,3.4674835,4.884079,-0.76278687,0.3705597,-0.21200562
1630,A,1559980914010205,8.632172,2.1246796,2.4241333,-0.84788513,0.08299255,-0.15608215
1630,A,1559980964364209,8.211838,-1.3582153,1.6924744,-0.64720154,-0.30342102,-0.1786499
1630,A,1559981014718213,5.7992096,0.76860046,0.6899109,-0.50216675,0.13633728,-0.28901672
1630,A,1559981065072217,5.9751587,0.99534607,0.45489502,0.54208374,0.4492798,-0.40864563
1630,A,1559981115426221,8.8190155,0.7674713,0.5789337,1.021225,0.09674072,-0.12289429
1630,A,1559981165780225,10.751251,1.857544,1.1119537,0.4333954,-0.5197449,0.22628784
1630,A,1559981216134229,11.988434,2.0764313,2.7424316,0.26264954,0.59736633,0.1043396
1630,A,1559981266488233,13.73819,3.8310394,4.200592,0.6073456,0.05281067,0.42836
1630,A,1559981316842237,9.911575,0.58935547,7.154434,0.5216522,-0.2887268,0.27389526
1630,A,1559981367196240,6.0054474,-1.8625946,5.5938263,0.27342224,0.29994202,0.12059021
1630,A,1559981417550244,6.658264,-0.8250427,6.186371,0.3935089,0.49324036,-0.026672363
1630,A,1559981467904248,8.747452,1.122345,2.0619965,0.47044373,0.043945313,-0.015640259
1630,A,1559981518258252,5.9837494,0.69799805,-0.2323761,0.23782349,0.26531982,0.25006104
1630,A,1559981568612256,6.290207,-0.03060913,0.63290405,-0.48625183,0.9863281,0.5765991
1630,A,1559981618966260,8.870514,0.012481689,1.6494598,-0.42022705,0.6945648,0.32458496
1630,A,1559981669320264,9.401718,-0.046340942,0.997818,-0.20201111,-0.77130127,0.10321045
1630,A,1559981719674268,10.210831,-1.0768738,3.1221924,-0.13993835,0.031799316,0.13597107
1630,A,1559981770028272,13.879044,-2.072464,5.754883,-0.29074097,0.052124023,-0.28355408
1630,A,1559981820382276,12.947845,2.382965,4.6809845,-0.4575653,-0.7344055,-0.3997345
1630,A,1559981870736279,7.600235,3.565689,4.796768,-0.73843384,-0.6646576,-0.25559998
1630,A,1559981921090283,8.026413,1.7782745,4.4714355,-0.93795776,0.06274414,-0.13043213
1630,A,1559981971444287,9.12088,0.43392944,3.4703827,-0.8900604,0.042495728,-0.18887329
1630,A,1559982021798291,6.544098,0.13383484,0.46003723,-0.4620819,0.17376709,-0.6110077
1630,A,1559982072152295,4.6671295,-0.0056610107,0.24224854,-0.15583801,-0.11868286,-1.0132294
1630,A,1559982122506299,7.002823,0.3856964,0.6771393,0.54711914,0.52220154,-0.32826233
1630,A,1559982172860303,10.059692,1.1993256,1.6856384,1.1678009,0.5764313,0.5345154
1630,A,1559982223214307,11.116516,1.5348969,1.1207733,0.011001587,-0.17097473,0.38407898
1630,A,1559982273568311,11.090393,1.4764099,3.207489,0.49263,-0.30847168,0.53590393
1630,A,1559982323922315,10.272369,1.9637146,7.67659,0.9057617,-0.96095276,0.42422485
1630,A,1559982374276319,8.475159,1.2614288,6.3550873,0.8344879,-0.3374939,0.23745728
1630,A,1559982424630322,6.880783,-0.8282013,6.8482666,0.7418518,0.40586853,-0.11190796
1630,A,1559982474984326,7.7838593,0.20277405,3.305725,0.61105347,0.12823486,-0.02015686
1630,A,1559982525338330,6.9698944,1.2448425,0.72895813,0.049316406,-0.051605225,0.15742493
1630,A,1559982575692334,6.274765,0.35717773,-0.37086487,-0.23634338,-6.866455E-4,0.5223999
1630,A,1559982626046338,8.150513,0.29508972,-0.05569458,-0.41218567,0.028060913,0.40696716
1630,A,1559982676400342,9.179306,-0.7396698,1.1103821,0.038024902,-0.43504333,0.024841309
1630,A,1559982726754346,9.947418,-1.525528,-0.15692139,-0.05380249,-0.06617737,0.009262085
1630,A,1559982777108350,14.3259735,-0.61050415,0.7543793,-0.9848175,-0.13742065,-0.28001404
1630,A,1559982827462354,13.536484,1.1852264,5.7931366,-0.9756775,-0.6574707,-0.4371338
1630,A,1559982877816358,7.3436584,3.4236298,6.6531677,-0.83792114,0.10922241,-0.3874054
1630,A,1559982928170362,7.129898,2.3404846,4.6428223,-0.8801727,0.37989807,-0.108566284
1630,A,1559982978524365,8.764465,-0.30941772,2.0253448,-0.63993835,-0.20765686,-0.1282959
1630,A,1559983028878369,6.4316864,-0.544693,0.96099854,-0.20303345,0.030563354,-0.37524414
1630,A,1559983079232373,4.725357,0.8167114,0.19230652,0.022460938,0.48486328,-0.47200012
1630,A,1559983129586377,7.5490723,1.2076416,0.90382385,0.72317505,0.06983948,0.031417847
1630,A,1559983179940381,9.894196,1.7242584,1.2772064,0.42539978,-0.32226563,0.2663269
1630,A,1559983230294385,11.300705,2.8455963,1.867569,0.5095062,0.13389587,0.30807495
1630,A,1559983280648389,14.817932,3.0812073,5.2056885,1.0233154,0.048980713,0.43275452
1630,A,1559983331002393,11.704742,1.0396423,4.343582,0.7188568,-0.5049896,0.33143616
1630,A,1559983381356397,6.94928,-1.4861298,5.4725494,0.40263367,0.09403992,0.06034851
1630,A,1559983431710401,7.1042633,-0.5315552,6.1908417,0.41830444,0.40379333,-0.093322754
1630,A,1559983482064404,7.9803314,1.2705688,2.3365479,0.5751343,0.25202942,-0.016113281
1630,A,1559983532418408,7.1215973,0.47021484,0.17980957,0.024490356,-0.025314331,0.24217224
1630,A,1559983582772412,6.039566,-0.6645355,0.013000488,-0.29389954,0.46922302,0.51127625
1630,A,1559983633126416,7.891144,-0.065216064,0.0135650635,-0.5736847,0.036254883,0.049682617
1630,A,1559983683480420,9.419876,0.9765167,1.7861481,0.22128296,-0.6878662,-0.1300354
1630,A,1559983733834424,10.830292,-1.9185638,1.5522308,-0.25074768,0.0064849854,-0.21035767
1630,A,1559983784188428,13.728897,-3.2766876,2.0122223,-1.074173,0.15257263,-0.25263977
1630,A,1559983834542432,11.770554,1.6624146,5.588028,-0.71803284,-0.56715393,-0.44917297
1630,A,1559983884896436,6.77124,5.184723,6.1588593,-0.8721161,0.15100098,-0.27922058
1630,A,1559983935250440,6.7717896,2.29924,4.1927032,-0.91108704,0.3085785,-0.013244629
1630,A,1559983985604444,7.3023987,-0.7899933,2.4806976,-0.5232544,-0.009933472,-0.27522278
1630,A,1559984035958447,6.214554,0.32521057,1.1704712,0.16392517,-0.12619019,-0.48025513
1630,A,1559984086312451,5.344757,0.9194031,0.66096497,-0.13284302,0.05076599,-0.5624237
1630,A,1559984136666455,8.244217,0.697876,1.1860962,1.0710144,0.12626648,0.093322754
1630,A,1559984187020459,10.679703,2.4120178,1.7837524,0.6023712,-0.6632843,0.39189148
1630,A,1559984237374463,10.707916,3.139389,1.394989,-0.67645264,0.039016724,0.048553467
1630,A,1559984287728467,12.9608,0.8916931,3.3343964,0.64208984,0.11984253,0.17697144
1630,A,1559984338082471,12.074112,1.8750153,3.2927856,1.1706696,-0.26045227,0.3113098
1630,A,1559984388436475,7.483383,-0.05079651,3.1018066,0.6810303,-0.30451965,0.11091614
1630,A,1559984438790479,5.9240875,-2.607483,6.2370605,0.5077362,0.29960632,-0.1591034
1630,A,1559984489144483,8.244263,0.6452942,4.8703003,0.84947205,0.27337646,0.06669617
1630,A,1559984539498487,7.388443,1.5739136,0.8614197,0.0821991,-0.074661255,0.37913513
1630,A,1559984589852490,6.25383,0.56677246,-0.04371643,-0.0038757324,0.29901123,0.5041809
1630,A,1559984640206494,7.945816,0.9246521,-0.77459717,-0.45498657,-0.09423828,0.36058044
1630,A,1559984690560498,9.160767,0.7528839,0.9573364,0.23756409,-1.2479858,0.3105011
1630,A,1559984740914502,11.136383,-2.3337097,-0.98765564,0.36932373,0.237854,0.09460449
1630,A,1559984791268506,14.275131,0.14883423,2.2763062,-1.282074,0.34344482,-0.30812073
1630,A,1559984841622510,14.843597,0.23168945,5.3975677,-1.1147919,-0.15455627,-0.19459534
1630,A,1559984891976514,6.9790497,2.8381958,7.8329315,-0.5735779,0.1418457,-0.077056885
1630,A,1559984942330518,7.3915253,3.6372223,2.0035858,-0.8386841,0.96720886,-0.123046875
1630,A,1559984992684522,8.884842,-0.09063721,1.2696381,-0.57473755,-0.03604126,-0.16850281
1630,A,1559985043038526,7.281006,-0.30140686,0.6467438,-0.22610474,0.10522461,-0.28523254
1630,A,1559985093392529,4.1735077,0.32792664,-0.20303345,-0.13468933,-0.54981995,-0.17857361
1630,A,1559985143746533,8.031982,1.030777,0.15803528,0.5849457,0.2199707,0.038619995
1630,A,1559985194100537,11.063461,2.1615448,1.3111267,1.21492,-0.47480774,0.19673157
1630,A,1559985244454541,11.622452,2.3184967,3.5502167,-0.88145447,0.105545044,-0.21844482
1630,A,1559985294808545,13.303711,1.519577,0.2615509,0.38728333,0.20915222,0.27549744
1630,A,1559985345162549,14.574341,1.7634583,6.664978,1.3825073,-0.22579956,0.31289673
1630,A,1559985395516553,8.626389,1.471695,3.4500885,0.076812744,-0.02330017,0.14190674
1630,A,1559985445870557,4.1800995,-1.8629608,5.9594574,-0.12756348,0.34054565,-0.078308105
1630,A,1559985496224561,7.990738,-0.17628479,5.9725494,0.31755066,0.15260315,-0.101882935
1630,A,1559985546578565,8.602585,2.1906586,0.57218933,0.3189392,-0.12866211,-0.101135254
1630,A,1559985596932569,5.987915,-0.1512146,-2.1656342,-0.4729309,0.53045654,0.41174316
1630,A,1559985647286572,7.213272,-1.0186462,1.7141113,-0.61756897,0.52586365,0.3347473
1630,A,1559985697640576,9.616562,0.8078613,0.9119568,0.20132446,-0.97940063,-0.09260559
1630,A,1559985747994580,9.278366,-0.2796173,-0.0064849854,0.19015503,-0.11454773,0.19308472
1630,A,1559985798348584,13.227356,-2.2568817,5.0423737,-0.45739746,0.35203552,-0.182724
1630,A,1559985848702588,16.134933,1.7362671,3.8999329,-0.65182495,-0.011627197,-0.10964966
1630,A,1559985899056592,9.070908,4.34494,5.000183,-0.51820374,-0.4719391,-0.06324768
1630,A,1559985949410596,5.5657196,2.6894531,2.8789063,-0.4003296,0.28936768,-0.08995056
1630,A,1559985999764600,7.4212036,0.4884491,2.451889,-0.34353638,-0.12916565,-0.026763916
1630,A,1559986050118604,8.259628,-0.11973572,1.6502838,-0.8972931,0.011749268,-0.04399109
1630,A,1559986100472608,5.995117,1.0176697,0.5649872,-0.21380615,-0.2515564,-0.7288513
1630,A,1559986150826612,6.9978027,0.8795624,-0.41542053,-0.17932129,0.6211395,-0.5419769
1630,A,1559986201180615,9.577515,1.3479004,-0.6631775,1.6071167,0.39360046,0.08018494
1630,A,1559986251534619,9.014481,-0.5877991,1.4128265,-0.26252747,-0.39797974,0.10932922
1630,A,1559986301888623,13.658325,3.5485687,1.1832275,0.39007568,0.19592285,0.33920288
1630,A,1559986352242627,13.514923,2.6200256,4.1847076,0.8271332,-0.4434662,0.37527466
1630,A,1559986402596631,8.9782715,-0.28851318,2.7148438,0.84698486,-0.5958252,0.24494934
1630,A,1559986452950635,7.3340454,-2.8549042,7.3291626,0.17857361,0.6855774,-0.102127075
1630,A,1559986503304639,8.046158,-0.8723602,4.711197,0.61909485,0.3022766,-0.032836914
1630,A,1559986553658643,8.818985,2.5722046,1.2783356,0.30543518,0.14517212,0.08174133
1630,A,1559986604012647,4.36467,1.2432404,-0.87246704,-0.7742462,-0.061904907,0.5598755
1630,A,1559986654366651,5.5364227,-0.68074036,0.69355774,-0.2533722,1.1116943,0.46652222
1630,A,1559986704720654,9.389145,-0.63720703,0.069122314,-0.6101532,-0.050598145,0.08421326
1630,A,1559986755074658,9.348953,0.17530823,2.0242615,0.38272095,-1.1513519,0.057250977
1630,A,1559986805428662,12.928482,-3.0236816,-0.44641113,0.35523987,0.39083862,0.013641357
1630,A,1559986855782666,17.76329,1.0124207,1.8207397,-1.0753326,-0.27815247,-0.44648743
1630,A,1559986906136670,11.0147705,1.9373474,6.2298737,-0.68377686,-0.6579132,-0.34846497
1630,A,1559986956490674,4.9407196,3.0036926,7.6486206,-0.6108856,0.56988525,-0.15252686
1630,A,1559987006844678,7.291046,2.4482574,2.2213898,-1.094696,0.3591919,-0.22181702
1630,A,1559987057198682,8.631409,-1.0055084,1.7790375,-0.54019165,-0.41256714,-0.27970886
1630,A,1559987107552686,6.1581573,-0.7840271,0.029159546,-0.38174438,0.008392334,-0.307312
1630,A,1559987157906690,5.4621124,-0.30291748,-0.72779846,0.21179199,0.42729187,-0.19348145
1630,A,1559987208260694,9.632217,0.28034973,0.7993164,1.1506348,0.0019989014,-0.10610962
1630,A,1559987258614697,11.03894,3.6695251,0.08872986,0.40596008,-0.7298889,0.27313232
1630,A,1559987308968701,10.634644,3.3866882,3.7299805,-0.07795715,0.8592682,-0.14677429
1630,A,1559987359322705,13.908066,1.0993195,2.4981842,0.7817993,0.022567749,0.36541748
1630,A,1559987409676709,11.093552,1.5541382,5.7795258,0.63041687,-0.13827515,0.35882568
1630,A,1559987460030713,6.3355255,-1.5496521,3.6582947,0.22711182,0.36444092,0.11729431
1630,A,1559987510384717,5.7217407,-0.90823364,7.989273,0.5096588,0.37495422,-0.0069122314
1630,A,1559987560738721,9.629196,1.0757294,1.9320831,0.61428833,0.09036255,0.047714233
1630,A,1559987611092725,6.884308,1.1414337,-0.3761902,0.28819275,-0.043426514,0.002822876
1630,A,1559987661446729,5.7095795,-0.16409302,-0.06248474,-0.24902344,0.16456604,0.3406372
1630,A,1559987711800733,8.54982,0.39993286,1.3575745,-0.14682007,-0.29048157,0.29330444
1630,A,1559987762154737,10.312897,-0.757843,1.0879974,0.17524719,-1.0693512,0.14909363
1630,A,1559987812508740,9.870529,-1.5935822,0.9025116,0.6535034,0.10572815,0.08673096
1630,A,1559987862862744,12.953201,-1.4531708,0.513916,-1.282547,-0.08181763,-0.47122192
1630,A,1559987913216748,14.619659,1.7917328,2.8310547,-1.1563721,-0.36528015,-0.31240845
1630,A,1559987963570752,6.8700104,3.3383484,7.220001,-0.753952,0.29013062,-0.31300354
1630,A,1559988013924756,7.440323,4.5134583,4.6734467,-0.9641113,0.5313721,-0.25621033
1630,A,1559988064278760,9.167053,-1.0578308,1.2918701,-0.66770935,-0.08265686,-0.09843445
1630,A,1559988114632764,7.011978,-0.8125305,0.5277405,-0.33529663,0.169693,-0.31822205
1630,A,1559988164986768,4.0805817,0.3010559,-0.16809082,0.47180176,0.33067322,-0.55441284
1630,A,1559988215340772,7.4402924,1.0349731,1.2939606,0.29237366,-0.7068176,-0.3835907
1630,A,1559988265694776,10.464462,1.7333527,0.6178436,0.61068726,-0.7101135,-0.017669678
1630,A,1559988316048779,10.998871,2.7216034,0.8078613,-0.2103424,0.3262024,-0.15776062
1630,A,1559988366402783,15.392944,3.2020264,0.9824829,0.51501465,0.39492798,0.21469116
1630,A,1559988416756787,13.899261,1.0263824,7.3974304,0.7827301,-0.0056915283,0.31695557
1630,A,1559988467110791,6.3661804,-0.88552856,4.1853027,0.46702576,-0.49162292,0.39535522
1630,A,1559988517464795,4.597351,-0.6200104,6.8124237,0.39144897,0.7717285,0.04486084
1630,A,1559988567818799,8.64505,1.5914764,4.3947144,0.66677856,0.3659668,0.057510376
1630,A,1559988618172803,8.332703,2.4343872,0.5338898,0.28953552,0.2967682,0.39137268
1630,A,1559988668526807,5.9288025,0.04156494,-0.9771118,-0.2840271,0.032424927,0.6904297
1630,A,1559988718880811,7.0270996,-0.6191101,0.7754364,-0.083221436,0.40904236,0.2596283
1630,A,1559988769234815,9.746246,0.9637909,0.02104187,-0.39239502,-0.41978455,0.16333008
1630,A,1559988819588819,10.085342,-0.1343689,2.2155304,0.42739868,-0.656662,-0.02758789
1630,A,1559988869942822,14.277298,-1.2917328,0.86802673,-0.7182007,0.33285522,-0.09954834
1630,A,1559988920296826,14.8741,1.6728821,2.8031158,-0.8700714,-0.4689331,-0.2593994
1630,A,1559988970650830,9.161987,1.3664093,7.053711,-0.653183,-0.36009216,-0.21844482
1630,A,1559989021004834,5.649887,4.6249237,4.6063843,-0.9147644,0.29719543,-0.16696167
1630,A,1559989071358838,8.859772,1.5088806,1.8516083,-0.73812866,0.05317688,-0.09320068
1630,A,1559989121712842,8.2139435,-0.36701965,1.6116791,-0.4889679,-0.10321045,-0.3688507
1630,A,1559989172066846,5.112198,0.12834167,0.068984985,-0.29681396,-0.20202637,-0.7134247
1630,A,1559989222420850,5.8069916,0.6238556,0.44889832,0.24368286,0.47912598,-0.20643616
1630,A,1559989272774854,9.116669,1.3424377,1.1488953,1.1500549,0.54467773,0.48171997
1630,A,1559989323128858,11.78891,2.4982758,1.7462921,0.07827759,-0.37193298,0.33299255
1630,A,1559989373482862,14.794617,2.9167786,1.2123871,0.29438782,0.07972717,0.44396973
1630,A,1559989423836865,13.034882,2.63562,3.9069214,0.70072937,-0.61935425,0.47650146
1630,A,1559989474190869,8.719177,0.42352295,5.562546,0.7992401,-0.075912476,0.17544556
1630,A,1559989524544873,6.4031982,-0.8127136,6.103119,0.35861206,0.74864197,-0.19543457
1630,A,1559989574898877,7.1507874,-0.2914734,3.5601196,0.65586853,0.50216675,-0.19625854
1630,A,1559989625252881,7.789139,1.119278,0.79522705,0.42547607,0.08299255,0.14837646
1630,A,1559989675606885,5.5168,0.44007874,-0.48999023,-0.28834534,0.10542297,0.6286926
1630,A,1559989725960889,7.067581,-0.032043457,0.13067627,-0.31832886,0.12294006,0.33551025
1630,A,1559989776314893,9.652267,0.5752411,1.6647339,-0.16622925,-0.9821625,0.0019378662
1630,A,1559989826668897,11.448654,-0.97546387,0.16065979,0.35317993,-0.47956848,0.105407715
1630,A,1559989877022901,14.700577,-2.8881836,0.80474854,-0.7813873,0.46463013,-0.25231934
1630,A,1559989927376904,14.483734,0.98742676,5.111023,-1.0343475,-0.40672302,-0.36473083
1630,A,1559989977730908,8.12793,4.9944153,6.4578857,-0.75491333,-0.02243042,-0.06071472
1630,A,1559990028084912,6.043045,3.645996,5.338318,-0.84643555,0.7693939,-0.09855652
1630,A,1559990078438916,8.800415,0.19259644,2.434967,-0.5952606,0.1671753,-0.14195251
1630,A,1559990128792920,6.7842407,-0.88349915,1.4716187,-0.1892395,-0.34129333,-0.30130005
1630,A,1559990179146924,4.303299,-0.35305786,-0.81155396,0.13294983,0.16241455,-0.6050415
1630,A,1559990229500928,6.365555,0.62687683,-0.069366455,0.5166931,0.11299133,-0.42478943
1630,A,1559990279854932,10.570877,2.5776215,2.2194366,0.43170166,-0.5500641,-0.06593323
1630,A,1559990330208936,11.999527,3.492447,1.5730438,-0.11393738,-0.25532532,-0.012313843
1630,A,1559990380562940,13.220932,1.7599487,0.72550964,0.383667,0.29855347,0.15678406
1630,A,1559990430916944,12.491745,0.3250885,3.9396362,0.9887085,-0.10247803,0.3413086
1630,A,1559990481270947,8.253815,-0.7460327,5.6497498,0.58358765,0.10241699,0.08943176
1630,A,1559990531624951,5.8592987,-2.066986,5.1449127,0.56637573,0.5456238,-0.10601807
1630,A,1559990581978955,7.7441864,0.27937317,4.187332,0.8269348,0.24673462,0.048538208
1630,A,1559990632332959,7.1571655,1.9698639,0.6226349,0.47685242,-0.14447021,0.25222778
1630,A,1559990682686963,4.879471,0.24867249,-0.21304321,-0.26358032,0.16514587,0.46452332
1630,A,1559990733040967,7.0720673,0.21392822,0.3316803,-0.7545929,0.32791138,0.05456543
1630,A,1559990783409057,9.602615,0.4289093,1.1436615,-0.374588,-0.7902832,-0.2059021
1630,A,1559990833763061,9.675079,-2.000473,0.30751038,0.35943604,-0.45283508,0.12973022
1630,A,1559990884117065,12.06015,-3.6064148,1.6829681,-0.294693,0.46243286,-0.11546326
1630,A,1559990934471069,14.209717,0.78712463,4.24881,-1.2210693,-0.04234314,-0.33847046
1630,A,1559990984825073,10.448044,3.597519,4.5366516,-1.042099,-0.54545593,-0.26986694
1630,A,1559991035179076,6.898819,3.5307617,4.8795776,-0.70262146,0.24356079,-0.1583252
1630,A,1559991085533080,7.751465,1.7099915,3.0452118,-0.7212982,0.34631348,3.0517578E-4
1630,A,1559991135887084,7.7947235,-0.7659912,1.3164673,-0.5202942,-0.022872925,-0.0848999
1630,A,1559991186241088,5.023102,-0.4542389,0.58839417,-0.0076446533,-0.40838623,-0.18011475
1630,A,1559991236595092,5.583786,1.2458954,-0.009002686,0.38676453,-0.23956299,-0.13409424
1630,A,1559991286949096,10.104263,1.9762268,0.96351624,1.1538391,-0.17666626,0.152771
1630,A,1559991337303100,12.0924225,1.8232727,2.0447388,0.03730774,0.32759094,0.11314392
1630,A,1559991387657104,13.520081,2.7774658,0.40989685,0.23506165,0.15917969,0.36567688
1630,A,1559991438011108,13.9831085,3.2859497,4.351288,1.3471527,-0.23027039,0.5027466
1630,A,1559991488365112,9.6996765,1.1936951,4.481613,1.030716,-0.009262085,0.3204651
1630,A,1559991538719115,5.428299,-1.5544281,6.602417,0.31567383,0.5120697,0.07032776
1630,A,1559991589073119,6.7317047,-0.63520813,6.277939,0.6122589,0.18789673,-0.06607056
1630,A,1559991639427123,7.962921,1.8422241,1.9748383,0.766922,-0.02355957,-0.01574707
1630,A,1559991689781127,6.056549,0.84646606,-1.858551,-0.16531372,0.100494385,0.26385498
1630,A,1559991740135131,6.9181213,-0.53060913,0.4620819,-0.4968109,0.33087158,0.21421814
1630,A,1559991790489135,9.682938,-0.06427002,1.1273804,-0.8132019,-0.50582886,-0.08047485
1630,A,1559991840843139,10.088013,0.9872589,0.06617737,0.06272888,-0.28024292,-0.14743042
1630,A,1559991891197143,12.207916,-2.1998138,1.1405792,-0.6341553,0.15608215,-0.27877808
1630,A,1559991941551147,16.14241,-1.5488281,2.5982666,-1.0429077,-0.24354553,-0.25834656
1630,A,1559991991905151,10.30835,2.480713,5.321457,-0.6178589,-0.4547882,-0.11483765
1630,A,1559992042259155,5.5227356,5.012268,5.386734,-0.70674133,0.327713,-0.0900116
1630,A,1559992092613158,8.430847,1.6709747,2.9612122,-0.596756,0.10272217,0.028076172
1630,A,1559992142967162,8.137787,-0.44877625,1.5690155,-0.623291,0.029632568,-0.05343628
1630,A,1559992193321166,4.8203125,-0.2437439,0.42852783,0.10102844,0.3279419,-0.38526917
1630,A,1559992243675170,5.955902,0.4036255,-0.16149902,0.80677795,0.3237915,-0.54026794
1630,A,1559992294029174,9.461273,1.2875061,0.2626648,0.89367676,-0.6667938,0.1832428
1630,A,1559992344383178,10.196106,1.3534241,0.8758545,0.16140747,0.060836792,-3.8146973E-4
1630,A,1559992394737182,13.379898,3.3253021,1.0192871,0.5847931,0.18125916,0.21469116
1630,A,1559992445091186,14.879059,5.097702,7.414505,0.96188354,-0.15382385,0.29481506
1630,A,1559992495445190,9.561569,0.26094055,4.203476,0.6032257,0.19352722,0.22441101
1630,A,1559992545799194,6.0121155,-2.1000214,7.3928223,0.33547974,0.5393982,0.030151367
1630,A,1559992596153198,8.045395,-0.35990906,4.7490387,0.65431213,0.22920227,-0.13830566
1630,A,1559992646507201,7.5840454,1.5018921,0.8840332,0.42460632,0.10585022,0.07310486
1630,A,1559992696861205,5.3250732,0.8450775,-2.1228027,-0.46624756,0.18826294,0.21704102
1630,A,1559992747215209,6.8216248,0.6833191,1.6697998,-0.34246826,0.13394165,0.30426025
1630,A,1559992797569213,9.129761,0.60258484,0.4205017,-0.6529083,-0.8138733,0.0823822
1630,A,1559992847923217,9.443939,-0.51179504,0.49983215,0.33647156,-0.404068,0.28709412
1630,A,1559992898277221,12.4665985,-1.2140656,-0.19458008,-0.171875,0.09396362,-0.21151733
1630,A,1559992948631225,16.47757,0.7924347,2.4327545,-0.8550415,0.14756775,-0.27435303
1630,A,1559992998985229,9.622147,2.541092,6.147537,-0.81503296,-0.03211975,-0.2239685
1630,A,1559993049339233,4.8268433,3.169464,6.5119476,-0.56907654,0.4951172,-0.2701416
1630,A,1559993099693237,8.666122,2.5366058,2.9532623,-0.53915405,0.16419983,-0.0069274902
1630,A,1559993150047240,8.646561,-0.37608337,1.3658447,-0.5558319,-0.192276,-0.105407715
1630,A,1559993200401244,5.8796387,-0.21557617,0.43891907,-0.14006042,0.13346863,-0.48042297
1630,A,1559993250755248,5.3015137,0.7484131,0.9343109,0.089416504,0.316391,-0.47053528
1630,A,1559993301109252,8.742264,0.7212372,0.29551697,1.2217712,0.24172974,0.34028625
1630,A,1559993351463256,10.277725,2.0551453,0.8026581,-0.380188,-0.28053284,0.1388092
1630,A,1559993401817260,12.548111,3.970642,3.0137024,0.046722412,0.9390259,0.18615723
1630,A,1559993452171264,15.558273,3.2676086,2.3510132,0.51397705,-0.4723053,0.29426575
1630,A,1559993502525268,10.261276,-0.6112671,2.8200378,0.7294159,-0.83299255,0.20089722
1630,A,1559993552879272,6.1038513,-2.6987762,6.701004,0.25032043,0.2818451,0.055648804
1630,A,1559993603233276,5.467865,-1.565033,5.1292267,0.4074402,0.46650696,0.05290222
1630,A,1559993653587280,9.81218,2.1695557,3.0054321,0.5124512,0.0026245117,0.14471436
1630,A,1559993703941283,6.5528564,1.0942078,-0.3520813,-0.2049408,-0.2644043,0.32772827
1630,A,1559993754295287,5.2845917,-0.38842773,-1.3548279,-0.5130615,0.7167969,0.76091003
1630,A,1559993804649291,10.165894,0.35417175,0.8359833,-1.0681915,-0.2539673,-0.13475037
1630,A,1559993855003295,9.703003,0.32929993,2.2466278,0.22015381,-0.6370239,-0.059417725
1630,A,1559993905357299,11.305405,-2.7818146,-0.940094,-0.8511658,0.08232117,-0.24002075
1630,A,1559993955711303,16.729965,-2.1749268,4.088028,-1.0168915,-0.4121399,-0.36790466
1630,A,1559994006065307,9.743683,2.819458,6.5314484,-0.70066833,-0.6997833,-0.48425293
1630,A,1559994056419311,4.6202393,3.7835388,5.9407196,-1.3120117,0.5489044,-0.39613342
1630,A,1559994106773315,8.192505,0.10472107,3.554123,-1.1065826,0.1940918,-0.033447266
1630,A,1559994157127319,8.609848,-0.7979889,2.246048,-0.81108093,0.2273407,-0.4857788
1630,A,1559994207481323,5.3923645,0.09692383,-0.65737915,0.03161621,0.29260254,-0.58758545
1630,A,1559994257835326,5.737152,0.5709686,0.5643463,1.0700836,-0.14013672,-0.35481262
1630,A,1559994308189330,9.565842,-0.07473755,1.9255371,0.48913574,-0.8891907,0.5984497
1630,A,1559994358543334,10.891632,2.0690308,0.799942,-0.07992554,0.13031006,0.064331055
1630,A,1559994408897338,12.980057,4.5034943,5.3602905,1.386795,0.36650085,0.37535095
1630,A,1559994459251342,14.280762,4.5238953,8.46875,1.1556549,0.035446167,0.2793274
1630,A,1559994509605346,7.2597504,-2.8044586,0.95251465,0.4977417,-0.018127441,0.26727295
1630,A,1559994559959350,3.7235565,-2.6688995,8.20079,0.46064758,0.32713318,-0.06486511
1630,A,1559994610313354,9.362457,0.70851135,2.8933716,0.8750763,0.09124756,-0.05090332
1630,A,1559994660667358,7.818924,2.5326538,1.3301544,0.44841003,0.113220215,0.03404236
1630,A,1559994711021362,6.157898,-0.53749084,-0.25230408,-0.5817108,-0.12133789,0.26185608
1630,A,1559994761375365,7.4786835,-0.17327881,1.7146301,-0.1446991,0.24873352,0.17965698
1630,A,1559994811729369,10.012268,0.83551025,-0.3965454,-0.5382538,-1.0999451,-0.020309448
1630,A,1559994862083373,9.7638855,-0.7030182,0.5283661,1.0138702,0.12957764,0.12841797
1630,A,1559994912437377,13.28833,-2.4530334,1.0830994,-1.0400085,0.16775513,-0.35662842
1630,A,1559994962791381,15.770477,1.5384064,3.3815155,-0.9142761,-0.38931274,-0.13948059
1630,A,1559995013145385,6.371826,3.1912384,6.393097,-0.2313385,0.17805481,-0.2902527
1630,A,1559995063499389,5.0895233,5.200577,5.2748566,-0.859787,0.55474854,-0.049957275
1630,A,1559995113853393,10.521515,-0.038101196,1.7807007,-0.5928192,-0.5651398,0.26849365
1630,A,1559995164207397,7.2761993,-1.1543274,1.0016327,-0.317688,-0.159729,-0.09806824
1630,A,1559995214561401,3.2969055,0.5382538,-0.23129272,0.299469,0.51216125,-0.26542664
1630,A,1559995264915405,6.584015,0.77197266,0.9848175,-0.15820313,-0.003479004,-0.19017029
1630,A,1559995315269408,11.547943,1.1036835,1.9505615,0.8160095,-0.19178772,-0.017868042
1630,A,1559995365623412,10.653381,2.2789917,-0.37368774,-0.54875183,0.21188354,0.05810547
1630,A,1559995415977416,14.321335,2.429016,-0.53486633,0.5806885,0.15530396,0.43141174
1630,A,1559995466331420,13.499939,1.0786896,8.61525,0.9496002,-0.28645325,0.32366943
1630,A,1559995516685424,7.1259766,-0.10984802,4.2588654,0.6189575,-0.09980774,0.08720398
1630,A,1559995567039428,6.02565,-2.3908691,7.0419464,0.53219604,0.5515137,0.03869629
1630,A,1559995617393432,9.407288,0.45617676,3.6165466,0.9447937,0.13691711,-0.04637146
1630,A,1559995667747436,7.288666,1.8448944,0.8170929,0.17970276,-0.27825928,-0.12666321
1630,A,1559995718101440,4.99263,0.5131073,0.12704468,-1.2008667,-0.08131409,0.3588562
1630,A,1559995768455444,7.0782013,-0.12721252,0.8119812,-0.19670105,0.94566345,-0.16708374
1630,A,1559995818809448,10.34874,0.45417786,0.7735443,0.39260864,-0.6420593,0.37898254
1630,A,1559995869163451,10.576904,-0.5161438,-0.4252472,0.6491394,-0.43847656,-0.042755127
1630,A,1559995919517455,14.4526825,-2.1833649,0.53048706,-0.6318512,0.19802856,-0.24157715
1630,A,1559995969871459,15.179184,2.4429626,5.227829,-0.9695587,-0.39678955,-0.027038574
1630,A,1559996020225463,8.220123,2.8256683,6.2681427,-0.2185669,-0.17350769,-0.07710266
1630,A,1559996070579467,4.6445313,4.0418396,7.0644226,-0.5081177,0.5137634,0.030700684
1630,A,1559996120933471,9.2438965,-0.011245728,1.8179016,-1.7289124,-0.09286499,0.036514282
1630,A,1559996171287475,6.2364807,-1.2895508,0.54914856,-1.0025635,0.09501648,-0.2707672
1630,A,1559996221641479,4.555725,0.24555969,-0.93315125,0.30285645,0.08332825,-0.5080261
1630,A,1559996271995483,7.434555,0.981369,0.29907227,0.70036316,-0.7291107,-0.0927887
1630,A,1559996322349487,11.845093,0.1689148,1.505127,0.2750244,-0.78904724,0.158432
1630,A,1559996372703490,11.336975,3.155182,0.5669098,0.37864685,0.464859,0.16156006
1630,A,1559996423057494,13.451065,5.903015,4.788376,1.2632599,0.08143616,0.46362305
1630,A,1559996473411498,12.268906,0.3498993,8.587967,1.4097443,0.26634216,0.15319824
1630,A,1559996523765502,7.4246826,-2.7870636,4.5932007,0.6466217,0.36006165,0.04940796
1630,A,1559996574119506,6.9082947,-1.929657,5.894226,0.75205994,0.46202087,-0.22720337
1630,A,1559996624473510,9.730621,1.3426819,2.3818665,0.894928,0.2207489,-0.10575867
1630,A,1559996674827514,6.4953766,1.4903259,-0.15138245,0.12783813,-0.010787964,0.13742065
1630,A,1559996725181518,4.566864,-0.40538025,-0.29005432,-0.19821167,0.14909363,0.13078308
1630,A,1559996775535522,7.5272827,1.5074158,1.6703339,-0.40400696,0.15046692,0.0050964355
1630,A,1559996825889526,9.82811,0.9582367,0.19703674,-0.59091187,-0.57666016,0.11555481
1630,A,1559996876243530,11.469635,-2.1271973,1.0349121,0.008117676,-0.19927979,-0.09851074
1630,A,1559996926597533,14.630447,-1.2968445,0.40202332,-1.9442902,-0.11088562,-0.6324005
1630,A,1559996976951537,13.402527,1.0035553,3.7765503,-1.680069,-0.24485779,-0.4409027
1630,A,1559997027305541,6.3862457,2.46521,6.57106,-1.1437225,0.39668274,-0.3852539
1630,A,1559997077659545,7.993469,3.4392853,5.3671417,-1.1149597,0.36450195,-0.18789673
1630,A,1559997128013549,9.268478,-0.3207245,1.2781525,-0.5449219,0.08937073,-0.0101623535
1630,A,1559997178367553,6.3888245,-0.5596924,0.7762146,-0.20091248,0.14161682,-0.12593079
1630,A,1559997228721557,4.2300415,0.80696106,0.6338196,0.023208618,0.2225647,-0.20776367
1630,A,1559997279075561,7.500717,1.4667969,1.7544861,0.37683105,-0.17677307,-0.075668335
1630,A,1559997329429565,9.947525,2.341034,1.10495,0.58432007,-0.4838562,0.072280884
1630,A,1559997379783569,10.917313,2.394043,1.4272156,-0.3949585,-0.42347717,0.08364868
1630,A,1559997430137573,13.732346,1.5142212,1.5392761,0.82858276,0.29013062,0.4263153
1630,A,1559997480491576,13.322037,1.3044128,2.7345886,1.1207886,0.18432617,0.29942322
1630,A,1559997530845580,6.8691864,-0.31289673,4.7009583,0.46063232,0.53437805,0.06201172
1630,A,1559997581199584,6.8369446,-1.613327,6.1882477,0.41177368,0.613327,0.055847168
1630,A,1559997631553588,9.016571,0.24287415,3.5767365,0.7176056,0.46853638,-0.020248413
1630,A,1559997681907592,6.9432983,1.5955353,0.2616272,0.39782715,0.07875061,0.14456177
1630,A,1559997732261596,4.402893,0.081451416,0.19482422,0.054031372,0.19223022,0.47583008
1630,A,1559997782615600,6.50856,-0.08151245,1.6583252,-0.28378296,0.09954834,0.44340515
1630,A,1559997832969604,9.5252075,0.24627686,0.77046204,0.30575562,-0.6432953,0.3175354
1630,A,1559997883323608,10.3311,-1.0170593,0.41403198,0.6351166,-0.28971863,0.18965149
1630,A,1559997933677612,12.676666,-1.9553833,2.1549835,-0.42793274,-0.13835144,-0.34495544
1630,A,1559997984031615,13.189423,1.2322235,5.924698,-0.19488525,-0.48602295,-0.25585938
1630,A,1559998034385619,8.907257,5.150406,7.077606,-0.5145874,-0.07273865,-0.21458435
1630,A,1559998084739623,8.0190735,3.4305725,5.079178,-0.8593445,0.3666687,-0.19015503
1630,A,1559998135093627,9.3901825,0.44439697,3.1082306,-0.56378174,-0.06278992,-0.014221191
1630,A,1559998185447631,6.6780396,-0.24986267,0.56521606,-0.52337646,-0.558548,-0.11817932
1630,A,1559998235801635,3.9391022,-0.4072113,-0.20407104,-0.28297424,0.047332764,-0.39175415
1630,A,1559998286155639,5.458542,-0.33403015,1.0630493,0.63061523,0.48582458,-0.19760132
1630,A,1559998336509643,9.9183655,1.6551361,1.1575012,0.6272888,-0.33096313,0.13565063
1630,A,1559998386863647,12.257889,3.0930176,1.3851929,-0.42204285,-0.2311554,-0.02772522
1630,A,1559998437217651,13.820175,2.5905304,0.9870453,-0.0914917,0.3790741,0.10223389
1630,A,1559998487571655,13.805908,1.7320709,2.8321075,0.9750519,-0.08988953,0.26908875
1630,A,1559998537925658,9.185638,-0.1015625,5.095276,0.56980896,0.2692566,0.047561646
1630,A,1559998588279662,5.4928894,-2.1548462,5.653595,0.3374939,0.47050476,-0.08955383
1630,A,1559998638633666,7.2045593,-0.36746216,5.538269,0.794754,0.2803192,0.036453247
1630,A,1559998688987670,7.723343,2.2842102,1.3158264,0.22816467,0.02355957,0.39175415
1630,A,1559998739341674,4.9786377,1.1793518,-1.2780609,-0.24754333,0.18890381,0.45057678
1630,A,1559998789695678,6.6453705,0.42507935,0.4938202,-0.6796112,0.12045288,0.1464386
1630,A,1559998840049682,9.481216,0.24757385,1.8626556,-0.29370117,-1.2148132,0.09541321
1630,A,1559998890403686,11.004944,-1.730545,0.4322052,0.5319824,-0.35284424,0.10731506
1630,A,1559998940757690,14.220276,-1.4187775,1.7523804,-0.6384125,0.30555725,-0.3435669
1630,A,1559998991111694,15.501404,0.62023926,4.782318,-1.2381744,-0.12934875,-0.4219513
1630,A,1559999041465698,9.062775,2.3468628,7.2697144,-0.27920532,0.18255615,-0.19871521
1630,A,1559999091819701,6.4757385,4.4956055,3.8670502,-0.26501465,0.41912842,-0.049240112
1630,A,1559999142173705,8.490021,1.743927,1.029953,-0.44683838,0.12994385,0.045700073
1630,A,1559999192527709,7.148056,-0.83021545,1.6325684,-0.38505554,0.08721924,-0.079208374
1630,A,1559999242881713,4.679901,0.23068237,1.0381775,-0.24806213,0.1357727,-0.31411743
1630,A,1559999293235717,5.671097,0.7573242,0.6168518,0.8342438,0.68862915,-0.3948822
1630,A,1559999343589721,9.740768,1.3941956,0.68551636,0.42990112,-0.44436646,0.085632324
1630,A,1559999393943725,12.137726,2.1372223,1.7181549,-0.415802,-0.13136292,0.066207886
1630,A,1559999444297729,14.285324,2.5266266,1.5263824,0.18460083,0.12159729,0.37425232
1630,A,1559999494651733,13.340958,3.0180817,5.422043,0.59284973,-0.19604492,0.46310425
1630,A,1559999545005737,8.141113,-0.48214722,5.463135,0.36343384,0.25561523,0.3730774
1630,A,1559999595359740,6.099304,-2.957306,5.8573914,0.31532288,0.6428528,0.19680786
1630,A,1559999645713744,8.3979645,-0.2445221,4.321472,0.8239746,0.3353424,0.06695557
1630,A,1559999696067748,7.28743,1.9660797,1.2545624,0.5108795,-0.4295807,0.37109375
1630,A,1559999746421752,4.976532,0.9655762,-0.052490234,0.23815918,0.12709045,0.69906616
1630,A,1559999796775756,6.6521606,-0.05342102,1.6355438,-0.58366394,0.5343933,0.041122437
1630,A,1559999847129760,9.258545,1.1798096,2.341858,0.041122437,-0.7818451,-0.4080963
1630,A,1559999897483764,9.753113,-0.6549225,0.29640198,0.21284485,-0.2924652,-0.06614685
1630,A,1559999947837768,12.746262,-2.6330414,3.3879395,-0.62080383,0.2982788,-0.114471436
1630,A,1559999998191772,13.931198,-1.2533264,5.8824615,-0.6673126,-0.24191284,-0.37394714
1630,A,1560000048545776,8.4565735,2.9823608,4.7921906,-0.76690674,-0.22631836,-0.3474579
1630,A,1560000098899780,6.6308746,3.385147,2.6744537,-0.95314026,0.25064087,-0.24531555
1630,A,1560000149253783,8.588333,-0.7266998,2.109314,-0.6144104,-0.033096313,-0.13395691
1630,A,1560000199607787,8.077713,-0.64753723,1.3675995,-0.6644287,0.011459351,-0.17427063
1630,A,1560000249961791,5.8618927,0.6504059,0.70477295,-0.030807495,-0.11428833,-0.17289734
1630,A,1560000300315795,6.456894,0.44728088,1.35495,0.4699402,-0.02079773,-0.30688477
1630,A,1560000350669799,10.147461,1.1443939,0.97024536,0.39878845,-0.66381836,0.15374756
1630,A,1560000401023803,10.924576,1.2570953,2.8600311,0.046051025,0.25532532,-0.049209595
1630,A,1560000451377807,13.299484,2.2894592,1.0705872,0.2639618,0.23652649,0.36245728
1630,A,1560000501731811,14.282257,3.015503,5.536804,0.5588989,-0.09945679,0.40838623
1630,A,1560000552085815,8.934097,-0.29995728,5.280365,0.48146057,-0.27423096,0.30726624
1630,A,1560000602439819,5.2092285,-1.0244751,8.406494,0.1658783,0.5232086,0.117492676
1630,A,1560000652793823,7.9842834,0.13824463,5.00177,0.64675903,0.18243408,-0.002380371
1630,A,1560000703147826,8.814407,1.3332367,1.7556152,0.76776123,0.12850952,0.18347168
1630,A,1560000753501830,5.1974945,0.253479,-1.338501,-0.26135254,-0.1902008,0.4766388
1630,A,1560000803830122,6.7892,0.399292,1.590805,-4.5776367E-4,0.33776855,0.52882385
1630,A,1560000854184126,9.028854,0.799469,1.024704,-0.8825989,0.060516357,-0.073532104
1630,A,1560000904538130,9.633453,0.2124939,1.9452057,0.34101868,-1.20578,-0.11608887
1630,A,1560000954892134,11.980118,-3.010376,0.65449524,0.27342224,0.18029785,-0.054901123
1630,A,1560001005246138,15.336914,-0.4781494,1.0380554,-1.0991821,0.15966797,-0.44621277
1630,A,1560001055600142,12.35202,-0.020996094,5.880188,-0.94241333,-0.18569946,-0.41036987
1630,A,1560001105954146,6.1115723,3.571457,7.6830597,-0.6548157,0.28367615,-0.29563904
1630,A,1560001156308150,7.957428,2.9231415,3.1151733,-0.8710022,0.5453949,-0.15626526
1630,A,1560001206662153,8.442657,-1.5866852,1.5806274,-0.41870117,-0.33854675,0.051864624
1630,A,1560001257016157,6.321045,-0.29281616,0.37193298,-0.7007446,0.15422058,-0.20187378
1630,A,1560001307370161,4.920761,0.7574768,0.5127106,0.40829468,0.571579,-0.4298706
1630,A,1560001357724165,7.4455414,0.9627838,1.4120789,1.4469757,0.2928009,-0.057800293
1630,A,1560001408078169,10.928711,2.030899,1.7106323,0.411026,-1.3825226,0.38226318
1630,A,1560001458432173,12.070618,1.7580414,2.8048859,0.18676758,0.38619995,0.10848999
1630,A,1560001508786177,15.467819,3.8779755,2.9573822,1.0196533,0.13059998,0.30682373
1630,A,1560001559140181,11.563644,0.93663025,5.489319,0.9446411,-0.083465576,0.42219543
1630,A,1560001609494185,5.934784,-1.761673,4.3885803,0.43830872,0.26965332,0.14161682
1630,A,1560001659848189,3.6491394,-2.597931,6.760971,0.6073303,0.3927307,-0.048309326
1630,A,1560001710202193,9.006165,1.4028625,3.4841766,0.7049408,0.0020751953,-0.046722412
1630,A,1560001760556196,7.215927,0.59243774,-0.2390747,0.69117737,0.012924194,0.15951538
1630,A,1560001810910200,5.9153748,-0.6382141,0.4295807,-0.19236755,-0.022888184,0.39974976
1630,A,1560001861264204,7.9084473,0.71676636,1.5962372,0.034118652,0.01373291,0.25639343
1630,A,1560001911618208,9.787903,0.10218811,0.40722656,-0.12554932,-1.1146393,0.07800293
1630,A,1560001961972212,8.623398,-0.7096405,1.5266571,0.70487976,0.13330078,0.26004028
1630,A,1560002012326216,12.407043,-3.0596466,2.732071,-1.1475372,0.17623901,-0.4237976
1630,A,1560002062680220,16.521591,2.0847168,3.4440155,-1.0350952,-0.7969055,-0.3199768
1630,A,1560002113034224,6.292816,2.855011,6.4111786,-0.8887024,0.10461426,-0.31170654
1630,A,1560002163388228,7.3984528,3.3869476,3.6758728,-0.97024536,0.51846313,-0.28404236
1630,A,1560002213742232,10.318176,-1.9189758,2.3159332,-0.72125244,-0.32832336,-0.056930542
1630,A,1560002264096236,7.824524,-0.56877136,0.22375488,-1.0040283,0.11869812,-0.21192932
1630,A,1560002314450239,4.1382294,0.4739685,0.2263031,-0.008529663,0.017578125,-0.48825073
1630,A,1560002364804243,5.637512,0.6804962,2.4648743,-0.09327698,-0.056533813,-0.4343872
1630,A,1560002415158247,10.539032,1.6161041,0.2334137,0.99938965,-0.43017578,0.06712341
1630,A,1560002465512251,10.126953,0.0132751465,1.1829224,-0.8497467,-0.2962494,-0.010238647
1630,A,1560002515866255,13.953812,1.4490662,-1.3784637,1.1546936,-0.47608948,0.7410126
1630,A,1560002566220259,15.392624,3.671692,7.7450104,1.4203033,-0.11279297,0.326828
1630,A,1560002616574263,7.9840546,-0.32048035,2.83992,0.6170502,0.14790344,0.19372559
1630,A,1560002666928267,6.4417114,-3.2362518,8.125656,0.52775574,0.43592834,0.0043640137
1630,A,1560002717282271,8.9566345,1.396286,3.642334,0.7531128,0.14701843,-0.13500977
1630,A,1560002767636275,6.612549,2.5646362,0.1767273,0.32582092,-0.11515808,0.14009094
1630,A,1560002817990278,5.1255646,-0.66030884,-0.8128967,-0.46232605,0.05517578,0.3327942
1630,A,1560002868344282,7.9705963,-0.80488586,1.0757599,-0.80548096,0.4189911,0.6583252
1630,A,1560002918698286,9.674271,0.2398529,-0.6139374,-0.6788788,-0.5417328,0.0700531
1630,A,1560002969052290,9.3396,-0.7973175,1.435318,0.7996979,-0.88002014,0.1566925
1630,A,1560003019406294,11.704102,-2.7467346,-1.1757507,-0.38394165,0.5422516,-0.35746765
1630,A,1560003069760298,16.707657,-2.2406158,2.0242462,-1.2214813,-0.070007324,-0.44859314
1630,A,1560003120114302,10.014847,2.1547852,6.033371,-0.67936707,-0.28137207,-0.3116455
1630,A,1560003170468306,3.8222198,4.783493,7.479904,-0.43943787,0.4981842,-0.39112854
1630,A,1560003220822310,11.870819,3.040512,1.4797668,-0.85095215,0.5411377,-0.06919861
1630,A,1560003271176314,8.868103,-2.079895,1.3928223,-0.549881,-0.052093506,-0.13156128
1630,A,1560003321530318,5.146759,-1.7282867,-0.9568329,-0.11151123,0.18630981,-0.4103546
1630,A,1560003371884321,4.2930603,1.4151459,0.13789368,-0.030776978,0.002090454,-0.33070374
1630,A,1560003422238325,9.112106,1.1193695,-0.4295044,0.701828,-0.3889618,-0.175354
1630,A,1560003472592329,10.622421,2.8925781,1.7822876,0.8121948,-0.6259613,-0.13995361
1630,A,1560003522946333,10.5466,4.280899,3.3345184,-0.6907196,0.21885681,0.17552185
1630,A,1560003573300337,13.365402,3.9147491,1.2466888,1.1109924,-0.0010681152,0.447937
1630,A,1560003623654341,12.58551,1.5587769,6.042572,1.2920227,0.25164795,0.269516
1630,A,1560003674008345,6.508972,0.073287964,4.5246277,0.5498352,0.40330505,0.21591187
1630,A,1560003724362349,6.9958344,-3.2668,6.959671,0.792511,0.59910583,0.026885986
1630,A,1560003774716353,10.047302,1.1306305,2.5453339,0.91859436,0.02720642,-0.066589355
1630,A,1560003825070357,6.572357,2.5697784,-0.6273804,0.40911865,0.039916992,0.21702576
1630,A,1560003875424361,5.617569,0.076049805,0.11857605,-0.9362793,0.76571655,0.5273895
1630,A,1560003925778364,8.486145,-0.23747253,0.86994934,-0.8167572,-0.25872803,0.18478394
1630,A,1560003976132368,10.015228,0.6528015,-0.24647522,0.4803009,-1.5540924,-0.14863586
1630,A,1560004026486372,10.0091095,-1.0270538,1.005539,-0.32595825,0.5457001,-0.10748291
1630,A,1560004076840376,15.0448,-3.0707397,3.1031036,-1.0544739,0.33207703,-0.35816956
1630,A,1560004127194380,16.224731,3.1083832,7.395401,-0.54803467,0.090774536,-0.11468506
1630,A,1560004177548384,4.0875854,4.326935,4.520218,-0.2263794,0.28201294,-0.10610962
1630,A,1560004227902388,6.1212616,2.4026794,1.2059021,-0.16059875,0.506073,0.14271545
1630,A,1560004278256392,9.121445,-0.6566925,2.1873322,-0.22828674,-0.13224792,0.2431488
1630,A,1560004328610396,7.1594696,0.7115631,0.94073486,-0.17576599,0.04058838,-0.101623535
1630,A,1560004378964400,4.5671997,0.85580444,0.2099762,0.18330383,-0.06161499,-0.21795654
1630,A,1560004429318403,7.1049194,1.0371399,0.3290863,0.44779968,-0.26338196,-0.023010254
1630,A,1560004479672407,11.088211,1.683197,1.8240814,0.67570496,-0.16007996,-0.116607666
1630,A,1560004530026411,12.84761,2.4790497,1.2830505,-0.47654724,-0.041152954,0.12615967
1630,A,1560004580380415,14.956696,2.0024261,0.016967773,0.6692352,-0.548645,0.5840454
1630,A,1560004630734419,12.212997,0.33050537,6.8552856,0.9819641,-0.08685303,0.39712524
1630,A,1560004681088423,7.274521,0.41516113,6.425705,0.5316925,0.6629791,0.011291504
1630,A,1560004731442427,5.9333496,-1.7624054,7.0993805,0.4731598,0.38407898,-0.120407104
1630,A,1560004781796431,8.793747,-0.048049927,2.3087006,0.9539032,-0.1055603,-0.029434204
1630,A,1560004832150435,6.3797607,1.9245453,-0.02420044,0.28797913,-0.21606445,0.05407715
1630,A,1560004882504439,5.0912933,0.6871033,-0.42622375,-0.41706848,0.084121704,0.15716553
1630,A,1560004932858443,8.315201,-0.043319702,1.845932,-0.16734314,-0.3414154,-0.018218994
1630,A,1560004983212446,10.721191,-0.60565186,-0.50849915,-0.050308228,-1.2705078,0.019424438
1630,A,1560005033566450,11.303421,-1.576889,0.08705139,0.37190247,-0.04283142,-0.30963135
1630,A,1560005083920454,15.2573395,-1.8482666,0.5061035,-1.0485687,0.15818787,-0.41635132
1630,A,1560005134274458,13.7712555,1.2514038,3.9688263,-1.4199829,0.037384033,-0.27449036
1630,A,1560005184628462,6.716339,3.8103943,7.353836,-0.7118225,0.43746948,-0.10266113
1630,A,1560005234982466,6.1748047,5.0234833,4.494644,-0.4454193,0.37094116,-0.12934875
1630,A,1560005285336470,8.865631,0.9310608,1.2881165,-0.65786743,0.11357117,-0.0725708
1630,A,1560005335690474,6.8217163,-1.4174805,1.048584,-0.1040802,0.02520752,-0.105163574
1630,A,1560005386044478,5.1138153,0.15704346,-1.0870819,0.2373352,-0.103393555,-0.16903687
1630,A,1560005436398482,7.3965454,2.7939606,0.15394592,0.5426178,-0.087142944,-0.0068969727
1630,A,1560005486752486,9.487427,1.9036865,1.5559082,0.63098145,-0.34284973,0.13354492
1630,A,1560005537106489,10.961945,1.1326904,-0.20181274,-0.3045044,-0.18115234,0.21200562
1630,A,1560005587460493,13.690353,3.7318268,0.47869873,0.7106323,0.3310547,0.29052734
1630,A,1560005637814497,12.795288,2.8263702,6.048523,0.8093567,0.11012268,0.239151
1630,A,1560005688168501,8.868286,-0.8694153,5.1049347,0.53829956,0.3620758,0.1669159
1630,A,1560005738522505,7.1305847,-2.3528137,4.246567,0.81529236,0.64134216,0.0019073486
1630,A,1560005788876509,8.08345,1.4405823,2.2940674,0.8560486,0.20510864,0.013381958
1630,A,1560005839230513,6.2283325,2.1264343,0.44480896,0.31237793,0.045028687,0.2590027
1630,A,1560005889584517,5.0927734,0.38935852,0.5162506,-0.29118347,0.23799133,0.34742737
1630,A,1560005939938521,7.9149017,0.63619995,0.48132324,-0.5947571,-0.4004364,0.08267212
1630,A,1560005990292525,10.208679,0.21511841,0.44815063,-0.035003662,-0.5768585,-0.003921509
1630,A,1560006040646528,11.403717,-1.3200378,-0.14320374,-0.08699036,0.06524658,-0.13034058
1630,A,1560006091000532,14.721115,-1.4130402,0.80506897,-1.362915,-0.20310974,-0.49926758
1630,A,1560006141354536,12.819351,1.272995,5.5275116,-1.0792999,-0.12168884,-0.29988098
1630,A,1560006191708540,7.1880493,4.1351776,6.1827087,-0.88253784,0.39624023,-0.3383789
1630,A,1560006242062544,8.314529,2.629654,2.768753,-1.1978455,0.39279175,-0.22218323
1630,A,1560006292416548,9.123947,-0.31993103,1.2937012,-1.119812,0.23773193,-0.16564941
1630,A,1560006342770552,6.030319,-0.32151794,0.8670807,-0.20143127,0.2826233,-0.4203949
1630,A,1560006393124556,4.2832794,0.76986694,0.600708,0.22671509,-0.0018157959,-0.4512787
1630,A,1560006443478560,7.3715057,0.91116333,0.11936951,0.5920563,-0.6027832,-0.19702148
1630,A,1560006493832564,9.34613,1.3073425,1.386795,0.37634277,-0.9098358,0.123046875
1630,A,1560006544186568,11.796951,3.2051544,0.33061218,-0.18659973,-0.19593811,0.1823883
1630,A,1560006594540571,15.20871,2.9695435,2.3772888,0.8647003,0.21043396,0.25387573
1630,A,1560006644894575,12.840317,1.0244751,6.7877655,1.4042358,-0.05519104,0.4391327
1630,A,1560006695248579,7.6758423,-1.4943695,5.502655,0.5463562,0.24864197,0.2774048
1630,A,1560006745602583,5.693695,-2.1633148,5.5295105,0.35990906,0.5857086,-0.040481567
1630,A,1560006795956587,7.2254333,1.3692627,4.1708984,0.65286255,0.2796936,-0.01940918
1630,A,1560006846310591,6.3279724,2.2899628,0.0124053955,0.021347046,-0.25242615,0.30470276
1630,A,1560006896664595,5.246002,-0.18119812,-0.8698273,-0.5172272,0.8506317,0.29238892
1630,A,1560006947018599,7.7113647,-0.23692322,0.8717346,-0.90708923,1.2693024,-0.092437744
1630,A,1560006997372603,9.885757,1.4547424,0.56300354,-0.34336853,-0.53038025,-0.21974182
1630,A,1560007047726607,10.232162,-1.3699188,-1.1463318,0.14892578,-0.5236969,-0.088150024
1630,A,1560007098080611,13.377365,-2.5563202,3.077423,-0.66760254,-0.039108276,-0.23739624
1630,A,1560007148434614,13.924561,1.2754059,6.731888,-0.7644348,-0.6312103,-0.35144043
1630,A,1560007198788618,8.6796875,3.7061615,6.9178314,-0.36195374,0.055862427,-0.1313324
1630,A,1560007249142622,7.2184143,3.154419,4.215225,-0.5390625,0.380661,0.072891235
1630,A,1560007299496626,7.289459,-0.36935425,1.7369232,-0.58073425,-0.16499329,-0.046463013
1630,A,1560007349850630,5.395096,-0.7752075,1.5135956,-0.30529785,-0.11613464,-0.19946289
1630,A,1560007400204634,4.741745,1.2290802,0.685379,0.0046691895,0.21954346,-0.24227905
1630,A,1560007450558638,8.120789,0.8482666,0.5567932,1.0614929,0.48576355,0.05128479
1630,A,1560007500912642,9.760391,1.5598145,1.4581299,0.8735504,-0.8394623,0.39788818
1630,A,1560007551266646,11.239166,4.2474365,3.110489,0.3007965,-0.2851715,0.23806763
1630,A,1560007601620650,13.095383,4.543869,3.394638,1.0591583,-0.025436401,0.3120575
1630,A,1560007651974653,12.16806,2.3857117,6.261902,1.3366394,-0.5719452,0.18946838
1630,A,1560007702328657,8.492935,-1.4663544,5.438141,0.77963257,0.46905518,0.04525757
1630,A,1560007752682661,6.5030975,-2.4750977,6.738388,0.51519775,0.6902313,-0.04512024
1630,A,1560007803036665,8.637207,0.3218689,3.9337158,0.5890503,0.09738159,0.21939087
1630,A,1560007853390669,6.847534,1.5326691,-0.045837402,-0.16275024,-0.31352234,0.5381775
1630,A,1560007903744673,4.006424,1.0609283,-1.7515717,-0.5673218,0.19052124,0.48698425
1630,A,1560007954098677,6.8135376,0.78312683,0.59698486,-0.93899536,0.28024292,0.4265747
1630,A,1560008004452681,9.229019,-2.171402,0.88053894,0.1867981,-1.1788635,0.3912201
1630,A,1560008054806685,10.760132,-4.3636627,0.39353943,0.022155762,-0.09396362,-0.07835388
1630,A,1560008105160689,13.935486,-0.6839447,-0.031906128,-1.4021454,-0.019256592,-0.5924835
1630,A,1560008155514693,16.908493,2.0184174,5.6787567,-1.7817688,-0.0715332,-0.5029144
1630,A,1560008205868696,7.773758,2.6510925,9.152954,-1.121521,0.5089569,-0.6014252
1630,A,1560008256222700,6.0813293,3.3381348,4.3839264,-0.16645813,0.91470337,-0.24983215
1630,A,1560008306576704,8.555664,0.37249756,1.3083344,-0.098602295,-0.259964,-0.071746826
1630,A,1560008356930708,6.952469,-1.4876709,0.19726563,0.041015625,-0.20161438,-0.18795776
1630,A,1560008407284712,3.9801788,-0.28048706,0.53308105,0.90934753,0.09811401,-0.20671082
1630,A,1560008457638716,6.835541,1.9902649,1.1708984,0.59046936,0.107940674,-0.02670288
1630,A,1560008507992720,11.407928,3.818283,1.3032227,1.5596466,0.22523499,0.039871216
1630,A,1560008558346724,11.138031,2.5419617,2.1169434,-0.31126404,0.10122681,0.09811401
1630,A,1560008608700728,13.936813,0.9474182,-0.9518585,0.07293701,-0.27098083,0.43325806
1630,A,1560008659054732,14.12886,1.1914978,5.3757477,1.1167603,-0.26257324,0.39846802
1630,A,1560008709408736,8.360138,1.3583527,6.203018,0.7900696,-0.50753784,0.3699646
1630,A,1560008759762739,5.0565796,-1.9179077,6.927414,0.2177124,0.9098816,-0.11833191
1630,A,1560008810116743,9.046326,-0.8951874,5.5861206,0.21781921,0.17533875,-0.18579102
1630,A,1560008860470747,7.662796,2.0895844,1.3695374,0.16830444,0.41912842,0.2962494
1630,A,1560008910824751,3.9001923,0.9143524,-0.866745,-0.38232422,-0.64453125,-0.0033874512
1630,A,1560008961178755,5.6431274,0.49664307,-0.39259338,-0.5057831,0.43858337,0.18000793
1630,A,1560009011532759,9.38501,-0.77423096,0.7375183,-0.61917114,-0.56533813,-0.08244324
1630,A,1560009061886763,11.0434265,-3.2121582,1.3996735,0.94369507,-0.092681885,0.2732849
1630,A,1560009112240767,13.096893,-0.86177063,0.8302765,-0.77124023,-0.11552429,-0.3267517
1630,A,1560009162594771,15.51593,0.16317749,1.1051941,-1.5554352,-0.3616333,-0.4170227
1630,A,1560009212948775,8.759567,2.0751343,5.889969,-1.1586456,0.09185791,-0.52175903
1630,A,1560009263302778,5.6080627,4.145035,7.7642975,-0.78237915,0.5624542,-0.43804932
1630,A,1560009313656782,7.7187653,1.4761963,2.9384155,-0.6088257,0.19551086,-0.10876465
1630,A,1560009364010786,8.071259,-1.2761536,1.1750336,-0.6375885,-0.17970276,-0.1768341
1630,A,1560009414364790,4.419281,-0.09565735,0.6799927,-0.11769104,-0.021118164,-0.26792908
1630,A,1560009464718794,5.3025055,0.6729431,1.499649,-0.266922,-0.061569214,-0.5372162
1630,A,1560009515072798,8.820251,1.1285706,1.0442963,1.0377502,-0.50897217,0.024475098
1630,A,1560009565426802,9.880615,2.461792,1.7510834,0.03704834,-0.25341797,0.05117798
1630,A,1560009615780806,12.990356,2.5541534,1.352768,0.37065125,-0.08262634,0.37693787
1630,A,1560009666134810,13.7183075,1.4141388,1.5101776,1.5056305,-0.23536682,0.43963623
1630,A,1560009716488814,11.55986,2.5597687,8.47966,1.3232574,0.048858643,0.29994202
1630,A,1560009766842818,4.9047546,-1.5636292,5.9292145,0.2421875,0.4488678,-0.06074524
1630,A,1560009817196821,7.3995514,-1.9785919,4.9703827,0.7499542,0.62275696,-0.16049194
1630,A,1560009867550825,9.001114,2.3114777,1.8146973,0.5966034,0.12965393,0.007247925
1630,A,1560009917904829,4.5449677,0.6188965,-1.271698,-0.09628296,-0.023513794,0.30075073
1630,A,1560009968258833,5.081085,-0.51075745,0.37576294,-0.18544006,0.4793396,0.5024109
1630,A,1560010018612837,9.299423,0.26513672,0.8814392,-0.7140045,-0.44007874,-0.051437378
1630,A,1560010068966841,9.416931,0.062026978,1.3128357,0.461792,-1.0123444,0.22927856
1630,A,1560010119320845,11.801224,-2.106308,-0.2915039,-0.48706055,0.737854,-0.09341431
1630,A,1560010169674849,15.369415,-0.77885437,2.1703644,-1.7615967,-0.80755615,-0.60762024
1630,A,1560010220028853,12.459717,1.233429,6.210037,-1.2402954,-0.3246765,-0.52308655
1630,A,1560010270382857,4.4382935,3.8756256,9.000061,-1.3686981,0.395813,-0.33587646
1630,A,1560010320736861,8.980255,2.0348969,1.0113983,-0.9651489,0.45928955,-0.17762756
1630,A,1560010371090864,8.962585,-1.3771973,1.5105896,-0.5142212,0.095718384,-0.34397888
1630,A,1560010421444868,5.4433746,-0.55729675,0.35139465,-0.31596375,-0.086517334,-0.11376953
1630,A,1560010471798872,4.215927,-0.059539795,1.1668243,-0.00793457,0.3773651,-0.61016846
1630,A,1560010522152876,7.7093353,1.2841034,0.38067627,1.628418,0.40348816,0.04144287
1630,A,1560010572506880,9.633209,4.1744843,2.307953,-0.2786255,-0.80589294,0.22561646
1630,A,1560010622860884,13.137344,2.3930206,2.925476,1.052597,0.23727417,0.38650513
1630,A,1560010673214888,15.342438,3.1726837,2.3182983,0.9959564,-0.59898376,0.63279724
1630,A,1560010723568892,9.755035,1.0681,4.7753296,1.1299744,-0.27290344,0.3407135
1630,A,1560010773932770,7.0672607,-2.4010773,7.2514954,0.7158203,0.86779785,-0.00793457
1630,A,1560010824286774,7.1547546,-0.4257202,4.830475,0.49272156,0.5693054,-0.10348511
1630,A,1560010874640777,9.389893,1.5949249,0.951355,0.5906677,-0.01663208,-0.1149292
1630,A,1560010924994781,4.7609406,1.337204,0.48306274,0.18702698,-0.3121338,0.15783691
1630,A,1560010975348785,4.6201935,-0.09414673,-1.0456543,-0.8999634,0.6777344,0.44137573
1630,A,1560011025702789,9.1918335,-0.19877625,1.541275,-1.0814209,-0.28179932,0.19146729
1630,A,1560011076056793,10.521164,-0.6314087,0.24163818,0.5438385,-1.7562408,-0.019165039
1630,A,1560011126410797,9.9711,-2.6144257,0.17192078,0.12814331,0.96191406,0.06637573
1630,A,1560011176764801,15.678726,-2.0702362,4.0517426,-1.6929932,-0.2910614,-0.7249756
1630,A,1560011227118805,15.417343,3.06044,5.853897,-1.1483917,-0.5469971,-0.36447144
1630,A,1560011277472809,4.5175323,4.98172,6.700531,-0.48739624,0.17584229,-0.21981812
1630,A,1560011327826813,6.963211,3.2861176,1.9160309,-0.7427521,0.40454102,-0.12806702
1630,A,1560011378180817,7.9987946,-1.7111816,2.252304,-0.82925415,-0.09901428,-0.09413147
1630,A,1560011428534820,6.942322,0.04940796,0.16166687,-0.40040588,0.12107849,-0.26802063
1630,A,1560011478888824,5.071701,1.292633,-0.99931335,0.8364868,0.4584198,-0.39085388
1630,A,1560011529242828,7.8897095,1.0751038,0.338974,0.251297,-0.6569061,-0.06790161
1630,A,1560011579596832,10.51535,1.6806793,0.6543579,1.094101,-0.35202026,-0.07330322
1630,A,1560011629950836,10.108795,2.2975311,1.6479645,-0.8655243,-0.18061829,0.11186218
1630,A,1560011680304840,14.73172,3.2291412,-0.18563843,0.3732605,-0.065216064,0.30845642
1630,A,1560011730658844,14.197388,1.4114532,6.3311615,0.63708496,0.3457489,0.28268433
1630,A,1560011781012848,6.8207855,0.28372192,5.1181183,-0.0019989014,0.15463257,0.18440247
1630,A,1560011831366852,4.94606,-2.8472443,5.953598,0.5404663,0.5229187,0.05909729
1630,A,1560011881720856,10.287384,0.85253906,2.8258514,0.65660095,0.30018616,-0.14230347
1630,A,1560011932074860,7.247864,2.6606293,-1.3104095,0.2581787,-0.010894775,0.2228241
1630,A,1560011982428863,4.686615,0.5722809,1.3422699,-0.41697693,0.22073364,0.4464569
1630,A,1560012032782867,6.964386,0.40376282,1.4610596,-0.4697876,-0.4451599,0.47262573
1630,A,1560012083136871,10.079178,0.67303467,0.17962646,-0.005645752,-1.0009766,0.181427
1630,A,1560012133490875,10.5385895,-1.4781952,0.78678894,0.838974,-0.027023315,-0.009353638
1630,A,1560012183844879,14.576187,-1.8363647,2.1056213,-0.9429321,0.010635376,-0.52030945
1630,A,1560012234198883,16.498947,1.6273346,4.73703,-1.1703491,-0.02305603,-0.34114075
1630,A,1560012284552887,6.298111,3.9021454,7.4003906,-0.4968109,0.26379395,-0.20106506
1630,A,1560012334906891,5.305191,3.6760101,3.8879395,-0.45335388,0.3481903,-0.114105225
1630,A,1560012385260895,9.120697,0.5136261,1.3837128,-0.7896271,0.11009216,-0.061401367
1630,A,1560012435614899,7.062912,-1.1572113,0.8955231,-0.69685364,-0.2853546,-0.1751709
1630,A,1560012485968902,4.9972687,0.54855347,0.54237366,-0.37379456,-0.21862793,-0.16841125
1630,A,1560012536322906,7.076706,1.2374573,0.50491333,0.39259338,0.14379883,-0.4294281
1630,A,1560012586676910,9.406082,1.6252289,0.26150513,0.4487915,-0.40405273,-0.3798523
1630,A,1560012637030914,9.907471,3.267517,2.9944153,0.18659973,-0.38786316,-0.14491272
1630,A,1560012687384918,13.4062195,4.58403,4.9171906,1.1217957,0.40493774,0.25878906
1630,A,1560012737738922,14.988358,2.8633118,1.1774445,1.096817,0.16789246,0.2892151
1630,A,1560012788092926,9.320816,-0.22262573,5.5764923,0.70254517,0.12347412,0.24656677
1630,A,1560012838446930,5.5383453,-2.7065735,5.099701,0.96694946,0.5554199,0.19613647
1630,A,1560012888800934,8.14682,0.36724854,2.758316,0.70033264,0.33007813,-0.05606079
1630,A,1560012939154938,8.45079,1.5154266,-0.025772095,0.6137085,0.010467529,-0.07926941
1630,A,1560012989508942,4.829773,0.8249054,1.2988739,0.12962341,0.23269653,0.12097168
1630,A,1560013039862945,5.772827,0.7479248,1.316391,-0.37908936,0.48901367,0.2861023
1630,A,1560013090216949,9.132172,0.16322327,0.8005829,-0.22094727,-0.66804504,0.21258545
1630,A,1560013140570953,9.579437,-0.4485321,0.4677887,0.24539185,-0.3484192,0.17404175
1630,A,1560013190924957,11.077988,-1.2752686,0.17756653,-0.15592957,0.26452637,-0.08169556
1630,A,1560013241278961,15.211029,-0.60401917,1.5896759,-1.6696777,-0.73353577,-0.59280396
1630,A,1560013291632965,12.351776,2.0269775,6.162079,-1.0523376,-0.31282043,-0.2829895
1630,A,1560013341986969,5.90921,3.6615753,6.7069855,-0.6565552,0.21522522,-0.14431763
1630,A,1560013392340973,8.884506,2.854782,2.0048218,-0.871048,0.24588013,-0.13415527
1630,A,1560013442694977,8.515747,-0.47261047,1.5234985,-0.7063141,0.12440491,-0.13687134
1630,A,1560013493048981,5.80336,-0.15826416,0.8265991,-0.08087158,0.19293213,-0.21446228
1630,A,1560013543402985,5.211075,1.0129242,-0.09693909,0.4716797,0.14082336,-0.26148987
1630,A,1560013593756988,8.107254,1.6660004,0.0597229,0.7256317,-0.3925171,-0.082733154
1630,A,1560013644110992,9.390579,2.400467,0.52430725,0.24198914,-0.29501343,0.056640625
1630,A,1560013694464996,10.544052,2.2197113,1.1378937,-0.3297882,-0.032089233,0.110702515
1630,A,1560013744819000,14.616318,2.0460968,1.2353363,0.36950684,0.1878357,0.35131836
1630,A,1560013795173004,13.697327,1.803421,3.9222107,0.54278564,0.38128662,0.33638
1630,A,1560013845527008,6.7254486,-0.9740753,6.320648,0.21586609,0.33766174,0.2290039
1630,A,1560013895881012,6.1801453,-1.1352081,6.0111847,0.31825256,0.48025513,0.04574585
1630,A,1560013946235016,9.063278,1.2029266,2.396881,0.71765137,0.28884888,0.015716553
1630,A,1560013996589020,6.79924,2.0938873,-0.14620972,0.19248962,-0.1599884,0.3349762
1630,A,1560014046943024,5.0879517,0.710907,0.0821991,-0.053390503,0.17840576,0.54660034
1630,A,1560014097297027,6.942749,0.34197998,1.353363,-0.4283905,-0.00944519,0.26316833
1630,A,1560014147651031,9.340378,0.9097748,1.0010986,-0.08470154,-0.9313965,0.34336853
1630,A,1560014198005035,10.972855,-1.4219055,1.0158234,0.72843933,-0.29800415,0.2256012
1630,A,1560014248359039,14.092178,-2.2344666,0.9707489,-0.68273926,0.26185608,-0.41770935
1630,A,1560014298713043,14.294235,0.8272095,4.2158813,-1.4237518,0.41993713,-0.44499207
1630,A,1560014349067047,8.755478,3.3430634,8.83606,-0.47424316,0.4838562,-0.22132874
1630,A,1560014399421051,6.6462555,5.036682,5.870407,-0.27827454,0.33006287,0.008804321
1630,A,1560014449775055,7.959839,1.3194733,0.5717163,-0.73342896,0.216568,0.048339844
1630,A,1560014500129059,6.2586517,-1.6757355,-0.1348877,-0.9628906,0.19612122,-0.19953918
1630,A,1560014550483063,4.0959625,-0.16990662,0.2875061,-0.4169464,0.43530273,-0.41337585
1630,A,1560014600837067,6.3646545,0.38539124,0.4970703,0.6534729,0.23957825,-0.25978088
1630,A,1560014651191070,10.622284,1.6313629,0.24549866,0.8948059,-0.63716125,0.17689514
1630,A,1560014701545074,11.966614,2.3334808,2.1612854,0.3698578,-0.18544006,0.15203857
1630,A,1560014751899078,13.617477,4.180725,3.3149567,0.65423584,0.25630188,0.3080902
1630,A,1560014802253082,13.416733,3.687729,6.047882,1.0644989,-0.12281799,0.41300964
1630,A,1560014852607086,8.635544,-0.20379639,6.1499634,0.6933594,-0.19743347,0.2957611
1630,A,1560014902961090,5.7022247,-2.7685547,6.0010376,0.5323181,0.2361145,0.1694336
1630,A,1560014953315094,7.9564514,-0.92878723,5.259308,0.7709503,0.19432068,-0.0016479492
1630,A,1560015003669098,7.893631,1.62146,1.4457397,0.707428,-0.18449402,0.076553345
1630,A,1560015054023102,5.1469116,0.85801697,0.03794861,-0.03111267,-0.13894653,0.48049927
1630,A,1560015104377106,6.5598145,-0.08227539,0.42436218,-0.38534546,0.13664246,0.42303467
1630,A,1560015154731110,9.188721,0.10820007,1.1657562,-0.21009827,-0.71733093,-0.064575195
1630,A,1560015205085113,9.36467,-1.1986694,0.13995361,0.29029846,-0.38955688,0.091934204
1630,A,1560015255439117,12.26741,-3.6727448,1.2893219,-0.73013306,-0.401062,-0.318573
1630,A,1560015305793121,15.656586,-0.5509491,3.1606293,-1.1035767,-1.020401,-0.6720123
1630,A,1560015356147125,9.847214,4.03804,6.29245,-1.2136383,-0.43800354,-0.39761353
1630,A,1560015406501129,7.343811,2.805252,4.718979,-1.5730591,0.19433594,-0.39956665
1630,A,1560015456855133,9.687363,0.037582397,2.2899017,-1.445755,0.19403076,-0.37438965
1630,A,1560015507209137,8.06427,-0.025772095,0.7400818,-0.9976959,-0.02166748,-0.2373352
1630,A,1560015557563141,5.2227325,-0.26254272,-0.17712402,0.19934082,0.20256042,-0.28379822
1630,A,1560015607917145,4.71756,-0.44474792,0.3764038,1.0865021,0.053359985,-0.23049927
1630,A,1560015658271149,8.604736,2.0874481,-0.32337952,0.84269714,-0.23518372,0.05947876
1630,A,1560015708625152,9.89386,3.102829,1.7536621,0.059936523,0.007904053,-0.016555786
1630,A,1560015758979156,13.346436,3.7023163,0.24629211,0.599411,0.09309387,0.18074036
1630,A,1560015809333160,14.452454,3.8332977,4.140503,0.6626587,-0.035995483,0.19645691
1630,A,1560015859687164,10.754669,-0.7064667,3.493454,0.61701965,-0.028213501,0.16749573
1630,A,1560015910041168,7.3088226,-2.3624725,6.202118,0.5103302,0.7017822,0.054885864
1630,A,1560015960395172,8.358398,0.8031311,3.6265259,0.85087585,0.5829315,-0.001159668
1630,A,1560016010749176,6.9278564,2.3405151,0.92778015,0.89845276,-0.016174316,0.16850281
1630,A,1560016061103180,5.088669,1.5261383,0.14497375,0.13954163,-4.272461E-4,0.48265076
1630,A,1560016111457184,6.8036346,-0.14691162,-0.2934265,0.17993164,0.3183899,0.57229614
1630,A,1560016161811188,9.031418,-0.17720032,0.41090393,0.24172974,-0.93800354,0.31021118
1630,A,1560016212165192,9.994278,-0.03111267,-0.10360718,0.54039,-0.35124207,0.06074524
1630,A,1560016262519195,12.759796,-0.9866333,0.2523346,-0.6146393,0.10084534,-0.37329102
1630,A,1560016312873199,15.516388,0.18539429,2.6326294,-0.9786682,-0.26686096,-0.3249817
1630,A,1560016363227203,8.835556,2.9480286,6.433777,-0.8126373,-0.11213684,-0.08735657
1630,A,1560016413581207,6.4391174,4.292816,4.725662,-0.7413635,0.42915344,-0.18247986
1630,A,1560016463935211,8.234558,1.1408691,1.8062286,-1.1777496,0.27752686,-0.14982605
1630,A,1560016514289215,7.804184,-0.36610413,0.42129517,-0.9312744,-0.06840515,-0.21360779
1630,A,1560016564643219,5.2970123,-0.08135986,-0.24153137,0.33052063,0.3671112,-0.19935608
1630,A,1560016614997223,6.0007935,0.5842285,-0.23794556,0.75849915,-0.44302368,-0.0025939941
1630,A,1560016665351227,9.92775,0.70443726,-0.076675415,0.31629944,-0.9522705,-0.065719604
1630,A,1560016715705231,9.454819,2.3362732,2.312149,-0.1053009,-0.18540955,0.020690918
1630,A,1560016766059235,13.321854,3.8284912,-0.4091339,0.5717468,0.30578613,0.4701233
1630,A,1560016816413238,15.972092,2.634262,6.276947,0.51631165,0.03781128,0.24372864
1630,A,1560016866767242,8.653839,-0.85609436,4.571045,0.5936737,0.3772583,0.27355957
1630,A,1560016917121246,6.5742035,-2.0311432,6.062317,0.52388,0.9443817,0.26745605
1630,A,1560016967475250,9.723724,1.3615875,1.7543335,0.9454498,0.57432556,0.16880798
1630,A,1560017017829254,6.3973236,1.8438873,1.2821045,0.79725647,0.2836609,0.20581055
1630,A,1560017068183258,3.0882874,0.8727875,0.5662842,-0.40124512,0.17222595,0.58503723
1630,A,1560017118537262,6.492569,-0.097473145,0.80207825,-0.74620056,0.5621033,0.42066956
1630,A,1560017168891266,9.005676,-0.40489197,1.1777649,-0.447937,-1.1924133,-0.37687683
1630,A,1560017219245270,10.946869,-1.0328217,0.19296265,0.83683777,0.04118347,0.07171631
1630,A,1560017269599274,14.715698,-4.5427856,2.614624,-0.84654236,0.01966858,-0.44830322
1630,A,1560017319953277,18.02301,-1.0743713,4.0799103,-1.2829285,-0.33558655,-0.45829773
1630,A,1560017370307281,8.771881,3.994522,7.0013275,-0.7671051,-0.5938873,-0.30485535
1630,A,1560017420661285,5.604828,5.4718018,5.967697,-0.6593933,0.49290466,-0.13873291
1630,A,1560017471015289,7.2993317,-0.03352356,2.4959412,-0.6584778,-0.1725769,-0.30760193
1630,A,1560017521369293,6.7778625,-1.7043457,1.4483643,-0.8307648,0.10470581,-0.28694153
1630,A,1560017571723297,3.7108002,-0.34057617,0.17906189,0.3681488,0.39422607,-0.33174133
1630,A,1560017622077301,6.6820526,0.7981262,-0.5952301,0.9842682,0.074798584,-0.34414673
1630,A,1560017672431305,11.647812,2.476822,1.1967926,0.23556519,-0.3192749,-0.16416931
1630,A,1560017722785309,10.048233,1.2549286,2.199051,0.6087494,0.56996155,0.13052368
1630,A,1560017773139313,14.699219,3.9065704,1.4163971,0.5589447,0.48976135,0.29008484
1630,A,1560017823493317,13.458603,1.9472961,5.244995,0.641922,-0.001159668,0.3835907
1630,A,1560017873847320,6.395523,-1.2760468,5.6952057,0.37826538,0.12275696,0.3623352
1630,A,1560017924201324,6.2685394,-1.3083801,6.109192,0.76123047,0.25231934,0.27919006
1630,A,1560017974555328,10.562607,1.7075348,2.6797638,0.90159607,-0.250412,-0.084487915
1630,A,1560018024909332,5.3947906,0.38450623,0.89546204,0.36572266,0.03215027,-0.05545044
1630,A,1560018075263336,3.9693604,0.91308594,0.46632385,-0.30847168,0.1912384,0.17164612
1630,A,1560018125617340,7.2022552,0.9510498,0.9925232,-0.24871826,-0.36161804,0.2859497
1630,A,1560018175971344,9.881378,-0.31832886,1.8732147,-0.8092804,-0.7064972,-0.16706848
1630,A,1560018226325348,9.451111,-0.7490387,2.3035278,-0.09260559,-0.3166046,-0.25498962
1630,A,1560018276679352,14.99118,-0.8392029,1.8393097,0.21173096,0.15975952,-0.11073303
1630,A,1560018327033356,15.808289,2.163208,2.9346466,-0.2976532,0.24812317,0.083221436
1630,A,1560018377387360,8.079666,1.9533081,5.2622833,-0.64019775,-0.082473755,-0.39382935
1630,A,1560018427741363,4.6132355,3.2279816,7.5322266,-0.49043274,0.46896362,-0.26371765
1630,A,1560018478095367,7.0751343,4.390045,5.1726227,-0.2718811,0.18074036,0.09403992
1630,A,1560018528449371,10.880264,-1.2150116,-1.1913452,-0.8581085,0.23597717,-0.33447266
1630,A,1560018578803375,4.071869,0.3759613,0.66400146,0.023742676,-0.18591309,-0.13397217
1630,A,1560018629157379,3.6326752,0.44056702,1.5633545,0.021072388,0.13446045,-0.29232788
1630,A,1560018679511383,9.828003,1.9446564,-0.4807129,0.30895996,-0.28149414,0.011489868
1630,A,1560018729865387,9.792587,1.5549316,4.2022552,-0.38653564,-0.41905212,0.035369873
1630,A,1560018780219391,15.515823,2.5843506,0.014389038,0.19236755,0.47514343,0.25349426
1630,A,1560018830573395,15.039169,3.101471,7.653183,0.24357605,-0.3881836,0.44674683
1630,A,1560018880927399,7.9123077,0.31394958,6.5234985,0.66578674,0.18544006,0.20063782
1630,A,1560018931281402,5.5825653,-0.68618774,4.9541016,0.40950012,0.45388794,0.27871704
1630,A,1560018981635406,7.6191864,2.2389526,3.1377258,0.55718994,0.018737793,0.05848694
1630,A,1560019031989410,5.75972,0.93266296,2.9027863,-0.08908081,-0.19703674,0.23291016
1630,A,1560019082343414,2.922638,1.4463348,-0.0848999,-0.66090393,-0.19604492,0.81622314
1630,A,1560019132697418,7.341812,-0.13569641,1.0231018,-0.5886841,0.43336487,-0.0095825195
1630,A,1560019183051422,10.138901,-0.07662964,1.5941315,-0.7322998,0.24542236,-0.22529602
1630,A,1560019233405426,9.838074,0.08721924,2.363449,0.063964844,0.53697205,-0.43208313
1630,A,1560019283759430,13.958221,-0.5272522,2.4682922,0.02218628,1.1840973,-0.1415863
1630,A,1560019334113434,14.184174,1.8667145,2.5905762,0.15753174,1.0175476,-0.06515503
1630,A,1560019384467438,10.202789,0.30249023,8.976746,0.119644165,0.04837036,-0.73339844
1630,A,1560019434821442,6.2703247,3.5583954,7.034149,-0.77211,1.4552307,-0.9139252
1630,A,1560019485175445,7.293915,2.9843597,7.4595184,-0.33569336,0.54885864,-0.54156494
1630,A,1560019535529449,10.018494,-0.8280487,3.1278229,-0.46646118,0.24250793,-0.6926727
1630,A,1560019585883453,5.467697,1.4327393,-1.9278564,0.16221619,-0.19665527,-0.28259277
1630,A,1560019636237457,2.9697418,1.4082031,1.2952118,0.34054565,0.49621582,-0.63557434
1630,A,1560019686591461,10.738617,3.501999,3.738205,0.3531494,-0.6388397,-0.08920288
1630,A,1560019736945465,7.9812317,2.8868103,6.333313,1.1087952,-0.9927368,0.45039368
1630,A,1560019787299469,10.614105,1.1351318,5.074936,0.4840393,-1.6907654,0.5305481
1630,A,1560019837653473,6.851944,5.342697,7.0943756,-0.7270355,-1.3204956,0.734787
1630,A,1560019888007477,3.2358093,0.34887695,6.621277,-0.5661316,-1.8610992,0.02923584
1630,A,1560019938361481,7.2905426,-0.31011963,9.367722,0.60598755,-0.75923157,-0.13800049
1630,A,1560019988715485,9.443359,0.6094055,7.5897675,0.96243286,2.1788483,0.22547913
1630,A,1560020039069488,7.375763,-0.32876587,2.931137,0.43859863,1.5382385,-0.020568848
1630,A,1560020089423492,5.248871,1.8960876,-0.034698486,-1.0150757,0.31811523,-0.58265686
1630,A,1560020139777496,6.2015076,2.4384155,1.1350403,-1.0874939,0.5069275,-1.2140198
1630,A,1560020190131500,11.337494,1.7337341,-0.35414124,1.9363556,2.5811462,1.0717773
1630,A,1560020240485504,12.58345,-0.5567932,1.0552216,0.45117188,0.19302368,0.80119324
1630,A,1560020290839508,11.508652,-1.431839,3.4037628,-0.6547241,-0.6365051,-0.27519226
1630,A,1560020341193512,14.122467,5.3611298,8.561462,-0.4246521,1.7858124,-0.3941803
1630,A,1560020391547516,6.705002,2.5701904,10.345001,-0.20762634,0.7159729,-0.46853638
1630,A,1560020441901520,4.545471,5.3930206,4.388565,-0.6855469,-0.33059692,0.38708496
1630,A,1560020492255524,1.6698914,3.415451,4.5597534,-0.871048,1.2804718,-0.03111267
1630,A,1560020542609527,4.327347,-0.60572815,6.3163605,-0.70884705,-0.7271271,-0.71009827
1630,A,1560020592963531,2.1830902,1.5149536,-2.099533,0.17878723,-2.0619965,0.3790741
1630,A,1560020643317535,1.7645416,2.0296936,1.6854095,0.71369934,0.4519348,0.25668335
1630,A,1560020693671539,4.331497,1.3789368,5.447983,1.2914581,-0.12426758,-0.21476746
1630,A,1560020744025543,11.374313,4.1995544,6.9466248,0.95095825,-3.973938,1.0662537
1630,A,1560020794374647,16.991577,4.676544,4.7106934,0.3722992,-0.54592896,0.56144714
1630,A,1560020844728651,10.823074,2.4563599,8.258057,0.11201477,1.2313232,0.5987396
1630,A,1560020895082655,3.219696,1.2659912,7.192169,-0.044540405,-0.35049438,0.48739624
1630,A,1560020945436659,5.5953674,-0.4969635,0.40119934,-0.036193848,-0.20629883,0.27174377
1630,A,1560020995790663,7.4027405,0.7843323,1.9569397,0.35113525,0.28681946,0.25083923
1630,A,1560021046144667,6.3897705,1.0459595,0.86805725,0.14526367,-0.4342804,0.5981598
1630,A,1560021096498670,6.725128,1.0637817,3.7888184,0.059631348,-0.49980164,0.7897644
1630,A,1560021146852674,8.738068,0.96643066,1.1900024,0.3125,0.22006226,0.43954468
1630,A,1560021197206678,9.034683,0.43624878,1.3991241,0.17599487,0.20523071,0.2137909
1630,A,1560021247560682,11.637985,-0.3869629,3.959549,0.40516663,-0.16897583,-0.0062561035
1630,A,1560021297914686,15.148071,0.4551239,3.7832642,0.19548035,-0.46202087,-0.3554077
1630,A,1560021348268690,10.195221,1.4624481,7.0724335,0.058776855,0.024551392,-0.5693817
1630,A,1560021398622694,7.1604156,0.35827637,6.30513,-0.06021118,0.22349548,-0.23509216
1630,A,1560021448976698,10.054031,1.391571,2.2510223,-0.34495544,-0.19699097,-0.12861633
1630,A,1560021499330702,6.929764,0.19407654,1.2958679,-0.6127472,-0.2971344,-0.29092407
1630,A,1560021549684706,4.4328613,0.8899536,1.0832825,-0.35395813,0.18540955,-0.51135254
1630,A,1560021600038710,6.8426056,-0.55882263,0.94799805,-0.24536133,0.20144653,-0.6975708
1630,A,1560021650392713,9.282211,0.7533264,1.0931091,-0.15086365,0.27890015,-0.51438904
1630,A,1560021700746717,8.068771,1.2066193,1.9356842,-0.17671204,-0.09753418,-0.252594
1630,A,1560021751100721,11.284897,1.1911469,1.609375,-0.4277954,0.07115173,0.05529785
1630,A,1560021801454725,14.882874,2.1362152,2.269287,0.4105072,-0.5353546,0.9354553
1630,A,1560021851808729,11.116943,1.8644409,5.860016,0.842865,-0.6561127,1.0466766
1630,A,1560021902162733,6.928116,0.76297,4.6347656,0.29322815,0.46517944,0.32710266
1630,A,1560021952516737,8.160339,0.8947449,4.292984,0.14961243,0.0569458,0.189682
1630,A,1560022002870741,6.5609436,1.4141998,2.7204132,-0.11357117,-0.55908203,0.24061584
1630,A,1560022053224745,3.2889557,1.3576202,-0.38116455,-0.2030487,0.15092468,0.4857025
1630,A,1560022103578749,5.0037537,0.431427,1.0948029,-0.32373047,0.9437256,0.65708923
1630,A,1560022153932752,8.162415,-0.1568451,0.5155029,-0.52182007,0.28204346,0.28085327
1630,A,1560022204286756,8.150711,-1.1357269,0.72184753,-0.20344543,-0.8009186,-0.19018555
1630,A,1560022254640760,10.531982,-2.7869568,1.4475098,0.24642944,0.158844,-0.13420105
1630,A,1560022304994764,15.059372,-2.6695251,2.6703186,-0.27346802,0.31922913,-0.34257507
1630,A,1560022355348768,13.901596,0.066101074,4.716049,-0.94203186,-0.96824646,-0.5308075
1630,A,1560022405702772,8.121521,2.4131622,5.4426117,-1.2667236,-0.6876526,-0.40153503
1630,A,1560022456056776,7.2231293,1.9664917,4.478546,-1.060257,0.55513,-0.22348022
1630,A,1560022506410780,9.527435,0.56414795,3.176178,-0.8663025,0.74913025,-0.12007141
1630,A,1560022556764784,6.9120483,-0.7719116,0.39256287,-0.3466797,0.07385254,-0.39933777
1630,A,1560022607118788,3.6116638,-1.0373383,-0.12658691,0.041000366,0.17907715,-0.58032227
1630,A,1560022657472792,5.57428,0.69099426,0.61668396,0.88157654,0.4299469,-0.23565674
1630,A,1560022707826795,10.183105,1.6725616,0.45617676,0.44500732,-0.5450592,0.10652161
1630,A,1560022758180799,13.265549,3.6061249,2.2314453,-0.27215576,0.25675964,0.022323608
1630,A,1560022808534803,15.458694,3.9527435,3.6509094,0.48970032,0.3377533,0.31504822
1630,A,1560022858888807,11.846054,0.64024353,3.4352417,0.8132019,-0.53182983,0.41914368
1630,A,1560022909242811,7.6632996,-1.7153931,5.338623,0.52264404,-1.0407257,0.42723083
1630,A,1560022959596815,5.677643,-2.1891937,8.198715,0.9967499,0.6890259,0.30474854
1630,A,1560023009950819,7.2714233,-0.4302826,5.3739014,1.202774,1.1724396,0.138031
1630,A,1560023060304823,7.03566,1.591507,-0.7416382,0.5794983,-0.052368164,0.4099121
1630,A,1560023110658827,4.9514313,0.7256012,-0.26785278,0.17510986,-0.31889343,0.71328735
1630,A,1560023161012831,7.3367004,-0.037597656,0.774353,-0.57173157,-0.05343628,0.2796936
1630,A,1560023211366835,9.706055,-0.11091614,1.9346466,-0.6965637,-0.46868896,-0.4039917
1630,A,1560023261720838,9.927994,-2.2507172,-0.2713318,0.057113647,-0.06681824,-0.24420166
1630,A,1560023312074842,11.918243,-5.40152,1.7145386,-0.3500061,-0.38258362,-0.26600647
1630,A,1560023362428846,13.132309,-1.9432068,4.67601,-1.0761566,-0.8092041,-0.48635864
1630,A,1560023412782850,8.712494,1.7149353,5.9671326,-1.0816803,-0.3403015,-0.377594
1630,A,1560023463136854,6.367584,3.3773193,5.6974945,-0.7838745,0.5027008,-0.21292114
1630,A,1560023513490858,8.755127,1.5671082,2.6050568,-0.73527527,0.03617859,-0.09928894
1630,A,1560023563844862,7.5245667,-0.56855774,0.48228455,-0.78770447,0.17951965,-0.29460144
1630,A,1560023614198866,3.548645,-0.41055298,1.0437927,0.09434509,0.8093567,-0.7012329
1630,A,1560023664552870,5.943512,0.2319336,1.1754456,0.84329224,0.8896179,-0.5695648
1630,A,1560023714906874,10.755981,0.9937744,-0.5311432,0.19973755,-0.75112915,0.15647888
1630,A,1560023765260877,10.889175,1.3570862,1.4222565,-0.13069153,-0.092453,-0.009689331
1630,A,1560023815614881,14.141968,3.8074036,3.1954498,0.6466675,0.26023865,0.2297821
1630,A,1560023865968885,12.756134,1.6352692,7.6067505,0.7189331,-0.3189392,0.39964294
1630,A,1560023916322889,7.3464355,-1.5117035,4.888611,0.28208923,-0.73620605,0.34977722
1630,A,1560023966676893,4.6368103,-1.7278442,6.6332397,0.6401825,0.20895386,0.23434448
1630,A,1560024017030897,7.9153748,0.92230225,4.2836304,0.91700745,0.009963989,0.07029724
1630,A,1560024067384901,7.8359985,0.9500122,-0.042770386,1.062027,0.12641907,0.07814026
1630,A,1560024117738905,6.5799103,-0.40289307,0.88716125,-0.42765808,-0.1912384,0.4995575
1630,A,1560024168092909,7.770935,0.60284424,0.22998047,-0.38731384,0.5734253,0.48983765
1630,A,1560024218446913,9.250122,0.85969543,0.47956848,-0.10696411,-0.42852783,-0.12083435
1630,A,1560024268800917,9.542572,-0.52394104,0.5565338,0.5263214,0.21696472,0.1723938
1630,A,1560024319154920,12.9711,-4.84079,0.8794861,-0.39248657,0.028549194,-0.1348877
1630,A,1560024369508924,16.801208,1.0981903,1.4732819,-0.63513184,-0.6607971,-0.36689758
1630,A,1560024419862928,8.6800995,3.9234161,5.5129547,-0.85279846,-0.7220001,-0.28198242
1630,A,1560024470216932,5.942856,3.8144379,6.464096,-1.0596313,0.9292908,-0.2795105
1630,A,1560024520570936,8.299652,-0.24345398,2.9276276,-0.81936646,-0.05795288,0.06352234
1630,A,1560024570924940,8.056305,-1.0523376,1.1286316,-0.9794922,-0.10046387,-0.29507446
1630,A,1560024621278944,4.309326,-0.63775635,-0.21203613,-0.1580658,-0.20574951,-0.47209167
1630,A,1560024671632948,6.2184753,0.36509705,0.80407715,-0.37644958,0.72862244,-0.5149689
1630,A,1560024721986952,11.49411,1.4736633,0.26412964,1.0752106,0.3124237,0.15370178
1630,A,1560024772340956,10.202698,1.7362823,2.0929565,-0.87597656,0.009597778,0.15579224
1630,A,1560024822694960,12.330978,1.7388611,-2.6394196,0.5546417,0.2520752,0.29129028
1630,A,1560024873048963,13.837997,1.3270416,5.932144,0.33709717,-0.7827301,0.35438538
1630,A,1560024923402967,8.626968,0.3027954,3.81398,0.023620605,-1.630722,-0.020980835
1630,A,1560024973756971,5.285721,-2.2469788,6.548523,0.7956543,0.8447571,-0.059417725
1630,A,1560025024110975,8.194122,0.10662842,4.102661,1.0007935,0.35472107,0.08456421
1630,A,1560025074464979,10.0434265,0.17315674,-0.01751709,0.9375458,0.16607666,0.13386536
1630,A,1560025124818983,6.07489,1.0971222,0.57995605,-0.0987854,-0.14845276,0.46533203
1630,A,1560025175172987,5.666458,2.3535767,0.051330566,-0.29562378,1.1522827,0.49972534
1630,A,1560025225526991,9.928436,0.26016235,-0.052856445,-0.3191986,-0.71217346,-0.24827576
1630,A,1560025275880995,10.002884,-1.7836456,1.364914,0.7970581,-0.37149048,0.24073792
1630,A,1560025326234999,12.811707,-2.3170319,-2.043167,-0.5314331,0.27731323,-0.11357117
1630,A,1560025376589002,18.530151,-1.2151184,3.7106323,-1.1084442,-0.6830139,-0.2685089
1630,A,1560025426943006,9.680038,3.4500275,6.0542145,-0.57547,-1.2111816,-0.158844
1630,A,1560025477297010,3.1456757,5.278534,7.566498,-0.5524292,0.6983032,-0.043182373
1630,A,1560025527651014,7.555023,1.3509369,1.7742004,-0.7153473,0.3320923,0.022323608
1630,A,1560025578005018,8.525589,-0.89134216,2.4925842,-0.2894745,-0.40118408,-0.3313446
1630,A,1560025628359022,5.054413,-0.5315399,-2.1537933,-0.030761719,0.0012664795,-0.2554016
1630,A,1560025678713026,5.8054047,0.59921265,-0.20903015,0.50297546,0.6649475,-0.48791504
1630,A,1560025729067030,9.790024,0.9938965,-0.049362183,0.9954071,0.045440674,-0.15231323
1630,A,1560025779421034,9.282593,4.879181,1.7781677,-0.5684967,-0.3597412,0.04020691
1630,A,1560025829775038,13.729782,1.144043,-0.1915741,0.72084045,0.3725586,0.23622131
1630,A,1560025880129042,15.483597,3.7844238,1.4969482,1.3832855,-0.086242676,0.6217041
1630,A,1560025930483045,11.465485,1.3447571,5.848572,0.7779999,-0.4861908,0.12683105
1630,A,1560025980837049,6.1696167,-3.2659302,5.643265,0.30110168,0.707901,0.30648804
1630,A,1560026031191053,6.3734283,-0.75453186,5.1517334,1.0106812,1.1592407,0.24449158
1630,A,1560026081545057,9.750122,1.5534363,1.110321,1.0595093,0.110946655,0.14593506
1630,A,1560026131899061,4.84317,1.6204681,-1.627655,-0.80067444,-0.50894165,0.6027069
1630,A,1560026182253065,4.912689,-0.023391724,0.36166382,-0.57006836,0.79455566,-0.2076416
1630,A,1560026232607069,8.649979,-0.21768188,0.81036377,-1.214325,0.090423584,-0.5461731
1630,A,1560026282961073,10.951218,-0.7928467,-0.3620758,-0.9536133,-0.9568634,-0.055892944
1630,A,1560026333315077,10.8593445,-6.3611298,-2.3791962,0.8686676,0.7580414,0.0814209
1630,A,1560026383669081,14.301971,-0.5642853,5.5469055,-1.0251312,-0.5292816,-0.4577484
1630,A,1560026434023085,12.724487,0.9967041,3.1645813,-1.3356476,-0.8866577,-0.3347168
1630,A,1560026484377088,6.428711,1.7009888,7.463455,-0.73880005,0.0947113,-0.22288513
1630,A,1560026534731092,7.4641113,3.6475525,4.6333466,-0.37330627,1.147522,-0.11634827
1630,A,1560026585085096,7.695587,-0.9424286,0.86016846,-0.7819824,-0.45248413,-0.091171265
1630,A,1560026635439100,4.910675,-1.3607025,-0.03883362,-0.7292328,0.15559387,-0.26361084
1630,A,1560026685793104,3.9143066,0.6102905,1.0327911,0.2590332,0.099731445,-0.6153717
1630,A,1560026736147108,8.51091,1.3606262,-0.92144775,1.3152313,0.9897766,-0.3444519
1630,A,1560026786501112,12.030289,2.73555,2.3809357,-0.20429993,-1.0428009,0.26245117
1630,A,1560026836855116,13.655319,1.1937408,1.5158844,0.4845276,0.2564392,0.088256836
1630,A,1560026887209120,14.987915,4.527771,2.4996338,1.2765808,-0.8407135,0.56837463
1630,A,1560026937563124,7.9766846,0.5432739,6.985138,1.1545715,-0.3964386,0.26083374
1630,A,1560026987917127,6.7379913,-3.7385101,5.422806,0.9026184,0.17028809,0.19433594
1630,A,1560027038271131,7.29335,-1.5589142,6.903961,0.5052185,0.9680481,-0.031570435
1630,A,1560027088625135,8.610031,1.0144653,1.1290436,1.2416229,0.21487427,0.12586975
1630,A,1560027138979139,4.8559113,1.5830383,0.25309753,0.16886902,-0.43623352,0.55641174
1630,A,1560027189333143,4.2117004,0.49423218,-1.272049,-0.7620239,0.6993866,0.585495
1630,A,1560027239687147,8.525711,-0.03817749,0.78956604,-0.7900696,0.49102783,-0.12503052
1630,A,1560027290041151,10.550644,-0.4471588,2.0673523,-0.62364197,-0.9802246,0.10270691
1630,A,1560027340395155,12.055344,-4.4479523,-2.3872223,-0.8697357,0.61047363,-0.06903076
1630,A,1560027390749159,15.633835,-3.5561066,3.6441956,-1.2713623,-0.83470154,-0.72706604
1630,A,1560027441103163,11.238861,4.736847,5.0031586,-0.6311798,-1.2519989,-0.37001038
1630,A,1560027491457167,6.5726166,3.7834473,7.854294,-1.0136871,0.35173035,-0.026153564
1630,A,1560027541811170,9.194183,0.5287018,3.6107178,-0.9231262,1.2176056,-0.15322876
1630,A,1560027592165174,7.733719,-0.039749146,2.7206879,-0.6398163,-0.035629272,-0.22993469
1630,A,1560027642519178,4.257599,1.1732025,-0.06591797,-0.35577393,0.03567505,-0.53012085
1630,A,1560027692873182,3.754547,-0.46411133,0.1499176,0.95848083,0.91386414,-0.6487732
1630,A,1560027743227186,8.900635,-0.12336731,0.8479614,1.4317474,0.63168335,0.12660217
1630,A,1560027793581190,12.943436,3.239975,-0.38075256,0.421875,-1.4378357,0.672287
1630,A,1560027843935194,14.631073,4.1710815,2.5610504,0.8540344,0.6563568,0.1438446
1630,A,1560027894289198,13.574921,4.9225006,3.439331,1.3447723,-0.7438812,0.88838196
1630,A,1560027944643202,7.6278687,-0.7547455,6.9578094,0.59924316,-0.7445221,0.38020325
1630,A,1560027994997206,6.5725555,-2.7410278,5.017746,0.660614,0.045532227,0.06808472
1630,A,1560028045351210,7.0431824,0.24339294,8.800308,1.157196,1.03685,-0.047683716
1630,A,1560028095705213,9.635666,0.29710388,1.0788116,0.9029236,0.2848053,-0.048065186
1630,A,1560028146059217,5.2090454,-0.41545105,-0.33511353,-0.048599243,-0.10003662,0.28295898
1630,A,1560028196413221,4.585617,0.9199524,0.4424286,-0.513855,-0.23425293,0.08442688
1630,A,1560028246767225,8.4709015,1.4605408,-0.3204956,-0.84443665,0.42523193,-0.0076141357
1630,A,1560028297121229,10.15712,-0.343338,0.68878174,-0.1942749,-0.91516113,-0.27218628
1630,A,1560028347475233,12.017807,-2.5091095,0.9685974,0.26574707,0.33576965,0.101119995
1630,A,1560028397829237,14.755142,-1.0716553,0.9408722,-0.78907776,0.1328125,-0.41293335
1630,A,1560028448183241,15.377808,0.6169586,4.6225433,0.89645386,0.5951233,-0.072143555
1630,A,1560028498537245,5.9293213,4.578125,6.3921967,-0.68788147,-0.7945404,-0.44308472
1630,A,1560028548891249,6.5794373,3.4662018,4.977112,-1.326889,-0.1368866,-0.43824768
1630,A,1560028599245252,7.620056,-1.0588684,0.40608215,-0.6195679,-0.11857605,0.15974426
1630,A,1560028649599256,5.8780823,-0.8964386,-2.6900482,-0.43255615,0.30210876,-0.15068054
1630,A,1560028699953260,5.446213,0.52919006,0.6336365,-0.026672363,-0.0667572,-0.40318298
1630,A,1560028750307264,6.2621307,0.19207764,-0.23704529,0.40049744,0.05807495,-0.20262146
1630,A,1560028800661268,9.0950775,2.1526031,0.84410095,0.9069061,-0.09921265,0.28234863
1630,A,1560028851015272,10.67099,1.3142395,0.26914978,0.14207458,-0.5487366,0.34744263
1630,A,1560028901369276,15.6596985,2.299408,-0.75531006,-0.23129272,0.37295532,0.23832703
1630,A,1560028951723280,14.608276,1.8693848,3.5203094,0.6058502,0.042907715,0.2945099
1630,A,1560029002077284,7.295746,0.19773865,6.355896,0.8495636,0.328125,0.20567322
1630,A,1560029052431288,3.776245,-0.9500885,2.8064728,0.6160736,0.536438,0.058563232
1630,A,1560029102785292,6.749176,0.39398193,1.8469391,0.9319458,0.55656433,-0.026901245
1630,A,1560029153139295,7.9796143,1.0774841,1.1363068,0.7669983,-0.007980347,0.29170227
1630,A,1560029203493299,4.9979095,0.722702,-0.14683533,0.12496948,-0.2734375,0.72940063
1630,A,1560029253847303,8.009537,-0.6802826,0.10723877,0.13392639,0.21096802,0.37057495
1630,A,1560029304201307,10.051651,0.018157959,1.0623627,0.15988159,-0.6637573,-0.15058899
1630,A,1560029354555311,11.553558,-1.4239349,0.32783508,-0.21351624,-0.116104126,0.035446167
1630,A,1560029404909315,15.457687,-3.6073303,-0.5869751,-1.0466461,-0.15637207,-0.3821869
1630,A,1560029455263319,13.804245,1.52948,4.7469025,-1.1321716,-0.38868713,-0.3246765
1630,A,1560029505617323,6.960663,4.8362274,5.159317,-1.1543884,-0.19581604,-0.17034912
1630,A,1560029555971327,7.4084473,2.0336914,3.4413757,-1.1204987,0.38902283,-0.122787476
1630,A,1560029606325331,7.6277313,-0.81585693,1.7696838,-0.86805725,0.22782898,-0.07104492
1630,A,1560029656679335,4.713745,-0.85157776,0.3927002,-0.39837646,-0.39013672,-0.19186401
1630,A,1560029707033338,3.8498383,0.41290283,-0.62106323,0.027862549,-0.27731323,-0.40074158
1630,A,1560029757387342,8.067078,1.7155609,-0.29753113,0.9999542,0.30477905,-0.10168457
1630,A,1560029807741346,12.194077,2.4892273,2.7711945,0.30776978,-0.10450745,0.12364197
1630,A,1560029858095350,13.481674,3.6149597,1.3745728,-0.3996277,-0.0066833496,0.23187256
1630,A,1560029908449354,14.405121,3.0201416,0.5800781,1.0939026,-0.23501587,0.46350098
1630,A,1560029958803358,12.533661,0.87841797,4.1657257,1.1625214,-0.48669434,0.3229065
1630,A,1560030009157362,6.9543915,-1.5800781,5.4759827,0.4464569,0.10543823,0.14802551
1630,A,1560030059511366,6.7011414,-2.4527283,6.5137787,0.5802765,0.5321808,0.03715515
1630,A,1560030109865370,8.303009,0.48007202,2.283142,1.0622406,0.4638977,0.024887085
1630,A,1560030160219374,6.059616,2.216217,-1.6207886,0.2591095,0.05783081,0.45225525
1630,A,1560030210573377,4.7383423,0.48760986,-1.2575073,-0.25465393,0.10498047,0.63456726
1630,A,1560030260927381,8.580261,-0.33422852,0.34934998,-0.7515106,0.3905487,0.071258545
1630,A,1560030311281385,10.369019,0.566803,0.29034424,-0.2906189,-0.3547821,-0.14613342
1630,A,1560030361635389,12.199799,-2.2224884,0.06713867,-0.24516296,-0.1662445,-0.12631226
1630,A,1560030411989393,14.722015,-3.98555,-0.3862152,-1.3792267,-0.30638123,-0.38549805
1630,A,1560030462343397,11.80069,0.66567993,3.6398468,-1.2866669,-0.8084717,-0.4222412
1630,A,1560030512697401,6.496353,5.561676,7.1727753,-1.1654358,-0.059951782,-0.31140137
1630,A,1560030563051405,7.6132507,3.247467,4.5778046,-1.201889,0.06726074,-0.23550415
1630,A,1560030613405409,8.646957,-1.140625,1.5926056,-0.88371277,-0.05583191,-0.27098083
1630,A,1560030663759413,4.6396484,-1.4621124,0.3995514,0.0546875,0.023406982,-0.37461853
1630,A,1560030714113417,4.7092285,0.079193115,0.09864807,-0.001663208,-0.023284912,-0.261261
1630,A,1560030764467420,8.974457,1.685852,0.2985077,0.60961914,-0.16763306,-0.12283325
1630,A,1560030814839232,10.417297,2.179016,1.4372711,0.0932312,-0.54855347,-0.015808105
1630,A,1560030865193236,11.290527,2.0558472,-1.249054,-0.15002441,0.35673523,0.14500427
1630,A,1560030915547240,15.4622345,1.7148132,-0.32933044,1.1440735,0.24632263,0.4481964
1630,A,1560030965901244,12.918579,1.406601,2.8600311,1.4285431,-0.39152527,0.35717773
1630,A,1560031016255248,6.9883575,-0.8650665,5.3260803,0.45655823,0.38150024,0.111312866
1630,A,1560031066609252,5.7612762,-2.3052216,6.0655518,0.7413788,0.72058105,0.07267761
1630,A,1560031116963256,9.155731,0.07545471,3.5930023,1.1633759,0.5726471,0.15460205
1630,A,1560031167317260,7.614197,1.6432037,-1.5633087,0.23919678,-0.17266846,0.5191498
1630,A,1560031217671264,6.079727,0.64793396,-1.4425659,-0.2141571,0.6128235,0.6312103
1630,A,1560031268025268,8.127609,0.1436615,-0.29875183,-0.5991211,-0.014480591,-0.0022888184
1630,A,1560031318379271,9.362656,0.056640625,0.63487244,0.14294434,-0.8200531,-0.046020508
1630,A,1560031368733275,12.056625,-2.9165955,-0.6795654,7.324219E-4,0.19015503,0.068374634
1630,A,1560031419087279,16.869858,-2.6181183,0.91830444,-0.93141174,0.087875366,-0.22819519
1630,A,1560031469441283,12.769058,1.9114227,4.609024,-0.84394836,-0.60272217,-0.27716064
1630,A,1560031519795287,5.3347626,3.729309,5.4881744,-0.8050995,-0.05229187,-0.14788818
1630,A,1560031570149291,6.0751343,1.8462677,3.5240326,-0.9659729,0.57366943,-0.0843811
1630,A,1560031620503295,8.146393,-0.46723938,2.3052979,-0.9578552,-0.0043029785,0.02204895
1630,A,1560031670857299,6.3680573,-0.53616333,0.1582489,-0.2802887,-0.11073303,-0.34240723
1630,A,1560031721211303,4.8933563,0.32974243,-0.3020935,0.26631165,0.74746704,-0.35313416
1630,A,1560031771565307,8.610886,0.34446716,0.33320618,1.135849,0.3347168,0.0476532
1630,A,1560031821919310,11.105789,1.39357,1.2296753,0.72810364,-0.7494507,0.2347107
1630,A,1560031872273314,12.666885,4.7934113,1.2797241,-0.61808777,0.63290405,-0.12850952
1630,A,1560031922627318,13.593643,2.3146973,1.256073,0.94306946,-0.09391785,0.29621887
1630,A,1560031972981322,12.782639,0.88990784,5.2314453,1.3986206,-0.0867157,0.23364258
1630,A,1560032023335326,7.2012634,-1.3730621,2.7675934,0.24673462,-0.28198242,-0.006454468
1630,A,1560032073689330,4.905426,-3.297943,6.800125,0.030593872,0.4284973,-0.19937134
1630,A,1560032124043334,8.287628,-0.40618896,4.9096985,0.7734833,0.5527954,-0.087402344
1630,A,1560032174397338,6.8697815,1.0963745,-0.11116028,0.27563477,0.38938904,0.12132263
1630,A,1560032224751342,4.988327,-0.015579224,-1.060852,0.060806274,-0.4237213,0.5015259
1630,A,1560032275105346,7.5342712,-0.12771606,0.1602478,-0.89933777,0.7809143,0.19650269
1630,A,1560032325459350,9.53035,0.2110138,1.5010986,-0.9096985,-0.31741333,-0.14570618
1630,A,1560032375813353,11.4861145,-1.9857635,0.018829346,-0.22602844,0.30393982,0.042541504
1630,A,1560032426167357,13.732269,-3.4015503,1.5691223,-1.0513916,-0.41059875,-0.67648315
1630,A,1560032476521361,13.061859,-0.9119568,3.5997772,-0.71131897,-1.4727325,-0.5349579
1630,A,1560032526875365,6.555069,2.922989,7.030594,-0.95947266,-1.1468506,-0.17955017
1630,A,1560032577229369,7.7190857,2.0977936,5.215561,-0.9757385,0.7653961,-0.051101685
1630,A,1560032627583373,9.114151,-0.47221375,3.581192,-0.73846436,0.5402374,-0.053512573
1630,A,1560032677937377,7.246567,0.19844055,0.40570068,-0.44688416,0.041427612,-0.15827942
1630,A,1560032728291381,4.3111877,0.3422699,-1.1889496,-0.12640381,-0.5350647,-0.3322296
1630,A,1560032778645385,7.2295837,0.9070282,-0.9653778,0.8883667,0.62786865,-0.42367554
1630,A,1560032828999389,10.345993,2.3458557,2.039627,0.5998993,-0.85964966,0.16921997
1630,A,1560032879353393,12.123093,2.6669922,3.9959564,-0.5569916,0.7755432,-0.25930786
1630,A,1560032929707396,15.3302,4.349411,1.7082214,1.3523254,-0.2765503,0.6746979
1630,A,1560032980061400,12.565918,2.7842102,6.730591,1.7401428,-0.19238281,0.5010834
1630,A,1560033030415404,8.596909,-1.4244995,3.7044067,1.4096069,-0.31822205,0.28903198
1630,A,1560033080769408,5.313324,-2.5354767,9.54303,0.47200012,0.59555054,0.01083374
1630,A,1560033131123412,8.491898,0.3517456,4.198883,0.8946533,0.11166382,-0.08938599
1630,A,1560033181477416,6.9319763,1.7731781,0.6647186,-0.025939941,0.3649292,0.117385864
1630,A,1560033231831420,4.4934845,0.8634491,-1.4857635,-1.193924,0.113204956,0.17399597
1630,A,1560033282185424,7.5500946,-0.5565033,-0.49604797,-0.2963562,0.23606873,-0.061203003
1630,A,1560033332539428,9.9096985,-0.66352844,-0.6662445,-1.7429352,-0.14268494,-0.18504333
1630,A,1560033382893432,9.581772,-1.8258972,-0.18676758,0.5903778,-0.17697144,0.09352112
1630,A,1560033433247435,13.602356,-1.0753632,1.8478088,-0.16944885,0.24006653,-0.23750305
1630,A,1560033483601439,17.35379,1.6929626,-0.15449524,-1.7218018,-0.6777191,-0.42878723
1630,A,1560033533955443,9.141373,1.2302856,5.4673615,-0.8353729,-1.4097595,-0.2781372
1630,A,1560033584309447,4.268585,4.468918,10.283203,-0.3934021,1.0503082,-0.030838013
1630,A,1560033634663451,8.265762,2.0673065,1.4868011,-0.7789154,0.3324585,0.073791504
1630,A,1560033685017455,7.7377167,-1.7351227,1.4949493,-0.27822876,-0.34953308,-0.16093445
1630,A,1560033735371459,5.307953,-0.47288513,-0.67045593,0.47987366,-0.48240662,-0.26065063
1630,A,1560033785725463,5.5158234,0.8388977,-1.7437134,0.27134705,0.9672241,-0.32868958
1630,A,1560033836079467,10.426254,1.7861786,1.2418976,1.0118561,-0.25976563,0.3318329
1630,A,1560033886433471,9.118668,2.3136597,1.6212921,-0.5630493,-0.010116577,0.04283142
1630,A,1560033936787475,13.505447,3.4082336,-0.2696991,0.90812683,0.28730774,0.46697998
1630,A,1560033987141478,17.927841,2.4620972,3.6209106,1.5436096,-0.11306763,0.5201416
1630,A,1560034037495482,8.599426,-0.8067322,2.0257568,1.114914,-1.1639557,0.26960754
1630,A,1560034087849486,5.4095,-3.3423615,8.673111,0.2297821,0.5202179,0.12408447
1630,A,1560034138203490,6.8763123,-0.3246765,5.459091,1.2286224,0.6887665,-0.08277893
1630,A,1560034188557494,8.553223,1.8396454,1.3530426,1.0590515,0.120666504,-0.017562866
1630,A,1560034238911498,4.8621674,0.82398987,-2.78508,-0.63822937,-0.6749878,0.6697998
1630,A,1560034289265502,6.5943146,-0.75756836,-0.19647217,-0.6236267,0.986145,0.48550415
1630,A,1560034339619506,10.910858,0.33421326,0.7129364,-0.7690582,0.70162964,-0.20471191
1630,A,1560034389973510,11.083817,-0.64437866,0.6870117,-0.1762085,-0.55992126,-0.13948059
1630,A,1560034440327514,12.61644,-5.939682,-2.5284424,-0.5033264,0.7535248,-0.2587738
1630,A,1560034490681518,15.233444,-0.37838745,0.607666,-1.7291565,-0.81103516,-0.6505127
1630,A,1560034541035521,10.068619,1.7917938,4.6983643,-1.286377,-0.9187317,-0.3180542
1630,A,1560034591389525,4.636612,4.7303314,8.076447,-0.8298187,0.70088196,-0.17063904
1630,A,1560034641743529,8.639511,1.3864594,2.7836761,-0.80744934,0.72442627,-0.10862732
