Subject-Id,Activity Label,Time stamp,Accel_x,Accel_y,Accel_z,Gyro_x,Gyro_y,Gyro_z
1616,A,192640298336653,-3.1789246,-14.467224,2.241684,0.5886383,1.4360504,0.4101715
1616,A,192640348690657,-2.2039185,-6.345047,2.3461914,0.46173096,0.28764343,0.6184387
1616,A,192640399044661,-3.9881897,-4.2916718,2.7627106,0.40827942,-1.5702972,0.39071655
1616,A,192640449398665,-5.4646606,-11.01767,1.2393494,0.6092529,-1.4190826,0.5648651
1616,A,192640499752669,-3.1182556,-9.380981,0.06359863,0.9262085,0.6997986,0.552948
1616,A,192640550106673,-0.15609741,-8.579529,-0.51438904,0.8139343,2.120102,0.6559601
1616,A,192640600460676,1.261795,-11.582367,0.7246399,0.15161133,1.5870667,0.36462402
1616,A,192640650814680,1.4204712,-9.854492,1.0321045,-0.3821869,0.37809753,-0.058303833
1616,A,192640701168684,0.6670227,-8.974777,0.6656647,-1.3147888,1.6627502,-1.451767
1616,A,192640751522688,0.671463,-9.771164,-0.45115662,-1.7904968,1.1987457,-2.499771
1616,A,192640801876692,1.995636,-11.580505,-1.9934998,-0.6692352,0.025985718,-1.5873871
1616,A,192640852230696,5.31839,-11.0937195,-0.7348938,-0.47299194,-1.2359924,-1.1729736
1616,A,192640902584700,5.5737305,-13.504791,-2.9631195,-0.47528076,-2.217865,-0.72016907
1616,A,192640952938704,-0.0049438477,-12.854172,-0.5281372,0.3143921,-0.49993896,-0.6000519
1616,A,192641003292708,-4.745865,-12.519669,0.58296204,0.32925415,-0.08830261,-0.56240845
1616,A,192641053646712,-2.3420258,-8.480957,-1.3464661,0.7278137,-1.4298553,0.117385864
1616,A,192641104000716,-1.7359924,-9.055222,2.3995361,0.11306763,-0.3270874,0.76200867
1616,A,192641154354719,-0.5740051,-9.469803,0.37216187,-0.099594116,-2.1670227,0.4929657
1616,A,192641204708723,-3.6605377,-6.8572083,-1.7438812,0.11399841,0.582901,-0.991745
1616,A,192641255062727,-4.3295746,-6.318466,-0.445755,0.27886963,1.2702637,-0.04423523
1616,A,192641305416731,-2.261078,-7.408844,-2.876587,2.392929,-1.454773,-0.02017212
1616,A,192641355770735,7.8503723,-10.638962,-0.6902771,-0.74835205,-0.18391418,0.50968933
1616,A,192641406124739,8.930557,-12.364853,0.6918335,-0.6877594,1.2519379,0.81829834
1616,A,192641456478743,2.675766,-11.393463,-1.9035645,0.32725525,1.2290192,0.8100586
1616,A,192641506832747,-7.5516663,-19.125137,-8.45929,0.78996277,-0.7770386,0.7571564
1616,A,192641557186751,-1.7212524,-4.203888,0.9155426,0.7864227,-1.0547333,1.0357971
1616,A,192641607540755,-3.087967,-2.0359192,2.9151,0.51123047,-2.881073,0.67315674
1616,A,192641657894759,-3.868866,-13.925339,-0.009536743,0.7393341,-1.292984,0.4316101
1616,A,192641708248762,-3.2580414,-9.1762085,0.52104187,0.4585266,1.706955,0.45173645
1616,A,192641758602766,-0.135849,-7.893036,-0.87216187,0.07362366,0.3592987,0.5011902
1616,A,192641808956770,1.5852051,-11.927567,1.2722626,0.34197998,-0.23294067,0.46629333
1616,A,192641859310774,0.8812256,-9.157074,4.350662,-0.10229492,0.2342987,0.17489624
1616,A,192641909664778,0.82621765,-8.643982,-1.2063446,-0.55496216,0.77404785,-0.8800354
1616,A,192641960018782,-0.11376953,-8.901474,-0.22969055,-2.2661133,2.125229,-1.8797607
1616,A,192642010372786,0.051132202,-10.727051,-0.12963867,-1.2171783,0.050628662,-2.1142578
1616,A,192642060726790,2.0861816,-10.795807,-0.7510376,-0.47512817,0.17126465,-0.96946716
1616,A,192642111080794,5.462723,-12.833359,-1.223938,-0.96824646,-0.65652466,-0.9962311
1616,A,192642161434798,1.8751984,-12.609177,-4.4026947,-0.01828003,-1.7477722,-0.42384338
1616,A,192642211788801,-2.5902863,-12.624023,1.4203949,0.36564636,-0.26861572,-0.6272278
1616,A,192642262142805,-5.2038574,-11.948853,1.9328918,0.15663147,-0.15653992,0.20126343
1616,A,192642312496809,-4.1571198,-9.446304,-0.002090454,-0.066726685,-0.83070374,1.7163849
1616,A,192642362850813,-1.2468567,-8.282455,1.4312897,-0.9091797,-0.8156891,3.0073395
1616,A,192642413204817,-2.2861176,-8.807663,0.20732117,-0.5591583,-3.5414124,0.6090088
1616,A,192642463558821,-4.4239197,-8.040421,-1.7156067,0.7965698,-0.5686035,-0.85910034
1616,A,192642513912825,-3.1163635,-7.949402,-0.7978363,0.16477966,0.21472168,-1.4950256
1616,A,192642564266829,-0.30473328,-10.407135,-2.505478,0.552124,-1.3761139,-1.404602
1616,A,192642614620833,8.256012,-11.6749115,-1.7807617,0.42158508,-3.620514,0.36027527
1616,A,192642664974837,1.9018707,-8.643143,-0.07513428,-1.3647461,-3.1880035,1.5237427
1616,A,192642715328841,-2.1312103,-11.183472,-2.147049,-1.9540253,-0.60121155,1.549881
1616,A,192642765682844,-5.529129,-16.184723,-5.8476257,-0.43354797,1.5149231,0.45887756
1616,A,192642816036848,-2.55719,-6.2015533,-2.4420166,0.48506165,3.1667023,-0.91760254
1616,A,192642866390852,-3.8597412,-8.180801,-2.8721771,1.0499268,-1.4425049,0.13310242
1616,A,192642916744856,-1.4580536,-8.4479065,2.4963531,1.1492767,-2.1850433,0.19763184
1616,A,192642967098860,-1.1513977,-9.903473,2.8371887,1.2922211,0.76586914,-0.449646
1616,A,192643017452864,-1.6347351,-9.792999,1.3370667,0.6065216,1.8368073,0.8045654
1616,A,192643067806868,-2.174057,-8.149826,-0.9813843,0.23754883,0.18347168,1.4803009
1616,A,192643118160872,-0.5003967,-9.966431,-0.20814514,1.6070709,0.27697754,0.69673157
1616,A,192643168514876,-1.4675751,-10.105225,-0.09172058,2.2470856,1.3512878,0.7146301
1616,A,192643218868880,-3.5774384,-10.070953,-4.12204,2.1766052,3.26503,0.4375
1616,A,192643269222884,-2.0657654,-9.584,-4.0119934,-0.32717896,4.2950897,0.13078308
1616,A,192643319576887,-1.134201,-11.247208,-1.1753845,-0.3135376,2.843811,-0.62538147
1616,A,192643369930891,-1.4264221,-12.737015,-1.9313049,0.13467407,2.0415344,-1.1787415
1616,A,192643420284895,-3.7637177,-12.636887,-7.765869,-0.13192749,0.4499817,-0.98202515
1616,A,192643470638899,-1.3471069,-11.986008,-5.199463,-0.40615845,0.16386414,-0.48823547
1616,A,192643520992903,-2.7034607,-12.318649,-0.45552063,0.4312439,-0.014770508,-0.23664856
1616,A,192643571346907,-3.2427063,-7.38974,-3.5647278,0.5274658,-0.90478516,-0.8647003
1616,A,192643621700911,-7.655319,-7.750519,-1.9681854,0.040374756,-1.6100311,-1.4172821
1616,A,192643672054915,-6.3628387,-9.46405,1.0677185,0.07476807,-0.532547,-0.9580536
1616,A,192643722408919,-3.588089,-8.85173,-0.927124,-0.049713135,1.1995239,-0.5688782
1616,A,192643772762923,-2.2116394,-7.328644,-1.3596649,0.3892517,0.6937866,-0.70448303
1616,A,192643823116926,-4.5879517,-7.457779,-0.67533875,1.0712128,-0.9429779,-0.81987
1616,A,192643873470930,-4.6486664,-8.76738,1.6103973,1.0107269,-0.6538696,-0.67845154
1616,A,192643923824934,-1.502655,-8.187714,-1.3151398,0.2676239,0.8715515,0.064956665
1616,A,192643974178938,0.60025024,-9.399704,-4.0306854,0.23098755,0.8180847,1.1470337
1616,A,192644024532942,3.0099487,-11.379257,-0.07249451,0.19969177,-0.27105713,1.2701874
1616,A,192644074886946,3.4595184,-11.523209,2.474121,-0.017654419,-1.1020966,0.36564636
1616,A,192644125240950,-0.27497864,-11.079712,-0.7734375,0.9045563,-2.3765106,-0.22076416
1616,A,192644175594954,-2.3431702,-10.900452,-0.04396057,0.38526917,-1.6439972,-0.27893066
1616,A,192644225948958,-3.8931122,-9.718964,-1.1938477,0.0041656494,-1.1613464,-0.7942047
1616,A,192644276302962,-4.8098297,-8.684311,1.5253601,0.1522522,-2.1198883,-1.6474762
1616,A,192644326656966,-4.0995026,-7.940872,3.763977,-0.84754944,-1.3035431,-1.4030457
1616,A,192644377010969,-0.7834625,-8.754379,3.2627716,-1.3593597,-0.3418274,-1.0852814
1616,A,192644427364973,1.478775,-9.256531,0.12512207,-0.73194885,-0.6828308,-0.8018341
1616,A,192644477718977,1.385315,-9.307922,-1.1587067,-0.015487671,0.68852234,-1.6784668E-4
1616,A,192644528072981,1.33638,-9.812119,0.4386139,0.47529602,1.8004761,0.10517883
1616,A,192644578426985,1.7936249,-9.468964,1.4775085,1.6119232,1.1011047,0.64686584
1616,A,192644628780989,0.8797302,-9.115829,2.0165558,-1.21138,3.2543793,-0.73043823
1616,A,192644679134993,2.2442932,-9.370544,1.1325531,-3.1399078,1.8437958,-1.0831909
1616,A,192644729488997,2.9132996,-8.995178,3.3190155,-2.143692,0.90966797,-1.4868317
1616,A,192644779843001,4.07428,-9.232788,3.7724152,-0.88150024,0.46618652,-2.145935
1616,A,192644830197005,4.476059,-8.966507,1.1645966,0.38659668,0.20144653,-2.3475647
1616,A,192644880551009,6.9996796,-10.951706,0.041107178,0.67341614,0.71865845,-1.9276886
1616,A,192644930905012,4.299942,-10.549744,-0.20431519,0.36296082,0.34957886,-0.7368469
1616,A,192644981259016,0.13873291,-7.684265,-1.2319794,0.31915283,-0.2841339,-0.120224
1616,A,192645031613020,3.043167,-9.457382,0.12689209,0.5260773,-0.98805237,0.33145142
1616,A,192645081967024,4.025055,-10.483444,0.3507843,0.88035583,-0.66085815,0.79037476
1616,A,192645132321028,2.845932,-7.7410126,0.032470703,0.82128906,-0.5822754,0.7353668
1616,A,192645182675032,3.8465729,-7.050995,-0.28952026,0.8206787,-4.7302246E-4,-0.49523926
1616,A,192645233029036,3.2610931,-8.235031,0.6873627,0.74786377,1.3813019,-0.7387085
1616,A,192645283383040,2.9385223,-7.7149963,-0.85601807,0.3305664,1.4570465,-0.45783997
1616,A,192645333737044,9.099014,-6.4409485,0.46643066,0.52841187,0.7918854,0.08866882
1616,A,192645384091048,10.50621,-5.3328857,-1.2945404,-1.0114746,0.51742554,0.8852844
1616,A,192645434445051,5.754654,-7.0439453,2.0739288,-0.31414795,-0.024978638,0.23310852
1616,A,192645484799055,6.1984253,-7.339569,-5.223526,0.66648865,0.09585571,0.65223694
1616,A,192645535153059,4.932602,-10.256012,7.182907,1.0004883,0.27755737,0.9409332
1616,A,192645585507063,3.2369537,-8.160187,-1.4223022,0.84547424,0.2970581,0.6709442
1616,A,192645635861067,0.55815125,-7.708359,4.6462097,0.14422607,0.34353638,0.64608765
1616,A,192645686215071,2.273346,-9.136948,1.9501495,-0.4666748,0.09580994,0.97709656
1616,A,192645736569075,4.9908905,-8.625107,3.456192,-0.3070221,0.39956665,0.9470215
1616,A,192645786923079,4.827774,-7.6159363,3.6069794,0.13482666,0.37709045,0.85272217
1616,A,192645837277083,2.374176,-6.3168793,2.8759918,0.21618652,0.33283997,0.3859558
1616,A,192645887631087,3.634735,-7.8744354,2.9531708,0.12287903,0.14819336,0.010635376
1616,A,192645937985091,3.4809265,-8.4210205,2.6911316,-0.116867065,0.54141235,-0.65148926
1616,A,192645988339094,4.405136,-8.393051,2.6426392,-0.6181793,0.5656738,-1.5614014
1616,A,192646038693098,4.2162476,-8.7161255,3.3415833,-0.98872375,-0.06416321,-1.4038696
1616,A,192646089047102,4.672348,-8.885895,2.9670868,-0.31860352,-0.68325806,-1.719284
1616,A,192646139401106,6.081375,-9.08699,3.3157196,0.33476257,-0.30595398,-1.493866
1616,A,192646189755110,5.152237,-10.616379,2.6589355,0.7739258,1.174057,-2.109726
1616,A,192646240109114,5.7405396,-9.838501,5.0640564,0.8622894,1.8112183,-1.3203888
1616,A,192646290463118,1.5101318,-8.97052,0.17521667,0.9527588,2.0932007,-1.0222626
1616,A,192646340817122,3.2178345,-7.443222,5.541153,0.9333954,3.08255,-1.0811615
1616,A,192646391171126,3.8173828,-9.668915,4.189316,1.368103,2.7523804,-0.37812805
1616,A,192646441525130,2.2177734,-7.7892914,2.4526978,2.3515167,3.526352,-0.4053192
1616,A,192646491879134,4.498825,-6.134262,1.6347656,1.1433105,1.7059326,-0.21018982
1616,A,192646542233137,2.6785278,-5.4404144,3.3331451,0.9668274,1.0919952,0.27053833
1616,A,192646592587141,4.701004,-3.827118,5.3980103,0.9347687,1.4665375,-0.032424927
1616,A,192646642941145,3.2719116,-3.3059692,7.2979736,1.9015656,1.1426086,-0.03993225
1616,A,192646693295149,0.40769958,-1.4521484,7.782852,0.674942,1.3894653,-0.11021423
1616,A,192646743649153,3.292633,-1.2804413,9.58551,-0.8439026,-0.7211151,0.21263123
1616,A,192646794003157,2.1742554,-1.636322,11.399857,-0.3921051,-0.82977295,0.64250183
1616,A,192646844357161,-0.37451172,-2.9334106,13.448776,-0.34729004,0.14682007,0.70521545
1616,A,192646894711165,-0.19256592,-2.7780151,4.4530487,-0.2684021,0.5704498,0.46461487
1616,A,192646945065169,-0.109817505,-5.8107452,9.38475,-0.24443054,0.29214478,0.108673096
1616,A,192646995419173,-4.249069,-4.402817,11.308701,-0.15374756,0.18807983,-0.113098145
1616,A,192647045773176,-0.58644104,-4.118744,7.3174133,-0.20106506,0.18733215,-0.32489014
1616,A,192647096127180,-0.8355713,-3.415863,8.321457,-0.6056366,-0.0061187744,-0.36431885
1616,A,192647146481184,-0.30671692,-1.8301544,7.5536804,-1.2641602,-0.8368988,-0.31954956
1616,A,192647196835188,-1.0740204,-1.1374359,8.896683,-1.0129395,-1.471283,-0.376297
1616,A,192647247189192,-0.8856659,-1.1215515,8.514648,-1.5900726,-3.2471466,-0.19384766
1616,A,192647297543196,-0.6204376,-0.9082031,7.7757263,-2.296524,-4.7917786,-0.31289673
1616,A,192647347897200,1.2355194,-1.377182,9.811829,-3.0212097,-6.247879,0.03755188
1616,A,192647398251204,0.6293335,-2.1940765,8.533737,-2.926529,-6.812805,-0.67292786
1616,A,192647448605208,2.9092712,-2.785141,7.112961,-3.4364777,-5.0678253,-1.0718384
1616,A,192647498959212,3.0282745,-5.006912,7.5796356,-1.234909,-0.65904236,-0.4131012
1616,A,192647549313216,5.5717926,-6.2317047,4.463806,-0.03878784,-0.48771667,1.3488007
1616,A,192647599667219,9.640411,-6.451111,-2.4892578,0.1897583,0.29266357,2.7326813
1616,A,192647650021223,7.603241,-8.495224,-2.277771,-0.1027832,0.1578064,1.5469666
1616,A,192647700375227,3.1718903,-6.301346,-2.595459,1.4313354,-1.4929199,0.82640076
1616,A,192647750729231,2.2713318,-5.922592,-1.5987854,1.045227,-1.1898804,2.0858307
1616,A,192647801083235,5.864502,-6.692093,-0.7970123,-0.4964447,2.7338562,1.6271057
1616,A,192647851437239,6.976837,-8.39505,-2.683136,0.44366455,2.5015106,1.320694
1616,A,192647901791243,-0.1776123,-7.863144,-2.6305847,0.91804504,0.5233612,0.8213806
1616,A,192647952145247,4.326126,-7.523651,-7.3804016,0.24412537,0.8107147,0.17329407
1616,A,192648002499251,7.2927856,-9.435272,0.1572113,0.64382935,-3.3449097,0.35531616
1616,A,192648052853255,4.245514,-10.256943,-2.3432312,-0.23640442,-0.8181915,1.4635315
1616,A,192648103207259,0.6834564,-14.238205,-3.0898895,0.19021606,-0.8028717,0.3358307
1616,A,192648153561262,0.92022705,-11.877365,0.95236206,0.99412537,0.39723206,1.4415131
1616,A,192648203915266,-1.6870728,-8.329987,-0.5794983,0.122528076,1.8353577,1.8629913
1616,A,192648254269270,-1.0202179,-8.71553,-0.41630554,0.671875,-0.025543213,0.96884155
1616,A,192648304623274,-2.4421692,-9.084625,3.1842194,0.49742126,-0.5564728,0.25071716
1616,A,192648354977278,-3.4196014,-10.656143,-2.1040497,0.280365,-0.35585022,0.23312378
1616,A,192648405331282,0.73573303,-10.017136,0.13967896,0.37034607,0.42710876,1.3977814
1616,A,192648455685286,1.7115173,-10.053421,-0.49127197,0.26080322,0.66111755,1.9424744
1616,A,192648506039290,0.6717682,-8.873245,-2.0084686,-1.6416473,-2.040863,1.1297302
1616,A,192648556393294,-2.1621246,-8.29686,-0.69137573,-1.5301971,-0.8640137,0.44639587
1616,A,192648606747298,-1.8996277,-7.559738,-0.5633545,1.1640015,2.021576,-0.67985535
1616,A,192648657101301,0.1719513,-4.96727,-1.8997498,0.48825073,1.1629028,-1.8595276
1616,A,192648707455305,-0.5726166,-11.467728,-9.8064575,-0.74980164,2.0787811,-2.1196747
1616,A,192648757809309,-0.8164215,-16.222473,-7.467758,0.9425049,2.3169708,-2.315857
1616,A,192648808163313,2.0000763,-9.958466,0.22262573,0.3480072,-0.5570984,-1.1666412
1616,A,192648858517317,0.4703064,-9.391724,-0.17970276,-0.34091187,-1.6961212,-0.33496094
1616,A,192648908871321,-0.38853455,-10.314987,5.265564,0.35684204,-1.1865692,-0.058242798
1616,A,192648959225325,-2.4869995,-11.376114,-3.2152557,0.12182617,-0.68460083,0.6104126
1616,A,192649009579329,-5.3633575,-10.360184,-4.9747467,0.11216736,-1.1995544,0.635849
1616,A,192649059933333,-4.9514923,-6.90094,1.499176,0.16426086,-0.21179199,-1.2535553
1616,A,192649110287337,-4.092163,-5.4427795,0.23361206,0.20796204,0.6909027,-0.7535858
1616,A,192649160641341,-2.88443,-5.5576935,-0.28042603,2.1624146,0.2710266,-0.055862427
1616,A,192649210995344,4.871475,-9.808807,-0.38716125,0.28271484,-0.8594055,0.24571228
1616,A,192649261349348,7.3045197,-14.269196,1.2801666,-1.2919464,-0.5116577,0.7479248
1616,A,192649311703352,3.488922,-10.479263,-0.13935852,0.027389526,-0.44458008,1.2307434
1616,A,192649362057356,-4.571686,-14.8302,-9.454712,0.4925232,0.47355652,0.6921234
1616,A,192649412411360,-4.1906586,-9.816742,-3.9958344,0.7137451,-1.5548401,0.5450287
1616,A,192649462765364,-2.514923,-3.3623962,0.8818054,1.5842133,-3.3345642,0.98431396
1616,A,192649513119368,-5.3022156,-8.998322,1.7788544,1.6092987,-0.3709259,0.70277405
1616,A,192649563473372,-4.372177,-9.623062,1.1374054,0.50575256,3.9815063,0.51934814
1616,A,192649613840702,-1.2828064,-8.922058,1.9176483,-0.53178406,1.4795074,0.5005951
1616,A,192649664194706,-0.30177307,-10.539917,2.7690735,0.7564087,-1.3222046,-0.4980011
1616,A,192649714548710,-0.9871216,-9.182999,6.308853,-1.0703125,1.9769745,-1.2466125
1616,A,192649764902713,-0.39024353,-10.424957,-2.590393,-1.7436829,2.5793152,-2.7981873
1616,A,192649815256717,1.7630615,-10.35144,-2.7091522,-0.24040222,-0.26397705,-2.5765533
1616,A,192649865610721,5.084717,-12.935211,3.8355408,-0.8871918,-0.44958496,-1.2168121
1616,A,192649915964725,6.1171417,-12.54808,-0.19638062,-0.54667664,0.1929779,-1.3394775
1616,A,192649966318729,3.959137,-13.6302185,-1.7542877,-0.32435608,-0.4539032,-0.89819336
1616,A,192650016672733,-4.8150024,-16.119293,-2.0083923,0.078125,-1.4559021,-0.3464508
1616,A,192650067026737,-4.2259827,-11.627045,-0.7425232,0.54985046,-0.02758789,0.22723389
1616,A,192650117380741,-5.850235,-8.453079,2.5451508,-0.061141968,-0.43258667,1.3323364
1616,A,192650167734745,-2.630661,-7.161331,0.09864807,2.1809387,-3.7284393,-1.0184479
1616,A,192650218088749,-3.1292114,-5.4161224,1.508316,-0.29338074,2.9105682,-0.24325562
1616,A,192650268442752,-4.6469574,-5.2072144,1.3955078,3.6119537,1.856247,-0.7206421
1616,A,192650318796756,1.5440369,-8.714935,-16.079712,-1.1038208,-1.6251678,0.8909149
1616,A,192650369150760,8.008255,-17.403198,-0.39840698,-1.7810974,-0.036499023,1.087204
1616,A,192650419504764,6.5623627,-7.541336,1.9325104,0.097457886,2.5190582,1.0859985
1616,A,192650469858768,-8.259018,-17.477203,-16.797623,1.1388245,-0.3742981,0.3793335
1616,A,192650520212772,-2.0883179,-7.4405518,-0.72216797,0.75723267,-1.4488373,1.0397339
1616,A,192650570566776,-1.6085205,-0.59025574,3.710968,1.5153351,-3.1243591,1.1535187
1616,A,192650620920780,-2.0395813,-9.1545105,3.0260925,1.6964569,-1.194046,0.8573761
1616,A,192650671274784,-3.1968384,-11.418747,-0.28321838,0.6079407,4.8000946,0.5127716
1616,A,192650721628788,-1.0463867,-8.983658,0.4195404,-0.31500244,0.6420593,0.43852234
1616,A,192650771982792,-0.12823486,-9.88681,2.3292542,-0.0335083,-1.9049988,-0.32757568
1616,A,192650822336795,-1.1255951,-9.739746,1.9153748,-1.1874847,3.9815674,-1.223175
1616,A,192650872690799,-1.3067474,-9.798676,-7.9318237,-2.191101,1.9713593,-3.0913086
1616,A,192650923044803,1.87677,-10.554794,-0.9355011,-0.31341553,-1.4893799,-3.1590729
1616,A,192650973398807,5.727295,-13.156647,12.243942,0.40167236,0.26820374,-0.5396881
1616,A,192651023752811,9.2239685,-10.157883,-4.09935,-0.7763519,-0.5729065,-1.5516968
1616,A,192651074106815,7.22995,-13.899719,-0.9051056,0.15130615,-1.7430573,-1.0713654
1616,A,192651124460819,-1.1990204,-18.000977,1.8673096,0.15368652,-1.2875671,-0.67567444
1616,A,192651174814823,-6.4456635,-13.328125,-2.256363,0.81803894,-0.020965576,0.028137207
1616,A,192651225168827,-5.5598297,-6.718918,2.4861603,0.40090942,-0.17803955,1.5951691
1616,A,192651275522831,-2.990158,-8.082428,-1.5709686,0.35272217,-1.87677,0.8896179
1616,A,192651325876835,-2.2055054,-6.5334473,0.3642578,-0.4384613,2.2979279,-1.1397858
1616,A,192651376230838,-5.917877,-4.9705353,-0.19746399,0.3692932,0.3401184,-0.018859863
1616,A,192651426584842,-2.3723145,-6.0071106,-1.9476013,1.3079224,0.90922546,0.81707764
1616,A,192651476938846,10.642899,-12.248764,2.4296112,-1.8583527,0.08509827,0.46380615
1616,A,192651527292850,14.121445,-16.921844,1.8696747,-0.17877197,0.3503418,1.87883
1616,A,192651577646854,0.80789185,-9.111053,-1.281601,0.47232056,0.90493774,1.5182037
1616,A,192651628000858,-2.7992249,-16.53711,-7.2028503,0.21759033,-1.1452637,0.5705261
1616,A,192651678354862,-3.458435,-3.3067474,1.1610107,1.2727814,-4.3285675,1.1791229
1616,A,192651728708866,-4.8079376,-5.4344635,1.9288635,1.8401794,-2.0790558,1.2427063
1616,A,192651779062870,-4.0012207,-11.109299,0.2652893,1.3378754,6.236374,0.36894226
1616,A,192651829416874,-2.6661072,-9.430908,0.8821411,-0.4429474,4.648468,-0.005279541
1616,A,192651879770877,0.32807922,-10.879852,2.998413,-0.5690155,-1.371582,0.08728027
1616,A,192651930124881,1.6803131,-10.357849,2.1136475,0.8855896,-1.8643951,-0.73934937
1616,A,192651980478885,4.1072235,-9.186142,-2.6017761,-1.9980774,2.844864,-2.1361847
1616,A,192652030832889,2.200119,-9.92247,-8.052994,-1.5339508,0.8243561,-3.035736
1616,A,192652081186893,2.7913208,-11.621933,1.202713,-0.06523132,-0.3859253,-2.0256805
1616,A,192652131540897,2.8356018,-12.18927,5.7686615,-0.4584198,-0.5050354,-0.8618164
1616,A,192652181894901,5.4572906,-11.952835,-2.8033142,-0.038757324,-0.5346832,-1.3380127
1616,A,192652232248905,1.4451294,-15.535019,1.3358917,-0.112594604,-0.5081482,-0.70214844
1616,A,192652282602909,-5.3807526,-14.264816,-1.1116486,0.27174377,-1.0196838,-0.046066284
1616,A,192652332956913,-3.3711853,-9.281418,1.7275085,0.30969238,-0.7511139,0.7987366
1616,A,192652383310917,-4.242508,-8.357834,2.7601929,0.3371582,-2.688507,0.7699585
1616,A,192652433664920,-3.0133667,-7.4757385,-1.3265228,1.2316895,-1.4509735,-0.93370056
1616,A,192652484018924,-4.5266113,-4.355423,1.8746338,0.8580017,3.09375,-0.25512695
1616,A,192652534372928,-2.9453278,-6.554184,-4.974289,2.225998,0.4666443,-0.17893982
1616,A,192652584726932,6.7057953,-12.854797,-12.083603,-2.0545502,-0.8623352,1.1204834
1616,A,192652635080936,12.132263,-15.355743,4.1900024,-1.184494,2.1486511,1.4727478
1616,A,192652685434940,0.18902588,-9.489151,-6.2950287,0.48815918,2.9955444,1.437561
1616,A,192652735788944,-7.1858063,-16.373642,-12.954346,0.9630585,0.096450806,0.5984497
1616,A,192652786142948,-1.230484,-6.8436127,4.124466,1.076355,-3.0510254,0.8858032
1616,A,192652836496952,-3.2417908,-4.70961,4.6580353,1.5259857,-4.010193,1.2102051
1616,A,192652886850956,-2.802185,-9.756302,0.66871643,1.3752594,0.16067505,1.015686
1616,A,192652937204960,-2.5583801,-9.640121,-0.77456665,0.7423401,4.991623,0.31072998
1616,A,192652987558963,-0.6704712,-9.64064,0.94688416,-0.39338684,2.5840912,0.080215454
1616,A,192653037912967,0.4229126,-10.66568,1.8828583,-0.13189697,-0.51187134,-0.29177856
1616,A,192653088266971,0.5453186,-9.51622,1.7190552,-0.7466278,1.5264587,-1.1234436
1616,A,192653138620975,1.4565887,-9.308075,-1.0630035,-1.9560852,1.2561493,-2.357376
1616,A,192653188974979,3.6558533,-10.493561,-2.6695404,-0.6922302,0.05029297,-2.422058
1616,A,192653239328983,6.0399933,-11.61908,-2.2252502,-0.23336792,-0.30307007,-1.4649963
1616,A,192653289682987,6.864441,-12.243179,-2.5460358,0.011001587,-1.2731628,-1.1175537
1616,A,192653340036991,4.3608093,-13.326721,1.1003265,0.15490723,-0.8286743,-1.1369019
1616,A,192653390390995,-1.6329193,-14.828461,1.3851013,0.14595032,-0.4015808,-0.613266
1616,A,192653440744999,-4.8345184,-12.307922,0.4224701,0.61891174,-0.7767792,0.28082275
1616,A,192653491099002,-3.408081,-8.279663,2.2845154,-0.2199707,-1.7840271,1.1305084
1616,A,192653541453006,-2.9563293,-8.189255,0.7319946,0.04447937,-3.010254,0.48736572
1616,A,192653591807010,-3.6222687,-7.1055145,-0.22964478,0.42170715,0.844223,-0.25993347
1616,A,192653642161014,-4.9980316,-5.639511,0.4965515,1.8361969,2.003662,-0.47001648
1616,A,192653692515018,-3.2043457E-4,-7.534027,-6.1974335,0.5030365,0.3544159,0.023406982
1616,A,192653742869022,8.763321,-13.171555,-2.6803894,-1.4772034,0.1181488,0.84887695
1616,A,192653793223026,8.707809,-11.689102,0.8659668,-0.13171387,-0.7946472,1.547821
1616,A,192653843577030,-1.1394806,-14.694412,-3.7525024,0.4474945,-0.22743225,1.2280121
1616,A,192653893931034,-3.1026154,-10.839813,-1.575943,0.071517944,-0.44950867,0.78201294
1616,A,192653944285038,-2.2164154,-2.7737732,0.5497589,0.9694214,-3.162674,0.8857269
1616,A,192653994639042,-5.0028076,-6.9579926,1.9197083,1.5123596,-3.071045,1.1521912
1616,A,192654044993045,-4.089264,-9.80545,1.2275696,1.4785309,3.5539093,0.5076752
1616,A,192654095347049,-2.22081,-8.942825,1.2228546,-0.24267578,3.5311127,0.32113647
1616,A,192654145701053,-0.499115,-10.53389,2.6394196,-0.606369,-1.4855499,0.31999207
1616,A,192654196055057,1.0459747,-10.264496,2.243744,1.0707245,-0.0640564,-0.13348389
1616,A,192654246409061,1.4684906,-9.590759,-2.2999115,-1.2990875,2.5398865,-1.5258026
1616,A,192654296763065,0.9269867,-9.694366,-3.3278656,-1.9115295,1.4194336,-2.648056
1616,A,192654347117069,3.0085754,-10.605972,-0.16574097,-0.15118408,-0.07246399,-2.3037415
1616,A,192654397471073,5.410187,-12.279648,-2.9330444,-0.8551178,0.14294434,-1.484848
1616,A,192654447825077,4.897751,-12.6800995,-2.8487854,-0.17451477,-0.22003174,-1.2770538
1616,A,192654498179081,2.329483,-14.061218,0.06411743,-0.06440735,-0.018173218,-1.0471802
1616,A,192654548533085,-5.373932,-14.275162,-1.8362122,-0.017120361,-1.0787811,-0.41127014
1616,A,192654598887088,-5.254608,-11.291214,0.31582642,0.8074341,-0.17390442,0.30751038
1616,A,192654649241092,-3.9164734,-9.022278,2.9199677,0.43721008,-0.81373596,1.2806854
1616,A,192654699595096,-3.0091248,-8.312622,-0.85987854,1.4084015,-4.164551,-0.44233704
1616,A,192654749949100,-3.5493011,-4.9249573,1.8957672,-0.1481018,2.2107544,-0.54737854
1616,A,192654800303104,-4.9589386,-5.0333557,1.2716064,3.7262878,3.0224915,-0.80111694
1616,A,192654850657108,0.32043457,-8.273773,-15.5421295,-0.988327,0.015258789,0.31530762
1616,A,192654901011112,11.500259,-16.294388,2.354889,-1.8518372,-0.5470581,1.41008
1616,A,192654951365116,6.8610077,-9.107849,0.79559326,0.50927734,-0.40766907,2.288498
1616,A,192655001719120,-5.1129303,-17.290268,-14.8103485,0.60672,-0.3110199,0.67419434
1616,A,192655052073124,-2.0456543,-8.07753,-1.9822388,0.394104,-0.12365723,0.67311096
1616,A,192655102427127,-3.7830048,-2.0565948,2.498001,1.4012451,-4.164093,0.7369232
1616,A,192655152781131,-3.6773224,-8.130493,1.2763672,1.4112854,-2.957611,1.2423248
1616,A,192655203135135,-4.9093933,-9.90506,0.5495453,1.4417572,5.6286316,0.15065002
1616,A,192655253489139,-2.6215515,-8.675461,0.29014587,-0.6609802,3.3554688,0.5861206
1616,A,192655303843143,-0.10902405,-11.16893,2.8872528,-0.6325226,-3.173996,0.16966248
1616,A,192655354197147,0.8664398,-9.396317,1.9132385,0.84532166,2.0080872,-0.4634552
1616,A,192655404551151,1.0835571,-9.57341,-2.5392761,-2.751587,3.8204498,-2.8353577
1616,A,192655454905155,0.316391,-10.146698,-3.4441376,-1.0454254,-0.21818542,-3.216217
1616,A,192655505259159,4.939865,-12.051758,1.3057709,0.4945526,0.28822327,-1.4495239
1616,A,192655555613163,9.26796,-11.664795,-5.6472626,-1.2841797,-0.3612213,-1.2853394
1616,A,192655605967167,5.6501007,-14.449585,-2.5961914,-0.055603027,-0.37213135,-1.2696075
1616,A,192655656321170,-0.29440308,-16.53418,0.98687744,-0.395401,-1.0931702,-0.6553192
1616,A,192655706675174,-7.283203,-13.035751,-4.0970154,0.44206238,-0.41519165,-0.22409058
1616,A,192655757029178,-4.548065,-10.529419,1.4805756,0.61990356,0.3334198,0.834198
1616,A,192655807383182,-3.814804,-8.3694,2.6423798,-1.3431854,-5.3606415,0.4828949
1616,A,192655857737186,-2.363449,-5.311081,-1.1066132,-0.23860168,1.5735626,0.024673462
1616,A,192655908091190,-4.1954803,-2.6676788,1.4392548,0.061645508,2.8199768,0.11001587
1616,A,192655958445194,-3.2898712,-5.417923,0.5665283,1.6603851,-4.132202,0.921051
1616,A,192656008799198,19.126312,-10.38327,7.7039948,-1.843689,-0.14601135,1.3521576
1616,A,192656059153202,15.601959,-14.940094,2.7899475,-0.56292725,3.0117035,1.70578
1616,A,192656109507206,1.504425,-8.097488,-1.8159637,0.9401398,2.4309998,1.668869
1616,A,192656159861210,-7.0189056,-18.160767,-6.808716,0.72421265,-1.3866272,0.6403198
1616,A,192656210215213,-1.9814453,-2.7731018,4.386093,1.0802002,-4.3754883,0.9044037
1616,A,192656260569217,-3.2436829,-3.0782013,3.3276062,1.9014893,-3.0823975,0.8153839
1616,A,192656310923221,-3.3344727,-12.540298,-0.5361328,1.2879639,5.049164,0.4724579
1616,A,192656361277225,-2.108307,-9.348587,-0.68847656,-0.3469696,2.2971954,0.5566406
1616,A,192656411631229,0.6203308,-10.002853,1.7740479,0.15042114,-0.9167938,0.76353455
1616,A,192656461985233,0.8923187,-10.816483,2.1944122,0.41244507,0.32037354,-0.2911682
1616,A,192656512339237,1.2198944,-8.762985,-2.6486664,-1.6895905,2.4346466,-1.8935852
1616,A,192656562693241,-1.3407135,-9.576035,-4.9040985,-1.6164551,1.051239,-2.8671112
1616,A,192656613047245,2.108307,-10.925629,-0.8993225,-0.526001,0.6060028,-2.4266052
1616,A,192656663401249,5.7003784,-13.089172,-0.4006195,-0.3880005,-0.15710449,-1.0726166
1616,A,192656713755252,6.102356,-12.80542,-1.331131,-0.74012756,-1.0118713,-1.0342865
1616,A,192656764109256,2.497818,-16.04631,0.28359985,0.1322174,0.20585632,-1.034195
1616,A,192656814463260,-4.2480774,-14.471207,0.95469666,-0.007598877,-1.0940094,-0.63648987
1616,A,192656864817264,-5.330261,-9.925644,-3.1075745,0.56489563,-0.40856934,0.28611755
1616,A,192656915171268,-3.510437,-9.011536,2.9045868,0.8390198,-0.90341187,0.68821716
1616,A,192656965525272,-2.291153,-7.269211,-2.19693,0.40740967,-3.292984,-0.61772156
1616,A,192657015879276,-5.3681946,-5.2662964,1.3211975,-0.42980957,2.0710602,0.12541199
1616,A,192657066233280,-5.018158,-4.103058,1.7958527,0.010910034,1.2700653,0.1416626
1616,A,192657116587284,3.559555,-7.671646,3.577896,-0.52552795,-0.49977112,0.92349243
1616,A,192657166941288,16.483826,-11.996567,10.0069275,-1.2580719,0.21791077,1.1765442
1616,A,192657217295292,6.962616,-10.955841,4.8241577,0.6084595,-0.6975403,1.470871
1616,A,192657267649295,-0.34140015,-13.95163,5.6087494,0.10531616,0.7428131,1.1807251
1616,A,192657318003299,-3.0046234,-7.8994904,-0.48805237,0.29753113,-2.161911,0.90309143
1616,A,192657368357303,-3.295929,-2.3078156,1.1177673,1.5730896,-4.6812134,0.9661865
1616,A,192657418711307,-4.425476,-7.0607605,1.5043793,1.8547363,-0.3623047,0.7921448
1616,A,192657469065311,-2.73497,-11.360046,0.28231812,0.8594818,4.6561584,0.28015137
1616,A,192657519419315,-0.11303711,-10.587982,1.7580109,-0.6620178,1.7087555,0.30592346
1616,A,192657569773319,2.3654785,-10.280579,2.1562347,0.14671326,-0.5193634,0.08753967
1616,A,192657620127323,1.9575653,-9.085342,-0.055664063,-0.37251282,0.80352783,-1.3338013
1616,A,192657670481327,0.64027405,-9.345108,-4.2031555,-1.9609985,2.3135986,-2.9616394
1616,A,192657720835331,0.13856506,-11.088211,-4.332733,-0.5076904,0.9808655,-2.3941803
1616,A,192657771189335,5.937668,-12.651474,-2.33786,-0.5937805,-0.58406067,-1.1706848
1616,A,192657821543338,6.9114075,-12.94252,-1.9264526,-0.6904144,0.41305542,-1.1119995
1616,A,192657871897342,1.7743225,-14.342224,-0.040222168,-0.06690979,-0.31359863,-0.9632263
1616,A,192657922251346,-4.0038757,-14.929077,-2.1416016,0.27018738,-0.9540405,-0.4703827
1616,A,192657972605350,-6.049103,-12.549286,-0.8072357,0.6266632,-0.23466492,0.33673096
1616,A,192658022959354,-3.5635376,-8.373764,2.2255554,0.02015686,-2.9280396,0.6055145
1616,A,192658073313358,-2.4764404,-5.3182373,1.6778259,-0.52674866,-1.8352356,0.1247406
1616,A,192658123667362,-3.2325897,-4.3345947,1.6074219,-0.23835754,1.8888855,-0.13780212
1616,A,192658174021366,-3.245285,-3.8865967,0.88435364,0.6962738,0.53163147,-0.042892456
1616,A,192658224375370,6.261429,-7.919571,4.2596283,-0.61442566,-1.3209229,0.5871887
1616,A,192658274729374,13.366852,-13.548279,4.992859,-0.9919739,-1.0905151,1.2561951
1616,A,192658325083377,6.0551147,-10.6489105,0.8788452,0.6325989,0.28396606,1.4713898
1616,A,192658375437381,-1.5471039,-13.185379,-5.0173187,0.8563385,0.836853,1.2038574
1616,A,192658425791385,-3.0858307,-10.403458,-3.022766,0.4993286,0.3235016,0.9296417
1616,A,192658476145389,-2.2780457,-2.1206055,1.884903,1.1980438,-2.3643494,1.0450897
1616,A,192658526499393,-4.774048,-10.468384,1.3467865,1.6009216,-2.6891632,1.4966736
1616,A,192658576853397,-4.9683533,-11.460312,0.48573303,1.7298431,3.2764282,0.8830414
1616,A,192658627207401,-2.8866882,-7.8270264,0.42492676,0.20819092,5.277252,-0.113845825
1616,A,192658677561405,-0.88993835,-9.602936,2.2279663,0.25509644,-0.036499023,-0.3842163
1616,A,192658727915409,0.2978058,-9.57045,1.7872772,-1.3599854,0.12164307,-1.5777893
1616,A,192658778269413,2.7379608,-9.87384,-0.3143158,-2.1039734,1.482193,-2.8683777
1616,A,192658828623417,3.224228,-12.279663,-5.6157227,-0.8644867,0.6183319,-2.4131012
1616,A,192658878977420,5.150467,-12.971649,-1.4868622,0.070373535,0.24224854,-1.3348389
1616,A,192658929331424,6.302658,-12.261795,0.470047,-0.34477234,-0.646225,-1.0707092
1616,A,192658979685428,3.5528107,-15.795853,0.2335968,-0.14860535,-0.07299805,-1.0309601
1616,A,192659030039432,-3.4477997,-16.449066,1.8095398,0.08604431,-0.7609558,-0.45973206
1616,A,192659080393436,-5.296463,-11.193008,-1.7737885,0.59736633,-0.12136841,0.27598572
1616,A,192659130747440,-4.4957123,-8.056732,2.6088104,-0.49472046,-2.4186096,1.1755524
1616,A,192659181101444,-3.5920715,-7.363846,0.4981079,1.1910248,-2.9240417,-0.46429443
1616,A,192659231455448,-3.1890259,-4.1995697,1.8412476,0.087768555,2.4097443,-0.8247223
1616,A,192659281809452,-3.02742,-4.246704,0.68510437,3.1391144,1.2171478,-0.5515137
1616,A,192659332163456,1.6455841,-9.173111,-14.718491,-0.93395996,-1.1139526,0.35136414
1616,A,192659382517460,8.311111,-17.119492,-2.9024658,-1.4462433,-0.2144165,1.65625
1616,A,192659432871463,5.877777,-9.900558,0.9854584,0.26193237,1.3444519,1.9971619
1616,A,192659483225467,-4.211731,-16.613953,-12.118546,0.4322815,1.0207977,1.083313
1616,A,192659533579471,-4.101532,-9.30397,-1.3887329,0.10923767,-0.9076996,0.7133484
1616,A,192659583933475,-2.681137,-2.2311707,1.3634186,1.1801758,-4.7431793,0.6262512
1616,A,192659634267495,-4.435135,-9.007568,0.8825989,1.6929474,-3.7784271,1.1915283
1616,A,192659684621499,-4.6058807,-8.458633,-0.0017547607,2.0937653,4.1658325,0.41921997
1616,A,192659734975503,-2.1701202,-9.605942,-0.019470215,0.22172546,5.8589478,0.24131775
1616,A,192659785329507,0.2238617,-10.319687,3.013855,-0.7171631,-0.6437683,0.25624084
1616,A,192659835683511,0.14152527,-10.056656,1.8432312,0.22425842,0.59375,-0.37522888
1616,A,192659886037515,1.904068,-9.773422,-1.35672,-2.3316803,2.6526642,-2.2881317
1616,A,192659936391518,1.5003204,-10.34903,-5.5643005,-1.5891113,1.1209412,-2.7652435
1616,A,192659986745522,3.3227386,-12.205322,-1.9803467,0.9211731,0.6142578,-2.036911
1616,A,192660037099526,7.9396057,-11.835037,-6.6987305,-0.94407654,-0.59472656,-1.0565643
1616,A,192660087453530,4.391083,-14.007431,0.026519775,-0.026245117,-1.3321075,-1.0672302
1616,A,192660137807534,1.0293274,-14.823639,1.9877625,-0.020996094,-0.68899536,-0.730011
1616,A,192660188161538,-5.4398193,-13.070999,-2.8664703,0.49180603,-0.49768066,-0.36408997
1616,A,192660238515542,-5.3170624,-10.476212,1.5718994,0.70861816,-0.18688965,0.8951416
1616,A,192660288869546,-3.0485687,-8.101883,3.8650665,-1.0452728,-5.312317,1.1400604
1616,A,192660339223550,-2.588562,-6.0148926,-1.8160706,-0.1302948,1.7212067,-1.5157013
1616,A,192660389577554,-4.680954,-3.2935486,1.7237396,-0.1512909,2.032425,-0.26853943
1616,A,192660439931558,-3.5493622,-5.2311554,-0.102645874,0.70318604,1.3171387,-0.11102295
1616,A,192660490285561,11.394699,-9.950134,-0.47410583,-1.3938904,-1.0907593,0.86557007
1616,A,192660540639565,12.36145,-19.380493,1.2425842,0.39645386,-0.6932831,1.0957947
1616,A,192660590993569,0.9940338,-7.4897003,1.3608551,0.26730347,0.23286438,1.9146118
1616,A,192660641347573,-3.537735,-18.22522,-6.637314,0.1534729,1.0917358,0.8201294
1616,A,192660691701577,-3.0181274,-1.1889496,1.0446472,0.3866577,-1.0038452,0.8374939
1616,A,192660742055581,-3.1989899,-5.498123,1.2618866,1.5981445,-4.814621,1.0451965
1616,A,192660792409585,-5.0023956,-15.811279,1.4299011,1.3596497,-1.3078003,1.5706482
1616,A,192660842763589,-2.4868622,-6.3155823,1.4053802,1.3831787,5.670166,0.41479492
1616,A,192660893117593,-1.3248138,-8.927185,0.19285583,-0.5046692,1.5774536,-0.37077332
1616,A,192660943471597,0.55708313,-9.526184,2.7640991,-0.71958923,0.84980774,-0.8666229
1616,A,192660993825601,1.6298676,-9.106293,1.0211029,-2.239273,2.6915894,-1.7199097
1616,A,192661044179604,2.8958588,-10.234467,-2.3229828,-1.5128326,-1.3827362,-2.1817017
1616,A,192661094533608,4.070343,-13.159668,-3.7916107,-0.66999817,0.38154602,-1.8085327
1616,A,192661144887612,3.9563904,-10.902847,-1.8656921,0.14888,3.100174,-0.8581543
1616,A,192661195241616,5.856735,-13.639236,-2.8531647,-0.9047699,-2.0498962,-0.7659607
1616,A,192661245595620,1.4407043,-15.417175,1.9508362,0.44818115,-0.33424377,-1.018219
1616,A,192661295949624,-3.4073334,-13.615433,1.0902252,0.13450623,-0.34365845,-0.58703613
1616,A,192661346303628,-2.9699554,-8.146072,-8.461655,0.7319946,-0.6475067,0.38433838
1616,A,192661396657632,-3.8288727,-9.695831,2.4070587,0.91929626,-1.2921906,0.7813873
1616,A,192661447011636,-0.8217621,-6.0775146,0.7681885,1.0626831,-4.0411987,-0.77456665
1616,A,192661497365640,-4.2148285,-4.5853577,0.94088745,-0.1506958,2.939682,-0.8736572
1616,A,192661547719643,-4.813324,-5.378174,-1.041565,1.5624542,1.7219086,-0.8770447
1616,A,192661598073647,1.3530273,-8.587311,-4.6211853,-1.0023193,-0.80848694,0.30264282
1616,A,192661648427651,14.364899,-13.960449,7.9327393,-0.42562866,-0.27142334,1.5567322
1616,A,192661698781655,7.1888123,-10.52301,2.5343933,-0.14297485,0.97488403,1.6558838
1616,A,192661749135659,-0.76698303,-14.582764,0.78305054,-0.09089661,-0.12776184,1.1523438
1616,A,192661799489663,-5.296173,-7.2544556,-2.6364746,0.27445984,-2.9424896,1.2408142
1616,A,192661849843667,-4.309143,-8.061035,1.2245026,1.1342926,-5.6067047,1.3587494
1616,A,192661900197671,-4.3639526,-12.324631,0.42793274,1.5473022,-2.9254608,1.0984955
1616,A,192661950551675,-1.8983917,-7.306961,0.14904785,1.1698914,2.6216278,0.2480011
1616,A,192662000905679,-0.057418823,-10.987549,0.6855316,0.7150879,4.5066833,-0.25506592
1616,A,192662051259683,1.9651489,-9.00647,1.862793,-1.211441,4.167633,-0.73384094
1616,A,192662101613686,2.3659058,-7.6431885,2.0447845,-1.3095856,-1.1647034,-1.8243103
1616,A,192662222463296,3.250351,-13.1978,-0.27372742,-1.6271973,0.112579346,-2.6512299
1616,A,192662242604897,3.606247,-13.434418,-5.2733,-0.08811951,2.8251343,-1.8591156
1616,A,192662262746499,7.2368164,-12.251907,-17.494583,-0.4942932,-0.5037842,-1.3631287
1616,A,192662282888101,6.136368,-11.915604,-4.7008057,0.118881226,-0.31832886,-1.1814117
1616,A,192662303029702,6.616043,-11.711044,-0.07829285,-0.15892029,-0.24395752,-0.5945587
1616,A,192662323171304,6.1033173,-13.04718,0.5213318,0.6482849,-0.6267395,-0.07191467
1616,A,192662343312905,4.063431,-16.04245,0.743454,0.5788727,-0.11677551,0.84614563
1616,A,192662363454507,2.0818024,-16.85147,2.7873688,0.6998749,-4.661484,-0.17324829
1616,A,192662383596108,-0.4277954,-15.693344,4.12294,0.055999756,0.62117004,-0.24584961
1616,A,192662403737710,-3.8327942,-14.893616,3.637085,0.886322,2.9364166,-0.28138733
1616,A,192662423879311,-6.311325,-13.471451,-0.79566956,0.37695313,0.39128113,-0.029953003
1616,A,192662444020913,-6.4776306,-10.977219,-10.8311,-1.4899292,-1.4157867,1.0446472
1616,A,192662464162515,-5.11467,-9.418381,-3.195343,1.6784668E-4,0.37634277,1.321228
1616,A,192662484304116,-4.4226685,-8.715225,5.7992096,0.31629944,-0.09669495,1.1046906
1616,A,192662504445718,-3.794693,-7.5254364,6.2407684,0.49829102,-0.2892456,1.0796509
1616,A,192662524587319,-3.3200378,-7.068405,2.9495697,1.3260498,-4.9579926,0.99920654
1616,A,192662544728921,-2.3012848,-6.875717,-2.418213,1.7657471,-2.3019104,1.1674194
1616,A,192662564870522,-2.6452637,-6.996231,-2.9327393,1.1228485,4.231369,0.6723175
1616,A,192662585012124,-3.0786438,-5.165924,1.7835083,-0.6515503,0.6298828,0.5843353
1616,A,192662605153726,-3.9240875,-3.8059692,2.630478,0.43792725,-0.2283783,-0.2914276
1616,A,192662625295327,-3.9749298,-3.2702942,1.5015411,-2.462326,5.5372314,-2.409912
1616,A,192662645436929,-4.1457977,-4.350952,1.1627045,-1.5437317,-0.22413635,-3.0619812
1616,A,192662665578530,-3.2235107,-5.583786,0.9530182,-0.38827515,-0.61291504,-2.104538
1616,A,192662685720132,0.28007507,-7.5707397,-6.4352417,-0.30537415,1.275528,-0.9128113
1616,A,192662705861733,8.710312,-10.269714,-11.113449,-0.3633728,-0.332901,-0.9176178
1616,A,192662726003335,13.631622,-13.032211,7.5685577,0.1439209,0.18611145,-0.7892151
1616,A,192662746144936,9.590652,-16.881012,7.6636963,0.48991394,-1.0328827,0.018829346
1616,A,192662766286538,10.566132,-13.554306,3.5698547,0.59651184,-0.19682312,0.47390747
1616,A,192662786428140,8.285431,-7.832611,2.268158,0.07569885,-3.62648,-0.30569458
1616,A,192662806569741,2.642334,-6.5578003,0.40066528,1.0474243,-0.7238617,-0.60591125
1616,A,192662826711343,0.41481018,-12.739471,0.9974365,-0.16738892,4.042038,-0.08644104
1616,A,192662846852944,0.57318115,-19.386353,-3.469864,1.6248932,0.056869507,0.65934753
1616,A,192662866994546,-0.51994324,-15.940918,-9.297272,-1.5833435,-0.9940491,1.1150665
1616,A,192662887136147,-4.6000977,-7.111603,-6.479355,0.0987854,2.4222107,1.1173859
1616,A,192662907277749,-5.2341766,-1.798172,-2.7946625,0.2531891,0.22421265,1.1712494
1616,A,192662927419351,-2.4620361,-1.5621643,3.5668945,0.0851593,-0.66748047,1.3708649
1616,A,192662947560952,-2.7968445,-3.5393677,3.5745544,0.40644836,-2.0961456,0.9058075
1616,A,192662967702554,-4.0950165,-10.832947,3.9096985,1.3434753,-4.184372,0.93099976
1616,A,192662987844155,-5.1621246,-17.442474,2.3930817,1.2577515,-0.87779236,0.95936584
1616,A,192663007985757,-4.8789825,-15.155136,1.7744904,0.85240173,2.9679108,0.59106445
1616,A,192663028127358,-3.8598938,-8.904434,2.1529694,0.35754395,4.262619,0.032302856
1616,A,192663048268960,-2.7470398,-5.694229,1.267273,-1.0458527,0.23123169,-1.0072632
1616,A,192663068410561,-1.3511353,-6.1228333,0.19161987,-1.7731628,1.1021118,-2.1047668
1616,A,192663088552163,-0.596344,-8.38443,0.24339294,-1.7827148,0.018554688,-3.0475464
1616,A,192663108693765,-0.5007782,-9.481964,1.8786011,-0.17930603,1.1482544,-1.9697266
1616,A,192663128835366,-0.23110962,-9.529312,3.3904266,0.005279541,1.0629883,-0.9420166
1616,A,192663148976968,0.13595581,-9.048416,3.4173584,0.0690155,-1.8225708,-1.0744934
1616,A,192663169118569,0.6655884,-7.7879486,2.4290466,-0.16052246,-0.58724976,-0.5994568
1616,A,192663189260171,0.21279907,-6.780426,3.8292084,0.31573486,-0.518219,0.2748108
1616,A,192663209401772,0.24104309,-7.6291504,0.73017883,0.48857117,-0.052490234,0.7002106
1616,A,192663229543374,-1.2392883,-10.558487,-10.541916,0.19992065,-5.7719116,0.0019378662
1616,A,192663249684976,0.4468994,-11.967819,-9.028076,0.27493286,1.1235962,-0.21846008
1616,A,192663269826577,2.5874329,-11.2960205,-2.5487213,-0.18852234,4.2301636,-0.50294495
1616,A,192663289968179,4.058441,-11.911316,-0.3607483,1.8556519,1.2542877,0.25959778
1616,A,192663310109780,5.5430603,-14.526199,10.079926,-1.5330048,-0.5698242,0.22091675
1616,A,192663330251382,10.175278,-14.589737,3.70018,-0.13699341,0.4721222,1.3771057
1616,A,192663350392983,12.890137,-10.914566,-7.152191,0.16418457,-0.22518921,1.2206268
1616,A,192663370534585,10.209564,-9.452759,-8.743973,0.095214844,0.68473816,1.0689087
1616,A,192663390676186,6.4042664,-12.10643,-5.504608,0.20198059,-0.9963074,1.1701965
1616,A,192663410817788,5.0070496,-15.480133,-1.08284,1.0288239,-3.4136658,1.2944794
1616,A,192663430959390,3.971695,-18.254059,1.4353485,1.1356354,-1.8513031,1.5664368
1616,A,192663451100991,0.2230072,-19.167633,1.5954437,1.1712341,1.3259888,0.59329224
1616,A,192663471242593,-3.8686218,-19.1241,2.7585297,0.86273193,6.684555,-0.4630127
1616,A,192663491384194,-6.6925354,-17.442154,2.8351288,-1.9462585,1.393158,-1.7438202
1616,A,192663511525796,-5.749527,-12.974075,-7.084259,-2.0173035,-0.94337463,-2.0210571
1616,A,192663531667397,-5.5131073,-10.172012,-4.7888336,-2.0338593,-0.5007019,-3.0337677
1616,A,192663551808999,-6.3691254,-9.218811,3.7979126,-0.56640625,0.6347351,-0.97029114
1616,A,192663571950601,-5.897934,-7.563858,5.6176147,1.0599365,1.2463074,0.58078
1616,A,192663592092202,-4.153595,-5.663559,1.6582489,0.15235901,-2.6146698,-1.588028
1616,A,192663612233804,-3.0868835,-4.833267,-1.3702393,-0.30725098,-1.6603241,-0.46376038
1616,A,192663632375405,-3.4686737,-5.0081177,-1.2794037,0.7850952,-0.63887024,-0.12989807
1616,A,192663652517007,-3.6399841,-4.313324,0.5591736,0.4519806,-1.5130768,0.9824829
1616,A,192663672658608,-3.1233978,-3.0302124,1.9390869,0.8672943,-4.7168884,-0.06439209
1616,A,192663692800210,-2.358841,-1.8681183,1.8165283,0.059158325,2.356369,-0.8356476
1616,A,192663712941811,-2.3106537,-1.9535828,1.5364838,0.28076172,2.760666,-0.7803192
1616,A,192663733083413,-2.7248383,-3.6149902,1.0503082,1.4927979,2.7572327,-0.3559723
1616,A,192663753225015,-2.5140991,-7.047333,-5.37558,-0.6277008,2.2463684,0.47088623
1616,A,192663773366616,10.305542,-12.383392,-18.881226,-0.63967896,-1.4342499,0.8921051
1616,A,192663793508218,19.058792,-14.722366,18.323425,-0.36346436,-3.053894,1.5160217
1616,A,192663813649819,6.949814,-19.207474,6.6411896,-0.022277832,-0.86260986,1.204895
1616,A,192663833791421,14.121841,-11.402252,3.7215576,1.0904541,-3.499588,0.996109
1616,A,192663853933022,5.6921844,-5.926758,2.555954,1.764801,-3.5065308,1.2524719
1616,A,192663874074624,0.93351746,-4.202591,1.4378052,1.5205078,2.4455109,0.8293457
1616,A,192663894216226,-1.9769897,-8.618256,0.7317047,0.1673584,4.482025,0.25512695
1616,A,192663914357827,-6.521698,-19.386353,-19.660477,-0.97576904,1.7343597,0.048965454
1616,A,192663934499429,-2.649582,-19.280396,-9.479782,0.48635864,0.7543335,-0.5847626
1616,A,192663954641030,-1.131546,-12.91658,0.5343933,-2.2733002,0.9104309,-2.509842
1616,A,192663974782632,-4.605316,-4.252884,-0.44317627,-1.286911,-0.14109802,-3.1219025
1616,A,192663994924233,-2.6453094,-9.3078613E-4,3.495636,0.13626099,1.0811005,-1.4973907
1616,A,192664015065835,-1.1913757,-1.211029,0.79722595,-0.5056305,-0.59417725,-0.6506653
1616,A,192664035207436,-2.4978333,-6.1766205,1.4246979,0.22935486,-1.0637817,-0.99098206
1616,A,192664055349038,-5.065201,-15.091751,0.52401733,0.10040283,-0.23713684,-0.6860962
1616,A,192664075490640,-6.0110016,-18.750702,-1.4789886,0.36820984,-0.7166748,0.012069702
1616,A,192664095632241,-4.587677,-12.61055,0.53466797,0.4096222,-0.30342102,0.6705475
1616,A,192664115773843,-2.8175964,-7.0511627,0.7594757,0.5305023,-5.214813,0.5219879
1616,A,192664135915444,-1.7506714,-4.915848,0.4172058,0.3951416,0.62797546,-0.35914612
1616,A,192664156057046,-0.36973572,-5.9000854,0.0688324,-0.44392395,4.1980896,-0.62797546
1616,A,192664176198647,0.48216248,-8.052811,1.4515381,1.735321,2.2808075,9.918213E-4
1616,A,192664196340249,0.43704224,-8.845886,2.393631,-1.1554413,-0.47302246,0.43928528
1616,A,192664216481851,0.7735901,-9.112045,2.6628265,-0.56092834,0.58644104,1.0630646
1616,A,192664236623452,1.1457062,-9.041733,2.5260773,-0.032577515,0.2898407,1.1814423
1616,A,192664256765054,1.1531525,-8.018356,1.4488068,-0.09295654,0.7633209,0.9581146
1616,A,192664276906655,1.642395,-7.137802,1.6268005,0.3986206,-3.162796,0.877655
1616,A,192664297048257,1.243988,-8.1332855,2.3672485,0.96728516,-3.8600464,1.3891602
1616,A,192664317189858,1.0765076,-9.440552,0.28434753,1.0730133,-1.112793,1.0953674
1616,A,192664337331460,1.1597443,-10.116364,0.1913147,0.9108429,1.6171417,0.5428314
1616,A,192664357473061,1.8809509,-11.1828,-0.057861328,1.0314331,4.721939,-0.06866455
1616,A,192664377614663,4.10141,-13.608627,-2.561676,-1.3185272,4.020111,-1.2432098
1616,A,192664397756265,5.2564087,-14.169876,-6.3877563,-1.1842804,-1.317276,-1.8079376
1616,A,192664417897866,7.6942444,-14.170105,-7.2677155,-1.7154541,-0.6092987,-2.8537292
1616,A,192664438039468,9.140503,-12.172775,-1.9985962,-0.7914734,1.0093231,-1.898056
1616,A,192664458181069,8.471222,-10.227417,-3.176361,0.30804443,1.158371,-0.6652527
1616,A,192664478322671,5.562958,-10.599213,-1.8415375,-0.41749573,-1.6250153,-1.1179962
1616,A,192664498464272,5.259491,-13.036392,0.8667908,0.19299316,-0.6686554,-0.6595764
1616,A,192664518605874,4.365036,-17.04918,1.1745148,0.5483856,0.07850647,-0.11656189
1616,A,192664538747476,2.347351,-18.998352,0.807724,0.7533417,-0.19793701,0.7401886
1616,A,192664558889077,-1.0271759,-19.18599,2.4469147,-0.20832825,-5.828476,0.7272949
1616,A,192664579030679,-4.3418427,-18.110565,4.33757,0.40242004,0.13633728,-0.36914063
1616,A,192664599172280,-6.6337433,-15.304474,-1.4863434,-0.15470886,3.886032,-0.66368103
1616,A,192664619313882,-6.373871,-10.891098,-8.944138,1.7792511,2.6597748,-0.10652161
1616,A,192664639455483,-4.3980865,-7.8183136,-3.980011,-1.1718292,0.10115051,0.6395416
1616,A,192664659597085,-4.319687,-7.3159943,3.5731506,-0.4184265,0.6013489,0.91955566
1616,A,192664679738686,-4.490219,-6.9972076,4.625122,0.024246216,-1.8524323,0.9387512
1616,A,192664699880288,-4.1490326,-6.5854797,2.4860535,0.31451416,-0.99923706,1.2632751
1616,A,192664720021890,-3.3700256,-5.742218,-0.9830475,0.14212036,-0.13935852,0.87106323
1616,A,192664740163491,-3.6098022,-5.173004,-0.96525574,0.42520142,-1.7658691,1.2052307
1616,A,192664760305093,-3.6354523,-3.8373566,1.7132416,0.84768677,-1.859024,1.086441
1616,A,192664780446694,-3.0880127,-2.3088226,1.9022064,0.8254242,-0.019851685,1.011383
1616,A,192664800588296,-2.9547882,-1.9410248,0.94395447,1.3116302,2.908783,0.14935303
1616,A,192664820729897,-2.9591827,-2.8728638,0.25601196,-1.3836975,4.50148,-1.8710632
1616,A,192664840871499,-2.8880157,-4.5731506,-0.39738464,-1.1267395,-2.4093475,-2.227005
1616,A,192664861013101,1.5751953,-9.42894,-9.698425,-2.015808,-0.6615448,-2.7273102
1616,A,192664881154702,13.224884,-13.307999,0.7315674,-1.068161,1.6333466,-1.0033264
1616,A,192664901296304,10.445465,-16.331314,12.000626,0.9843445,1.4392853,-0.14927673
1616,A,192664921437905,6.7421875,-18.809296,1.8818512,-0.57173157,-1.7866364,-1.2012482
1616,A,192664941579507,8.73941,-12.562851,1.074295,0.056015015,-1.6338806,-0.46174622
1616,A,192664961721108,5.077286,-5.8485107,2.2942505,0.96066284,-0.7726898,0.027297974
1616,A,192664981862710,0.91085815,-4.374954,1.1821747,0.43243408,-0.2759552,0.9381714
1616,A,192665002004311,-1.1079254,-11.431931,2.9519043,0.43945313,-4.7821198,0.46432495
1616,A,192665022145913,-0.73695374,-18.130997,-5.6615906,-0.19232178,1.0483551,-0.98298645
1616,A,192665042287515,2.1104279,-16.819473,-13.049774,0.66363525,4.799469,-0.9320984
1616,A,192665062429116,-0.4877777,-8.715622,-8.300003,1.4196777,1.8771667,-0.05203247
1616,A,192665082570718,-3.1838074,-4.9479065,0.21972656,-1.0883179,-0.3191681,0.70513916
1616,A,192665102712319,-3.8542633,-4.617584,2.8434753,-0.06425476,0.53097534,1.4234009
1616,A,192665122853921,-4.4598083,-6.6668243,2.5643616,0.01979065,0.26124573,0.76831055
1616,A,192665142995522,-4.9492035,-12.4478,2.070404,-0.03916931,0.83462524,0.96084595
1616,A,192665163137124,-4.38562,-16.778885,0.72273254,-0.052841187,-3.3191376,0.7210846
1616,A,192665183278726,-3.8558044,-13.630081,0.8518219,0.9609833,-6.190735,0.8990936
1616,A,192665203420327,-3.7858582,-8.747696,0.9763336,2.176117,1.0392761,0.467453
1616,A,192665223561929,-3.343277,-6.0532837,0.75109863,0.87986755,5.764679,-0.08439636
1616,A,192665243703530,-2.3478088,-5.899185,0.48620605,-0.8891449,3.7208557,-1.1065521
1616,A,192665263845132,-1.3230743,-7.2726135,0.1219635,-0.22698975,5.7323303,-3.0568848
1616,A,192665283986733,-0.8635559,-8.311768,0.46870422,-1.1605835,0.89385986,-3.2650757
1616,A,192665304128335,-0.15701294,-8.75383,1.5542908,-1.0760956,1.4913025,-1.8149414
1616,A,192665324269936,0.68855286,-8.956604,2.3491516,-1.322937,-1.3125916,-0.726532
1616,A,192665344411538,0.9874115,-8.873383,2.3765564,-0.51716614,0.47555542,-0.49057007
1616,A,192665364553140,0.96321106,-8.596832,1.8387451,0.044158936,0.5571289,-0.14355469
1616,A,192665384694741,1.4872894,-8.37355,1.3883057,0.2534027,0.9005432,0.015014648
1616,A,192665404836343,2.5944824,-8.5295105,0.9996643,0.714386,1.1730042,0.48034668
1616,A,192665424977944,3.0769348,-9.28656,0.9753876,0.77230835,0.035736084,-0.36601257
1616,A,192665445119546,2.7318573,-10.424149,8.327011,-0.44496155,-0.0061187744,0.60827637
1616,A,192665465261147,3.9621735,-13.004456,1.622879,1.3559723,0.48721313,0.235672
1616,A,192665485402749,5.478546,-15.318237,-2.287384,-0.7807617,1.3931274,0.44099426
1616,A,192665505544351,12.463013,-14.521576,-14.621033,-0.15830994,0.91537476,0.8061676
1616,A,192665525685952,9.0989685,-13.82457,-10.474655,-1.085556,0.62913513,0.8186188
1616,A,192665545827554,6.920883,-10.9600525,-4.508087,-0.13601685,-1.4756317,1.4400177
1616,A,192665565969155,7.6694183,-9.508331,-1.8836975,0.60121155,-0.07640076,1.1735535
1616,A,192665586110757,8.146591,-10.48439,0.2886963,0.5916443,0.9546356,0.57211304
1616,A,192665606252358,6.431961,-15.395813,1.5184631,0.59651184,-0.531723,0.50671387
1616,A,192665626393960,5.362671,-17.632156,1.2049408,0.7916107,-1.4720917,0.68678284
1616,A,192665646535561,2.8780212,-18.10759,1.3287201,0.784317,1.2568665,0.88656616
1616,A,192665666677163,-1.1156158,-19.29219,2.9487152,0.6636505,2.1947937,0.51779175
1616,A,192665686818765,-7.357254,-19.385452,6.0701294,-0.86691284,-1.1862335,0.11480713
1616,A,192665706960366,-9.282349,-15.834259,6.216263,-1.6056671,2.9097595,-1.6526947
1616,A,192665727101968,-3.8686676,-9.452637,1.5220947,-1.5035706,0.09361267,-3.0624084
1616,A,192665747243569,-0.2015686,-4.066971,-5.714279,-0.10606384,1.1277466,-2.3656921
1616,A,192665767385171,-3.2035675,-4.1266785,-5.3979034,-1.013092,0.6897278,-0.7186737
1616,A,192665787526772,-8.272995,-7.7471313,-0.7801361,-0.64416504,-0.2388916,-0.7263489
1616,A,192665807668374,-8.014145,-7.4869995,0.96939087,0.60009766,-0.7150879,-0.91625977
1616,A,192665827809976,-3.5203857,-4.189743,1.2027588,0.23773193,-0.18621826,-0.28822327
1616,A,192665847951577,-2.47612,-3.167923,1.5986176,0.4471283,-0.041015625,0.27201843
1616,A,192665868093179,-2.647049,-2.5976257,1.9046783,0.14001465,-0.937088,1.0602417
1616,A,192665888234780,-3.5751953,-2.7962036,1.6384583,0.98347473,-4.239334,-0.2637787
1616,A,192665908376382,-4.4683533,-4.5617065,1.1837616,-0.6762085,2.6613007,-0.21490479
1616,A,192665928517983,-4.072357,-5.969574,0.04321289,1.4426422,5.765106,-0.9827423
1616,A,192665948659585,-3.2819366,-8.225342,-3.4129333,-0.40211487,-0.58273315,0.236557
1616,A,192665968801186,5.1602936,-13.828934,-16.24672,-1.1458893,-1.252655,0.9582977
1616,A,192665988942788,13.175888,-12.7365265,14.667648,-0.13739014,-1.6137848,1.1660461
1616,A,192666009084390,6.2890778,-16.354279,6.7497864,0.40298462,-0.80018616,1.0465393
1616,A,192666029225991,6.827408,-14.575394,1.7900543,0.17163086,-0.010284424,0.86302185
1616,A,192666049367593,9.785202,-8.2309265,2.9240417,0.7241974,-2.9777222,0.988266
1616,A,192666069509194,5.1913605,-6.8724213,-0.2381134,0.9567261,-2.7513428,1.0146332
1616,A,192666089650796,1.5605469,-12.522446,0.23930359,1.4522858,2.6078186,0.6512909
1616,A,192666109792397,4.3808594,-19.386353,4.6465607,0.012466431,3.1872253,0.79563904
1616,A,192666129933999,-0.26730347,-16.955093,-7.212082,-0.97343445,-3.0310059,0.5458374
1616,A,192666150075601,-6.8873596,-6.299576,-15.793747,-0.16194153,4.2781982,-0.6396637
1616,A,192666170217202,-2.1450806,-3.986618,-2.9171448,-2.3033142,3.6139374,-2.8086853
1616,A,192666190358804,-1.4619598,-1.9218903,-0.4126587,-0.03364563,-0.00289917,-2.027008
1616,A,192666210500405,-3.5478516,-5.5141907,-0.52207947,0.34265137,-0.05670166,-1.8976288
1616,A,192666230642007,-6.8453064,-14.285797,-0.58125305,-0.5975952,0.71920776,-1.287735
1616,A,192666250783608,-6.7383575,-18.655746,-1.8593597,-0.129776,-0.104156494,-1.0270386
1616,A,192666270925210,-4.9217377,-14.695541,0.6728821,0.2140503,-0.54977417,-0.21517944
1616,A,192666291066811,-3.7523956,-8.593903,1.6446838,0.3618164,-0.4814911,0.33120728
1616,A,192666311208413,-2.337967,-5.4300385,1.3036499,0.78907776,0.3024292,0.5054321
1616,A,192666331350015,-1.5302734,-5.372055,1.5036011,0.6369171,-2.5074005,-0.22891235
1616,A,192666351491616,-0.95513916,-7.8550873,1.3036652,-0.826355,-1.0661621,0.18666077
1616,A,192666371633218,-0.3237152,-9.182526,1.8092041,1.6338501,3.8878784,-0.25753784
1616,A,192666391774819,0.46835327,-9.042236,2.7566986,-0.5104828,0.14587402,0.49383545
1616,A,192666411916421,1.213562,-8.624695,2.922409,-1.0625458,-0.65548706,1.2445221
1616,A,192666432058022,1.0804291,-7.8500366,1.9781342,0.12934875,-0.7701416,1.5118408
1616,A,192666452199624,0.8588867,-6.243286,1.6636963,0.8153076,-0.66526794,1.2983704
1616,A,192666472341226,1.0508423,-5.5411377,1.578476,0.5977478,-0.93151855,0.92144775
1616,A,192666492482827,1.3601379,-7.184799,0.19226074,0.43876648,-2.1444397,0.74320984
1616,A,192666512624429,1.647171,-9.611679,-0.34405518,0.8499298,-0.7401428,0.37794495
1616,A,192666532766030,1.6127319,-11.771347,-1.1677399,0.5401459,1.6697845,0.53082275
1616,A,192666552907632,2.0755615,-13.204071,-3.1268158,0.59150696,2.5420227,0.6385193
1616,A,192666573049233,2.4394684,-13.413025,-3.3444977,0.8395996,-1.7107849,0.43803406
1616,A,192666593190835,2.5699615,-13.350693,-2.3228302,-1.5830688,0.43640137,-0.7785797
1616,A,192666613332436,4.268402,-13.564926,-0.73036194,-1.9131927,2.3948517,-2.2692566
1616,A,192666633474038,6.637863,-12.779129,1.8846588,-0.77279663,2.3527374,-2.2295227
1616,A,192666653615640,11.311554,-11.674301,-4.86821,-0.41496277,0.11985779,-1.7081604
1616,A,192666673757241,10.328781,-11.098633,-8.8732605,-0.8943939,0.60780334,-0.90893555
1616,A,192666693898843,4.5361633,-11.320206,-1.2249756,-0.16615295,-0.18463135,-1.3290863
1616,A,192666714040444,4.557144,-13.22113,1.3712158,0.15612793,-0.4840393,-0.43023682
1616,A,192666734182046,4.3540497,-15.844574,2.2530975,0.55101013,-0.34376526,0.40293884
1616,A,192666754323647,1.5328217,-17.499954,1.8816528,-0.017120361,-0.8712158,1.0259705
1616,A,192666774465249,-3.0365906,-18.442947,1.4580841,0.62867737,-3.8250732,-0.19082642
1616,A,192666794606851,-7.393112,-17.855423,-0.26501465,-0.43577576,2.3414917,-0.42042542
1616,A,192666814748452,-7.9838257,-13.992966,-5.427719,1.7732849,3.438858,-0.7368469
1616,A,192666834890054,-5.1363983,-10.013611,-3.8570404,-1.1361084,-0.31681824,0.6010742
1616,A,192666855031655,-4.2825317,-8.366028,2.232666,-0.6832886,0.89212036,1.3681488
1616,A,192666875173257,-4.7031403,-7.404175,4.90625,0.240448,-0.6875,1.3218384
1616,A,192666895314858,-4.0714417,-6.4190216,4.806015,0.45202637,-1.094696,1.5355988
1616,A,192666915456460,-3.3603973,-5.6348724,2.266388,0.6640167,-2.7932892,1.0392761
1616,A,192666935598061,-2.4536896,-4.809845,-1.1801453,1.2882538,-3.8119507,0.9277191
1616,A,192666955739663,-2.5729828,-4.367157,-1.201416,1.3149872,1.531189,0.6312866
1616,A,192666975881265,-2.5877838,-3.9322052,0.13124084,0.21368408,2.7692413,0.5709076
1616,A,192666996022866,-2.62706,-3.7618256,0.82115173,-0.29629517,-0.8686371,0.62254333
1616,A,192667016164468,-3.354065,-4.584305,1.0160217,-0.72602844,0.789093,-0.45121765
1616,A,192667036306069,-3.6634674,-5.7466583,0.8668213,-1.7250671,2.810501,-2.60437
1616,A,192667056447671,-3.3032074,-6.676178,0.19664001,-0.92658997,1.6278687,-2.6334686
1616,A,192667076589272,-0.42245483,-10.130173,-13.792511,-0.41281128,-0.32276917,-1.3787079
1616,A,192667096730874,10.177628,-11.643936,-0.792511,-0.74490356,0.7355194,-0.746994
1616,A,192667116872476,11.158646,-15.09491,9.750809,-0.3083191,-0.04170227,-1.2418671
1616,A,192667137014077,7.401001,-18.057617,4.443802,0.13175964,-0.44128418,-0.89871216
1616,A,192667157155679,10.522156,-12.433441,2.68927,0.61579895,-0.6316376,-0.045532227
1616,A,192667177297280,8.2682495,-6.9377136,2.8802032,0.8282776,-0.15509033,0.77163696
1616,A,192667197438882,2.141983,-5.9886475,0.52716064,0.21084595,-3.2273102,-0.29412842
1616,A,192667217580483,1.1659851,-13.747421,8.441483,0.071746826,1.5583496,-0.2454071
1616,A,192667237722085,1.615982,-18.65326,-3.9757233,0.99842834,2.2000885,-0.25971985
1616,A,192667257863686,-0.03211975,-16.225266,-7.2160645,0.17462158,-1.1103363,0.3813324
1616,A,192667278005288,-4.235367,-6.0083466,-12.509567,-0.27293396,-1.2411652,0.8118286
1616,A,192667298146890,-2.6598358,-4.5285034,-1.8025055,-0.14505005,0.4002533,1.4289856
1616,A,192667318288491,-2.7535248,-4.0791626,2.0699615,0.10437012,0.8607483,1.2021179
1616,A,192667338430093,-4.2287903,-6.776413,2.269638,0.32800293,1.114624,1.1688995
1616,A,192667358571694,-5.530655,-13.096466,1.9235382,0.58377075,-3.113861,1.1999664
1616,A,192667378713296,-5.0276794,-16.501877,1.0013123,1.0046539,-5.177063,1.4252625
1616,A,192667398854897,-3.9213562,-11.173233,1.5924835,1.1535797,-0.93640137,0.85598755
1616,A,192667418996499,-3.3295746,-6.673645,0.75364685,0.76371765,3.6174622,0.12640381
1616,A,192667439138101,-2.8519287,-4.9562073,0.7755585,0.22050476,6.9245453,-0.6171112
1616,A,192667459279702,-1.2649078,-6.774124,-0.17224121,-1.6307983,-0.6749115,-1.2496643
1616,A,192667479421304,-0.6355896,-9.413681,0.5868225,-0.9883423,1.3778687,-2.2541504
1616,A,192667499562905,-0.59846497,-10.4887085,1.4483643,-1.0454865,1.8461761,-2.06427
1616,A,192667519704507,0.13153076,-10.511246,2.2617798,0.34283447,0.4225464,-1.4213715
1616,A,192667539846108,0.37908936,-10.084961,2.3381348,-0.84368896,-0.7864685,-1.0901337
1616,A,192667559987710,1.1874542,-8.709259,2.5144348,-0.38658142,-0.00440979,-1.5317383
1616,A,192667580129311,1.5056305,-7.614853,1.9727478,-0.26445007,-0.16062927,-0.86187744
1616,A,192667600270913,1.6061249,-7.606079,1.3887329,0.6907196,-0.15196228,0.19869995
1616,A,192667620412515,1.6321869,-8.359756,1.1119232,0.78871155,-0.14068604,0.951004
1616,A,192667640554116,1.5387726,-9.412033,1.21492,-0.78977966,-3.4062805,0.36869812
1616,A,192667660695718,1.8010101,-10.617004,1.1022034,-0.30549622,-1.5999298,0.033798218
1616,A,192667680837319,3.053711,-12.188614,1.0458679,0.27545166,1.5690613,-0.36721802
1616,A,192667700978921,5.1428986,-14.169296,2.9993591,1.5087738,2.9529724,0.18461609
1616,A,192667721120522,7.5977173,-15.013123,-2.6461334,-1.8847961,-1.6015015,0.29119873
1616,A,192667741262124,10.787628,-12.625412,-18.579239,0.16880798,-1.2147217,0.8850403
1616,A,192667761403726,7.0970154,-11.670486,-7.7638397,1.0017548,-0.97647095,1.2866669
1616,A,192667781545327,6.736328,-10.723633,0.07662964,1.4829712,-0.11236572,0.93743896
1616,A,192667801686929,7.303406,-9.514313,-0.27998352,0.82366943,1.1912384,0.7890625
1616,A,192667821828530,6.832382,-11.951187,-0.0030975342,0.11242676,0.113464355,0.9488678
1616,A,192667841970132,4.813431,-15.517258,2.2295685,0.2564087,-1.1467896,0.99057007
1616,A,192667862111733,3.8976593,-16.33397,1.518692,0.8887787,-0.4497223,0.98934937
1616,A,192667882253335,0.18544006,-16.897873,1.8362427,1.8447723,3.0933075,0.6493683
1616,A,192667902394936,-4.673294,-17.346313,2.814148,-1.0223694,-0.8949585,0.22795105
1616,A,192667922536538,-7.2650146,-15.7942505,2.9423523,-1.6554871,2.3871613,-1.0893555
1616,A,192667942678140,-6.247162,-12.57402,-4.1720886,-2.0809479,0.1552887,-3.1489563
1616,A,192667962819741,-3.9289398,-9.568314,-7.170105,-0.56004333,0.72602844,-2.296341
1616,A,192667982961343,-5.5892334,-8.740402,1.3951569,0.7222595,0.9894867,-0.80041504
1616,A,192668003102944,-6.3825226,-7.7685394,3.528534,0.036331177,-1.7535095,-0.8690796
1616,A,192668023244546,-4.7168427,-6.0776825,4.279068,-0.3726349,-1.8874664,-0.96832275
1616,A,192668043386147,-3.2879028,-5.1828613,2.305359,-0.25302124,-0.47221375,-0.7191467
1616,A,192668063527749,-1.9858093,-4.5507507,-0.77557373,0.67996216,0.15193176,-0.24967957
1616,A,192668083669351,-2.6348267,-4.079605,0.4326172,0.7127228,-0.9549408,1.1354523
1616,A,192668103810952,-3.1891937,-3.605194,1.1603851,0.41160583,-3.4938202,-0.31599426
1616,A,192668123952554,-3.5179596,-4.0171356,1.0636749,-0.11341858,2.3437805,-0.6783905
1616,A,192668144094155,-3.3628998,-4.8751373,0.29832458,1.4964294,2.9440308,-0.34173584
1616,A,192668164235757,-2.8584442,-6.0588837,-4.030838,-0.39216614,-0.17375183,0.1721344
1616,A,192668184377358,0.88313293,-9.321106,-18.0094,-0.26434326,-0.6953125,0.7745819
1616,A,192668204518960,9.804184,-11.674973,-4.9357452,-0.13293457,0.87379456,1.3957214
1616,A,192668224660561,11.974579,-13.356384,12.330505,-0.22387695,0.12698364,1.3504181
1616,A,192668244802163,7.7161407,-17.735657,4.1688995,0.09069824,0.011245728,1.1486511
1616,A,192668264943765,9.964691,-14.307373,1.586441,0.9412842,-3.5811157,0.99290466
1616,A,192668285085366,7.8069,-8.122253,2.467865,1.3010559,-3.2368622,1.4921875
1616,A,192668305226968,2.340271,-7.224045,0.0982666,1.0203705,-0.6469879,1.0899048
1616,A,192668325368569,1.0265503,-12.841217,2.1962585,1.5273743,4.325287,0.44052124
1616,A,192668345510171,1.4646149,-19.386353,0.44429016,-0.4103241,3.2388763,-0.53689575
1616,A,192668365651772,-0.115478516,-15.900177,-10.936844,-0.98703,1.2286835,-1.0795898
1616,A,192668385793374,-3.3987274,-6.585556,-10.410599,-1.6814575,0.7231598,-2.329712
1616,A,192668405934976,-4.014633,-3.1167297,-3.4637604,-1.3937225,0.050827026,-2.9650574
1616,A,192668426076577,-2.2107544,-2.6308746,2.1769104,0.2851715,1.9161377,-1.6112671
1616,A,192668446218179,-2.8995514,-4.677658,2.4605713,-0.76104736,-1.4176025,-0.85391235
1616,A,192668466359780,-2.7282257,-11.191956,1.4766846,-0.17027283,-0.57411194,-1.115097
1616,A,192668486501382,-3.1854553,-17.362259,0.23854065,-0.07173157,-0.4810791,-0.86479187
1616,A,192668506642983,-3.8927155,-16.063934,1.3948822,0.32901,-0.21534729,-0.12791443
1616,A,192668526784585,-3.2613678,-9.879822,1.4175415,0.71144104,0.06817627,0.9624481
1616,A,192668546926186,-2.1958466,-6.1715546,0.63967896,-0.32826233,-4.1356964,1.184555
1616,A,192668567067788,-1.0489807,-5.59169,0.4988556,0.9816284,-1.1591339,-0.57040405
1616,A,192668587209390,-0.5122833,-7.4559326,0.49145508,-0.23233032,4.499954,-0.6086273
1616,A,192668607350991,-1.0010071,-9.604599,0.47291565,1.5799103,1.8529358,-0.43745422
1616,A,192668627492593,-1.142395,-10.689224,0.61502075,-0.30516052,-0.12158203,0.20465088
1616,A,192668647634194,-0.1905365,-10.19931,1.0004883,-0.35707092,1.1256714,0.8811493
1616,A,192668667775796,0.8504181,-8.688889,1.4004669,-0.27127075,0.7286682,1.1110992
1616,A,192668687917397,0.93470764,-7.216461,1.5710602,-0.24485779,-0.17617798,1.3297424
1616,A,192668708058999,0.38208008,-6.9085846,1.3239899,-0.47599792,-2.7407074,1.4490204
1616,A,192668728200601,0.5615845,-8.149902,1.2653656,0.35092163,-4.5339203,1.3162384
1616,A,192668748342202,1.3425446,-9.834915,1.3618927,1.3312225,-3.5249176,0.9324951
1616,A,192668768483804,2.204071,-10.858765,1.2517853,1.3670349,0.6955414,0.62646484
1616,A,192668788625405,3.072235,-11.829803,1.0167694,1.3230438,4.313568,0.20578003
1616,A,192668808767007,4.17395,-13.465195,6.4114227,0.15835571,4.6453094,-0.40205383
1616,A,192668828908608,7.728363,-14.512466,0.8516693,-1.4872437,2.491867,-1.1695862
1616,A,192668849050210,13.168091,-12.602753,-14.311417,-1.8483276,-2.040329,-2.5299072
1616,A,192668869191811,11.308701,-11.673096,-10.614151,-1.5703735,0.2406311,-2.8346558
1616,A,192668889333413,8.933548,-10.646973,-3.7330322,0.74954224,3.067459,-0.9673004
1616,A,192668909475015,6.333069,-10.669662,-0.8549347,-0.37580872,-1.9239044,-1.0448608
1616,A,192668929616616,6.141678,-13.36972,1.1786499,-0.223526,-1.1498413,-0.8244171
1616,A,192668949758218,4.982254,-16.558655,1.744751,0.00894165,-0.32359314,-0.54629517
1616,A,192668969899819,1.9726868,-17.859436,1.66922,0.5382385,-0.575119,0.16661072
1616,A,192668990041421,-2.0141296,-18.253067,1.8406372,0.081451416,-0.8544159,1.2810974
1616,A,192669010183022,-5.1849213,-17.268112,3.5633698,-0.0012664795,-5.681198,0.3130951
1616,A,192669030324624,-6.029602,-14.40416,3.5072327,0.07752991,2.4669037,-0.65093994
1616,A,192669050466226,-4.442047,-9.920761,-3.0942383,1.6897278,5.1628265,-0.9289551
1616,A,192669070607827,-3.1523438,-7.200882,-8.414749,0.0018920898,-1.3442535,-0.28355408
1616,A,192669090749429,-5.0211334,-7.643997,-2.6514435,-0.8071289,0.043289185,0.70880127
1616,A,192669110891030,-6.873581,-7.929413,2.2271576,-0.23519897,0.18730164,1.3747559
1616,A,192669131032632,-6.058136,-6.9171295,2.8814392,0.12974548,0.2390747,1.5842438
1616,A,192669151174233,-3.9335327,-5.3851624,3.050888,-0.014724731,-0.7724762,1.3015747
1616,A,192669171315835,-2.7668304,-4.385483,1.9583435,0.850708,-5.2364655,1.0879364
1616,A,192669191457436,-2.0630035,-3.93013,1.1091156,1.5689545,-4.093857,1.2718048
1616,A,192669211599038,-2.2270355,-3.690796,0.25135803,2.0986328,2.8712616,0.7590332
1616,A,192669231740640,-2.7268524,-4.0984497,-0.49458313,-0.71232605,5.6922913,0.1405487
1616,A,192669251882241,-3.3681183,-5.1139984,-0.27146912,-0.83221436,-1.6681213,-0.24710083
1616,A,192669272023843,-3.2916565,-6.155533,-0.85287476,0.20635986,1.13797,-1.065033
1616,A,192669292165444,0.89256287,-10.260132,-17.281479,-1.9403229,0.94563293,-3.2979279
1616,A,192669312307046,11.222153,-10.841003,4.400055,0.0663147,1.1637878,-2.9300537
1616,A,192669332448647,11.551865,-15.790329,8.072678,-0.8820648,-0.1026001,-0.6757355
1616,A,192669352590249,9.781677,-18.761429,3.0676575,-0.65689087,0.2342987,-0.87612915
1616,A,192669372731851,8.787613,-11.909546,2.0480042,-0.17631531,-0.37748718,-0.85987854
1616,A,192669392873452,4.78421,-6.1825867,0.37095642,0.232193,-1.052124,-0.37623596
1616,A,192669413015054,1.5615997,-7.247589,7.2895813,0.54296875,-0.52246094,0.20768738
1616,A,192669433156655,0.75520325,-19.063522,0.3860321,0.35403442,-0.8777313,1.1657867
1616,A,192669453298257,-1.2205505,-19.386353,-8.071762,0.58454895,-3.9071198,-0.26257324
1616,A,192669473439858,-2.7669067,-8.536026,-19.371384,-0.7387848,3.7088776,-0.16265869
1616,A,192669493581460,-2.5320587,-6.551193,-1.8733215,2.1283875,3.5306091,-0.9231262
1616,A,192669513723061,-2.6149292,-4.970871,2.2121887,-0.8670502,-1.8991547,-0.10598755
1616,A,192669533864663,-4.898239,-6.354065,3.7496033,-0.10658264,-2.249176,1.0323792
1616,A,192669554006265,-4.961319,-11.1405945,2.3943634,-0.2006836,1.4125824,1.3378754
1616,A,192669574147866,-3.8847046,-14.954529,1.0401764,-0.17878723,2.194275,1.2485352
1616,A,192669594289468,-2.4365692,-12.048965,0.28393555,0.091033936,1.0509033,1.0989532
1616,A,192669614431069,-3.5288544,-7.720154,0.2752533,0.3772583,-2.5829315,1.12854
1616,A,192669634578875,-2.9514618,-5.352707,0.34887695,0.8197174,-4.145569,1.256012
1616,A,192669654720476,-1.7170715,-5.022415,0.48524475,1.0033417,-2.3236542,1.1189117
1616,A,192669674862078,-0.37838745,-7.536789,-0.69262695,2.0016022,3.1431885,0.43545532
1616,A,192669695003680,0.1927185,-9.602478,-1.1199341,0.14024353,3.376007,-0.13967896
1616,A,192669715145281,0.6057434,-10.686752,0.27708435,-1.3921356,4.0459137,-1.3762512
1616,A,192669735286883,2.198639,-10.693832,1.8214264,-1.6570892,-1.7747955,-2.4927063
1616,A,192669755428484,2.865265,-10.1210785,2.4244232,-1.8544312,-0.27633667,-3.1902924
1616,A,192669775570086,2.1323547,-8.981155,2.2510529,-0.013534546,1.3683319,-0.94828796
1616,A,192669795711687,2.289154,-8.171936,3.1907654,0.30625916,-0.265213,-0.88264465
1616,A,192669815853289,2.6602936,-9.21759,8.5785675,-0.41404724,-0.63479614,-0.97550964
1616,A,192669835994890,2.6318207,-10.591202,-0.43525696,0.07597351,-0.9177246,-0.4164734
1616,A,192669856136492,3.8665314,-10.193115,-1.6221619,0.5032501,-0.60276794,0.21846008
1616,A,192669876278094,5.678543,-9.823181,-2.675827,0.12739563,-0.66156006,1.1445007
1616,A,192669896419695,5.030945,-9.435471,-2.630371,0.43833923,-4.2069855,-0.36354065
1616,A,192669916561297,4.600525,-8.860123,-2.1661377,0.10144043,1.5268097,-0.49072266
1616,A,192669936702898,7.132004,-8.373627,-0.7883148,1.7350159,4.73761,-0.64208984
1616,A,192669956844500,12.952194,-10.195007,0.6199646,-0.48101807,-0.3670349,0.107437134
1616,A,192669976986101,12.498856,-15.89444,-10.331467,-0.23254395,-3.048706,0.55682373
1616,A,192669997127703,2.1888733,-18.872986,-15.251282,0.16023254,-0.14726257,1.2350159
1616,A,192670017269305,-1.003006,-17.546936,-1.1154938,-0.008666992,1.1721954,1.4733429
1616,A,192670037410906,-6.034958,-18.535675,-0.9748993,0.22148132,1.2567291,1.1021729
1616,A,192670057552508,-7.999893,-18.473007,-3.8651428,0.9431305,-2.2497864,0.8645325
1616,A,192670077694109,-7.285431,-14.943375,-5.757492,1.2722473,-4.101532,1.2092743
1616,A,192670097835711,-4.3276367,-10.398422,-2.7659912,1.1862183,-0.023468018,1.0757904
1616,A,192670117977312,-2.9439087,-7.424759,0.6991272,0.8339844,3.3945618,0.5745239
1616,A,192670138118914,-1.3999786,-5.2702026,2.512024,-0.2728424,3.4739227,0.1375885
1616,A,192670158260515,-0.5928345,-4.804077,2.1183014,-0.53790283,-0.8846741,-0.68325806
1616,A,192670178402117,-1.1136627,-5.429428,0.86354065,-1.5515289,1.5693207,-1.970932
1616,A,192670198543719,-1.7445068,-6.197632,-0.4507904,-1.5476379,0.027328491,-3.0177002
1616,A,192670218685320,-0.9263611,-6.582138,-0.74742126,-0.07720947,0.8018646,-1.700592
1616,A,192670238826922,-0.3815918,-6.3891907,-0.37077332,-0.5274811,-0.6656647,-1.0030365
1616,A,192670258968523,-1.2826996,-6.071518,0.040267944,-0.31767273,-0.6957092,-0.9909973
1616,A,192670279110125,-2.5207367,-5.7110443,0.4988098,0.031234741,-0.25810242,-0.8751068
1616,A,192670299251726,-2.6925507,-5.7205048,1.2443542,0.27947998,-1.0609589,-0.14245605
1616,A,192670319393328,-0.38801575,-6.6351624,1.2273102,0.72169495,-0.072631836,0.6832428
1616,A,192670339534930,7.7753296,-8.214218,-1.136795,-0.34710693,-2.5052948,1.2842407
1616,A,192670359676531,15.9522705,-11.008972,-4.028427,1.2535248,-2.1447906,-0.8075409
1616,A,192670379818133,14.960983,-14.669281,-1.313034,-0.60650635,5.1723633,-0.44732666
1616,A,192670399959734,12.4661255,-13.100449,1.8584137,1.7317047,1.7207794,-0.56477356
1616,A,192670420101336,8.149765,-8.766388,-0.38667297,-0.73410034,-1.1736298,0.28268433
1616,A,192670440242937,3.4308014,-6.9152527,-0.5173645,-0.33319092,0.4659729,0.9435272
1616,A,192670460384539,-0.5534363,-8.355789,3.2069092,-0.23158264,0.9152832,1.0433807
1616,A,192670480526140,-4.85672,-14.620712,-1.9773407,-0.014343262,0.7318268,1.2020416
1616,A,192670500667742,-4.0489655,-18.78946,-9.084747,0.22946167,-1.0468597,0.9755249
1616,A,192670520809344,-0.87060547,-12.099548,-1.8861389,0.738266,-4.6385193,1.4014893
1616,A,192670540950945,-2.835556,-4.866684,-0.12539673,1.0511627,-3.9517517,1.6683502
1616,A,192670561092547,-2.7397156,-2.50029,-0.35020447,1.8466187,2.5713806,0.6279297
1616,A,192670581234148,-1.5972748,-3.593216,0.16549683,0.8035736,5.108597,0.19628906
1616,A,192670601375750,-1.7710724,-8.666534,0.5705261,-1.1682739,2.8622284,-1.0462646
1616,A,192670621517351,-1.8739014,-14.920868,1.6167297,-1.058609,-0.56362915,-1.1659546
1616,A,192670641658953,-0.61602783,-17.113174,2.4450836,-2.1243439,-0.8824768,-2.6315765
1616,A,192670661800555,0.14671326,-13.270737,2.5172424,-1.2792511,0.4512329,-3.0262146
1616,A,192670681942156,0.220932,-8.489761,1.8816223,0.74760437,1.7310638,-0.1539154
1616,A,192670702083758,1.0259705,-6.7474976,1.3093109,-0.3108673,-1.4766846,-1.2710114
1616,A,192670722225359,2.0717316,-7.0823364,1.046875,-0.19689941,-1.4210663,-0.90397644
1616,A,192670742366961,2.1538239,-8.709671,0.861969,-0.050491333,-0.707428,-0.42539978
1616,A,192670762508562,1.5677795,-9.879242,0.5454254,0.67211914,-0.3487091,0.3219452
1616,A,192670782650164,1.4433136,-9.510666,0.012283325,0.015548706,-1.347168,1.5847015
1616,A,192670802791765,1.4232941,-8.7113495,0.25839233,0.6195679,-4.192444,-0.19093323
1616,A,192670822933367,0.9785919,-7.868408,0.5634155,-0.39593506,3.5166016,-0.5740051
1616,A,192670843074969,0.7555847,-7.258499,0.7367096,1.895874,3.714386,-0.8446808
1616,A,192670863216570,0.65509033,-7.080139,1.0077667,-0.107925415,0.06298828,-0.054031372
1616,A,192670883358172,0.18569946,-7.512741,1.2408142,-0.9506378,-0.5876465,0.86408997
1616,A,192670903499773,-0.6908264,-8.832657,1.7059326,-0.15550232,-0.26197815,1.4211121
1616,A,192670923641375,-1.2795715,-10.349487,2.8578491,-0.040023804,-0.5272827,1.0354614
1616,A,192670943782976,-0.22784424,-11.433899,3.4456177,0.1617279,-1.6462555,1.1300812
1616,A,192670963924578,2.7674255,-12.860413,-9.212952,0.8495178,-3.841507,1.241745
1616,A,192670984066180,4.2217712,-12.895264,-6.519684,1.0219574,-2.6134644,1.3328247
1616,A,192671004207781,4.996811,-12.614243,-2.0558624,1.6086578,1.2499847,0.5589142
1616,A,192671024349383,8.334106,-12.308914,3.1780243,1.7362518,5.702896,0.1003418
1616,A,192671044490984,9.858856,-10.602142,0.19532776,-1.3159943,1.6107635,-0.8907623
1616,A,192671064632586,10.468552,-9.318497,-1.6982727,-0.9206085,-0.08308411,-1.3438568
1616,A,192671084774187,7.3760223,-9.949036,-3.2605133,-1.791336,0.3480835,-2.5947266
1616,A,192671104915789,3.835617,-11.801147,-1.4963074,-0.3987732,1.6266785,-2.9335327
1616,A,192671125057390,3.211502,-14.711868,-0.037612915,0.090286255,-0.102767944,-1.009201
1616,A,192671145198992,2.0357056,-17.599152,2.6331177,-0.6180115,-1.4271698,-0.7771759
1616,A,192671165340594,-2.072937,-19.082626,1.2463379,-0.28642273,-0.15231323,-0.98573303
1616,A,192671185482195,-6.286133,-18.23291,-3.5355682,0.22003174,-0.5756378,-0.42939758
1616,A,192671205623797,-7.086792,-14.417419,-7.915756,0.7331848,-0.22392273,0.425766
1616,A,192671225765398,-5.918518,-11.2217865,-2.747757,0.075912476,-0.15576172,1.4138184
1616,A,192671245907000,-4.723694,-8.792526,2.4519348,0.9230499,-3.5597534,-0.32710266
1616,A,192671266048601,-3.6639557,-7.596451,2.2206268,-0.8868408,2.8616943,-0.10177612
1616,A,192671286190203,-3.0005646,-7.2894135,2.289444,2.1564941,3.1059875,-0.7530365
1616,A,192671306331805,-2.7144165,-8.005585,2.9662933,-0.7333374,-0.13319397,0.17576599
1616,A,192671326473406,-1.173111,-7.542633,0.9125519,-0.41864014,-1.1963196,1.0247192
1616,A,192671346615008,-2.4320984,-7.079651,-1.5116272,-0.26446533,0.3853302,1.6512604
1616,A,192671366756609,-3.2513733,-5.7567444,-2.0827637,-0.20401001,0.34812927,1.2158203
1616,A,192671386898211,-3.0167542,-4.2723083,0.41744995,0.42349243,-0.66082764,1.0488586
1616,A,192671407039812,-3.5163116,-3.9151459,1.1341095,0.9955597,-4.017868,1.288147
1616,A,192671427181414,-4.2391205,-4.623657,1.2288666,1.2710724,-2.8991547,1.4337616
1616,A,192671447323015,-3.7680664,-5.200531,0.43937683,1.5007324,2.7108307,0.54356384
1616,A,192671467464617,-2.582718,-5.542618,-0.3667755,0.6204834,4.7417755,0.27487183
1616,A,192671487606219,-1.59375,-7.119568,-6.449692,-1.2445068,1.3381042,-0.8177643
1616,A,192671507747820,11.30864,-12.203598,-7.9424133,-1.490509,0.7493286,-1.1237183
1616,A,192671527889422,12.004501,-15.155548,12.348602,-2.1970978,-0.24613953,-2.6741028
1616,A,192671548031023,10.008408,-19.024094,4.7951965,-1.147232,-0.5312958,-2.9628143
1616,A,192671568172625,12.386749,-14.618362,2.3345337,1.0399628,1.9441833,-0.49720764
1616,A,192671588314226,7.1927795,-5.8122864,0.47380066,0.2639923,-1.4790497,-1.0701294
1616,A,192671608455828,3.2031097,-7.0760803,6.643173,0.03274536,-2.5218658,-0.7869568
1616,A,192671628597430,1.8958588,-17.64618,-2.6952057,-0.10884094,-1.138504,-0.41555786
1616,A,192671648739031,-2.1603546,-17.174744,-9.802139,0.60798645,-0.13415527,0.36582947
1616,A,192671668880633,-3.8988495,-5.32576,-17.50531,-0.46817017,-2.5883026,1.3209076
1616,A,192671689022234,-1.397171,-4.917572,-1.9965973,1.4298096,-2.8243408,-0.7448578
1616,A,192671709163836,-1.543045,-3.762207,1.1381378,-0.5161743,4.621002,-0.3401947
1616,A,192671729305437,-3.1467438,-7.224121,1.9025116,2.0883179,3.014557,-0.70080566
1616,A,192671749447039,-2.2195435,-13.686142,1.977478,-0.75798035,-0.5119171,-0.02218628
1616,A,192671769588640,-1.4052429,-17.011826,2.1476135,-0.61735535,-0.5301361,0.60684204
1616,A,192671789730242,-1.4024963,-13.412186,1.9760284,-0.08576965,0.4125061,1.3014374
1616,A,192671809871844,-1.8394928,-8.34816,1.1131134,-0.08306885,0.08694458,1.2005615
1616,A,192671830013445,-1.8520355,-6.014694,0.44454956,0.28630066,-0.7366333,1.0570526
1616,A,192671850155047,-1.30896,-6.3601227,0.3991394,1.3152466,-4.1061554,1.1869507
1616,A,192671870296648,-0.51441956,-9.012985,0.4413452,1.2626343,-2.7143402,1.5436401
1616,A,192671890438250,-0.585083,-10.628876,0.7952423,1.9982605,3.7920074,0.6233063
1616,A,192671910579851,-0.48124695,-10.603485,1.4111176,-0.8934784,6.0415955,-0.3043518
1616,A,192671930721453,0.627121,-9.368668,1.505188,-0.32591248,-2.17453,-0.28904724
1616,A,192671950863055,1.3478394,-8.197235,1.567627,-0.8095856,0.9490814,-1.4596405
1616,A,192671971004656,1.3775482,-7.1691437,1.6953735,-2.3061066,-0.67601013,-2.9565125
1616,A,192671991146258,1.3755493,-6.7861633,3.6759949,-1.0060577,0.4967041,-2.5353394
1616,A,192672011287859,1.3013153,-7.996292,5.697525,1.1834412,0.9925537,0.17564392
1616,A,192672031429461,0.2975769,-10.172821,-0.013961792,-0.5384369,-2.0171356,-1.3730316
1616,A,192672051571062,0.22758484,-11.068115,-1.6336212,-0.2818451,-1.4305573,-0.82907104
1616,A,192672071712664,-0.850647,-11.652435,-5.6186523,-0.23632813,-0.6827545,-0.40605164
1616,A,192672091854265,0.9781189,-11.261154,-6.8168488,0.6034546,0.100357056,0.33695984
1616,A,192672111995867,3.828476,-12.223114,-2.8806152,0.21783447,-0.62950134,1.379776
1616,A,192672132137469,6.6282043,-15.262894,3.4299927,1.0154266,-3.491928,-0.7188873
1616,A,192672152279070,8.595551,-16.86177,8.242157,-0.94441223,3.7668457,-0.5903778
1616,A,192672172420672,9.263123,-13.479828,1.022171,2.0199585,2.8477325,-0.43070984
1616,A,192672192562273,9.089935,-9.058792,-8.08989,-0.49467468,-1.0271606,0.56741333
1616,A,192672212703875,7.061783,-7.6544952,-13.211243,-0.46714783,0.2514038,0.6937103
1616,A,192672232845476,1.2174835,-10.433701,-1.9773712,-0.1960907,1.1229553,1.1159363
1616,A,192672252987078,-2.4597626,-13.967728,3.4568787,-0.20585632,0.64289856,1.1411743
1616,A,192672273128680,-1.6784058,-14.368713,2.8078156,0.19291687,-1.2710571,1.1319122
1616,A,192672293270281,0.3592987,-13.333603,0.16009521,0.9255066,-5.229492,1.3235626
1616,A,192672313411883,0.8681946,-13.8749695,-3.8430939,1.2270966,-3.8475037,1.5464478
1616,A,192672333553484,-1.4732208,-15.258194,-6.6665344,2.5105896,2.8598633,0.2986908
1616,A,192672353695086,-4.7253723,-14.685028,-2.028534,1.0035858,5.773529,0.23223877
1616,A,192672373836687,-6.3089905,-12.107117,1.6293182,-1.6047211,2.1940155,-0.92633057
1616,A,192672393978289,-5.8465576,-8.312561,0.07359314,-0.8995056,0.6269226,-1.0136108
1616,A,192672414119890,-4.126541,-5.980011,-0.5581207,-1.8744812,0.25169373,-2.623108
1616,A,192672434261492,-3.4867249,-5.5997925,0.4042511,-0.8844452,0.6093292,-2.8073578
1616,A,192672454403094,-3.120041,-5.4466095,-0.17575073,0.40066528,1.5468445,-1.1967926
1616,A,192672474544695,-2.948883,-5.2127533,-1.0897217,-0.379364,-1.9424744,-1.2590637
1616,A,192672494686297,-2.6813202,-4.869583,-0.61195374,-0.22680664,-0.32981873,-0.9567108
1616,A,192672514827898,-2.271103,-4.2134247,0.6925659,0.0821991,-0.9650574,-0.5072632
1616,A,192672534969500,-2.2024689,-3.681305,1.4218445,0.8372345,-0.4681244,0.32713318
1616,A,192672555111101,-2.3914337,-3.9225464,1.524353,0.1651001,-0.9604492,1.5249481
1616,A,192672575252703,-1.2257843,-4.866791,1.9545746,0.29338074,-3.7245789,-0.08938599
1616,A,192672595394305,4.461319,-8.408722,-11.395248,-0.24183655,2.964447,-0.25457764
1616,A,192672615535906,14.821915,-13.213776,-7.9507446,1.8027039,3.3073578,-0.9180145
1616,A,192672635677508,12.532852,-17.754898,0.28756714,-0.19050598,-0.75079346,-0.20951843
1616,A,192672655819109,11.033371,-14.914261,4.068207,-0.29759216,-1.6542664,0.73391724
1616,A,192672675960711,8.1232605,-8.764313,3.6585083,-0.54371643,0.07319641,2.0664063
1616,A,192672696102312,2.3562622,-4.568329,2.7412567,-0.26226807,0.1561737,1.324585
1616,A,192672716243914,-0.54060364,-5.908798,3.8163757,0.29663086,0.060897827,1.0505676
1616,A,192672736385515,-5.475662,-15.485184,0.044891357,1.4573822,-2.9842224,1.1172028
1616,A,192672756527117,-6.131317,-19.373123,-10.072983,1.2780304,-2.8466187,1.7026367
1616,A,192672776668719,-5.205902,-11.108673,-10.931931,1.1133118,0.2207489,1.0284729
1616,A,192672796810320,-2.791687,-4.901001,-2.3525696,1.3027191,5.44899,0.20259094
1616,A,192672816951922,-2.4343262,-3.7293549,1.329483,-1.4464111,1.967041,-1.4236755
1616,A,192672837093523,-3.5794525,-8.147949,2.2689667,-1.21492,0.09967041,-1.5680237
1616,A,192672857235125,-3.7849426,-13.358398,2.152771,-1.5339966,0.38110352,-3.0947418
1616,A,192672877376726,-2.0753021,-15.825409,1.7895203,0.08190918,1.2511292,-2.3873749
1616,A,192672897518328,-0.8675232,-13.072556,1.3532104,-0.6298065,-1.0393677,-0.76309204
1616,A,192672917659930,-1.09758,-8.958878,0.80989075,-0.7138977,-0.7029419,-0.9442291
1616,A,192672937801531,-0.8338165,-6.545578,0.3872528,-0.29226685,-0.39056396,-0.88238525
1616,A,192672957943133,0.8237915,-7.26033,0.193573,0.2538147,-0.9730377,-0.16131592
1616,A,192672978084734,1.9953156,-9.098465,-0.33790588,0.5746155,0.21401978,0.6934509
1616,A,192672998226336,2.06456,-10.271713,-0.55355835,-0.2217102,-2.3259583,1.2552795
1616,A,192673018367937,2.154419,-9.667313,0.43095398,0.8922272,-2.093628,-0.4878235
1616,A,192673038509539,2.5381165,-8.507217,1.1979065,-0.36231995,3.2995605,-0.42836
1616,A,192673058651140,2.3590698,-7.59079,1.8150482,1.8459778,3.9778595,-1.0986328
1616,A,192673078792742,1.6355438,-6.95372,1.929245,-0.9914551,-0.4909973,0.67362976
1616,A,192673098934344,0.45986938,-6.5442963,1.7292328,-0.5961304,-1.0353699,1.1075592
1616,A,192673119075945,-0.049087524,-7.0303497,0.60466003,0.09701538,-1.2841644,1.3941803
1616,A,192673139217547,0.20349121,-8.554855,0.509552,0.44863892,-0.29135132,1.1841431
1616,A,192673159359148,-0.2270813,-10.844391,1.1246033,0.97016907,-1.7142944,1.0205688
1616,A,192673179500750,0.011428833,-12.144089,1.2475128,1.2418365,-3.4047852,1.4399109
1616,A,192673199642351,-0.05140686,-13.052704,0.4967041,1.2738953,0.025650024,0.98558044
1616,A,192673219783953,2.375702,-14.417038,-0.9694977,0.8584595,4.527054,0.6000366
1616,A,192673239925555,7.7417145,-15.203476,-16.85524,-0.5457916,1.5355682,0.17086792
1616,A,192673260067156,8.232864,-14.549057,-5.2075043,-0.9204407,-0.18807983,-0.5035553
1616,A,192673280208758,7.330475,-13.39679,1.8191833,-1.6861572,1.3135376,-1.9704742
1616,A,192673300350359,7.8906097,-12.068253,0.45812988,-0.8387909,1.1269379,-3.7376556
1616,A,192673320491961,5.861038,-10.175827,0.14289856,0.01373291,0.65592957,-1.7740479
1616,A,192673340633562,2.3949585,-11.108246,0.92710876,-0.4270935,-0.7507782,-0.8046875
1616,A,192673360775164,0.769928,-13.5651245,1.3145905,-0.07322693,-0.85150146,-1.026413
1616,A,192673380916765,-0.6996918,-15.266373,1.4809875,0.052749634,-1.1611023,-0.62142944
1616,A,192673401058367,-2.4287567,-15.046768,2.0738678,0.5700836,-1.3538818,0.065093994
1616,A,192673421199969,-2.5465393,-13.763031,-11.246033,0.56941223,0.3657837,1.2324524
1616,A,192673441341570,-3.2062378,-13.239563,-6.0344543,-0.3513031,-4.659149,0.7269745
1616,A,192673461483172,-7.6864166,-13.916748,3.6054535,0.45939636,1.2019348,-0.19941711
1616,A,192673481624773,-6.7332764,-11.83934,5.2256775,0.2881012,4.211334,-0.6810303
1616,A,192673501766375,-2.3097382,-7.3098907,2.8732452,2.0375366,-0.39527893,-0.19281006
1616,A,192673521907976,-1.7699585,-6.369034,-1.0550537,-1.6762085,-1.6317139,0.8907471
1616,A,192673542049578,-2.0936127,-6.529602,-1.7013855,-0.48257446,0.33016968,1.2675476
1616,A,192673562191180,-2.9967651,-6.2166595,-0.2828827,0.19447327,2.369629,0.92251587
1616,A,192673582332781,-4.1764984,-4.90831,1.9827423,0.28598022,0.99043274,0.9497223
1616,A,192673602474383,-4.300949,-3.3335571,1.3088837,0.47625732,-3.372345,1.1139069
1616,A,192673622615984,-4.248581,-2.6960754,0.5580902,1.1071777,-4.584778,1.5865479
1616,A,192673642757586,-4.4031067,-3.6408997,0.6789093,1.3859863,-2.1082153,1.224472
1616,A,192673662899187,-3.6762238,-4.550308,1.000534,2.658966,5.0201874,0.17970276
1616,A,192673683040789,-1.2149658,-4.974228,-2.2509308,-0.18180847,5.047287,-0.23130798
1616,A,192673703182390,3.999405,-7.139923,-14.657394,-1.5425415,1.0144958,-1.0873871
1616,A,192673723323992,14.318069,-12.533157,-4.3767242,-1.5967712,0.044509888,-2.1887207
1616,A,192673743465594,14.555115,-17.357437,9.79628,-1.7161255,-0.33738708,-3.6251526
1616,A,192673763607195,12.795532,-17.754456,5.5728607,0.053527832,1.5102539,-2.420761
1616,A,192673783748797,8.248871,-10.60762,1.9183044,-0.030517578,0.024459839,-0.5981598
1616,A,192673803890398,3.3075104,-6.151825,2.639206,-0.3348236,-1.7431641,-1.0748596
1616,A,192673824032000,0.817276,-11.419861,5.841339,-0.15136719,-1.1222229,-0.49380493
1616,A,192673844173601,-2.3500671,-18.824448,-4.06456,0.3509674,-0.23228455,0.070236206
1616,A,192673864315203,-5.6154175,-14.407883,-9.188995,0.46437073,1.0070953,1.1053314
1616,A,192673884456805,-5.064621,-6.1997223,-8.778717,-0.2528534,-7.006592,1.0176544
1616,A,192673904598406,-3.111374,-4.170883,2.2865295,0.7125244,0.7633362,-0.5422058
1616,A,192673924740008,-3.781662,-5.346878,3.4749756,0.36384583,4.8333282,-0.35142517
1616,A,192673944881609,-4.641205,-11.543533,3.605011,2.0843353,1.0010376,-0.37860107
1616,A,192673965023211,-3.9202728,-16.338013,1.9426727,-1.5170746,-2.0952759,0.6509552
1616,A,192673985164812,-1.9213104,-14.970551,0.7758789,-0.4323883,-0.6376648,1.0009613
1616,A,192674005306414,-1.648468,-9.5212555,0.38279724,0.12289429,0.57647705,0.76512146
1616,A,192674025448015,-1.9054718,-6.211212,0.09246826,0.35002136,2.2397919,0.86387634
1616,A,192674045589617,-0.8319092,-5.446213,-0.10801697,0.58273315,-0.2728424,0.94374084
1616,A,192674065731219,0.9904785,-7.4731445,-0.31930542,0.84407043,-4.4605865,1.5884857
1616,A,192674085872820,1.7895966,-9.785614,0.21282959,0.9806366,-3.2285004,1.7125854
1616,A,192674106014422,1.7264557,-10.521835,1.3442078,2.5319366,3.6009521,0.45796204
1616,A,192674126156023,1.8785858,-9.997787,1.9437561,-0.13301086,5.929474,-0.2849121
1616,A,192674146297625,1.9386292,-8.537338,1.721405,-1.3032837,-0.09402466,-1.1477356
1616,A,192674166439226,1.1190948,-6.3370667,3.7306366,-1.4721069,0.5239563,-2.005722
1616,A,192674186580828,0.5441742,-6.082489,3.5233765,-1.3099365,0.6308136,-3.519928
1616,A,192674206722430,1.130249,-8.164993,-0.8265991,0.23971558,0.8940277,-1.661789
1616,A,192674226864031,1.1052551,-10.159271,-0.5315399,-0.6655121,-1.0730896,-0.62771606
1616,A,192674247005633,-0.63568115,-12.263748,-1.9999237,0.108169556,-0.8471527,-1.125885
1616,A,192674267147234,-0.16204834,-13.7655945,-5.3919525,-0.12849426,-0.6212311,-0.71032715
1616,A,192674287288836,3.0421295,-13.378387,-4.9286804,0.4101715,-1.0903625,0.16885376
1616,A,192674307430437,5.561432,-12.950455,1.0216522,0.582077,0.1637268,0.90678406
1616,A,192674327572039,8.621017,-13.624222,1.1521454,-0.792923,-4.556366,1.27594
1616,A,192674347713640,11.245773,-12.950485,-3.4681396,1.0892181,-0.7534027,-0.6393738
1616,A,192674367855242,10.356873,-11.933044,-2.0562897,-0.37471008,4.380707,-0.32385254
1616,A,192674387996844,5.6122894,-11.191818,-0.12973022,2.5791626,1.9620819,-0.6199341
1616,A,192674408138445,2.1295319,-12.238556,-1.0559235,-1.4878998,-1.7618866,0.68048096
1616,A,192674428280047,0.52757263,-15.7017975,-1.6697235,-0.7885742,-0.83451843,1.084549
1616,A,192674448421648,-2.639679,-18.452576,-1.3699188,0.32835388,0.74220276,1.3764496
1616,A,192674468563250,-5.4700623,-17.455444,-2.455841,0.45942688,1.5229492,0.5756836
1616,A,192674488704851,-4.824127,-13.739212,-4.647232,0.54338074,-2.3970184,0.77757263
1616,A,192674508846453,-3.6972046,-11.585251,-2.7301788,1.0027161,-4.6754303,1.6070557
1616,A,192674528988055,-5.267395,-11.753769,1.887085,1.5266876,-0.9319916,1.1553802
1616,A,192674549129656,-4.8943176,-10.022842,3.4590302,1.9300385,5.890167,0.4710846
1616,A,192674569271258,-2.3643188,-6.859894,1.632721,-1.3231812,3.6539917,-0.3948059
1616,A,192674589412859,-1.0341034,-5.458893,-0.6460571,0.057510376,-1.6134033,-0.7150421
1616,A,192674609554461,-0.5644226,-5.615692,-0.82102966,-1.9074097,0.4889679,-2.079712
1616,A,192674629696062,-1.3749695,-6.0736694,0.28952026,-1.7743683,0.43092346,-3.8648224
1616,A,192674649837664,-2.866684,-5.732025,0.8779907,0.78193665,1.628128,-2.1288147
1616,A,192674669979265,-4.4055176,-4.876053,1.1407013,-0.76730347,-1.6776428,-0.3438263
1616,A,192674690120867,-4.858078,-4.112137,0.8862457,-0.35385132,-1.4084625,-0.9831543
1616,A,192674710262469,-4.4364166,-4.3191223,0.86001587,-0.19552612,-0.49490356,-0.6743164
1616,A,192674730404070,-3.145584,-4.247467,1.0243378,0.59851074,-0.3952942,0.04927063
1616,A,192674750545672,-1.2723236,-4.1217804,0.7897644,0.7546997,0.63775635,1.086792
1616,A,192674770687273,3.8624725,-6.4582214,-15.140839,0.04083252,-4.086487,0.7604523
1616,A,192674790828875,14.5229645,-10.732773,-10.512955,0.42492676,-0.12371826,0.1473999
1616,A,192674810970476,13.924179,-17.608612,7.551651,0.15020752,4.2278595,-0.55288696
1616,A,192674831112078,13.249573,-19.336685,7.7578735,1.4886627,2.8267212,-0.5424347
1616,A,192674851253680,11.517639,-12.195816,4.3379517,-0.8854828,-3.401947,0.5429535
1616,A,192674871395281,5.3065186,-6.649109,2.0551605,-0.43559265,-0.93722534,1.25177
1616,A,192674891536883,0.9418335,-5.299164,-0.618927,-0.23876953,0.5882263,1.3773499
1616,A,192674911678484,-1.1587677,-9.983658,3.8330078,0.057388306,0.7964325,0.75660706
1616,A,192674931820086,-4.5053253,-18.18245,-11.43721,1.0708771,-2.7113342,1.0636444
1616,A,192674951961687,-2.925003,-14.907837,-9.233795,1.1961823,-4.058792,1.4462891
1616,A,192674972103289,-1.6736145,-6.938553,-1.8177338,1.4008179,-0.37339783,1.0243683
1616,A,192674992244890,-3.783142,-5.523041,1.121048,1.7488556,6.578842,0.32151794
1616,A,192675012386492,-3.883728,-7.177307,1.7544861,-1.4932861,2.5330658,-0.19158936
1616,A,192675032528094,-5.146591,-11.7769165,1.477005,0.16186523,-1.797226,-0.70339966
1616,A,192675052669695,-5.6858063,-15.742783,2.001999,-1.8554688,1.2042084,-2.2425385
1616,A,192675072811297,-4.1722565,-16.242981,1.4089355,-1.4157715,1.2167206,-3.6631165
1616,A,192675092952898,-3.0350342,-11.105713,0.7469177,0.47103882,0.11117554,-1.7804718
1616,A,192675113094500,-3.2715302,-8.04744,0.42759705,-0.8826294,-1.4522552,-0.31536865
1616,A,192675133236101,-2.8365936,-7.0711975,0.65065,-0.33947754,-0.72821045,-0.9962311
1616,A,192675153377703,-1.4133301,-8.539566,0.17749023,-0.18162537,-0.72265625,-0.7185211
1616,A,192675173519305,-0.5682068,-9.451447,-0.5547638,0.44482422,-0.7449188,0.06460571
1616,A,192675193660906,-0.09526062,-9.029999,-0.3229828,0.8372803,0.6478882,0.9695282
1616,A,192675213802508,1.4685059,-8.211456,0.3835144,-0.18360901,-3.0712738,1.3522186
1616,A,192675233944109,2.7773438,-8.271103,1.8554688,0.9505768,-1.0507355,-0.684845
1616,A,192675254085711,4.193451,-7.5205994,1.8445435,-0.4035492,2.976532,-0.43511963
1616,A,192675274227312,2.896637,-6.330719,1.4905243,2.6323547,3.1523895,-0.82048035
1616,A,192675294368914,2.9412537,-5.416931,1.7310028,-1.133194,-1.9347687,0.52182007
1616,A,192675314510515,2.2424622,-6.4318695,2.0512085,-0.46333313,-1.0806274,1.1269836
1616,A,192675334652117,2.6343994,-8.580841,0.5878906,0.012374878,1.1679077,1.3697815
1616,A,192675354793719,3.343216,-11.493057,1.4190521,0.4580841,2.0504303,0.85072327
1616,A,192675374935320,5.0020447,-15.648636,2.9106903,0.72476196,-1.614151,0.93395996
1616,A,192675395076922,6.494385,-19.333069,4.8123016,0.97436523,-4.57045,1.5155029
1616,A,192675415218523,8.00116,-18.958374,-18.768936,1.1159515,-1.7211304,1.4559479
1616,A,192675435360125,7.198761,-14.934235,-8.974487,1.9338684,4.8752747,0.50094604
1616,A,192675455501726,7.613205,-12.095886,1.280014,-0.49424744,4.339447,-0.0947876
1616,A,192675475643328,5.7075195,-11.209808,2.8292542,-0.8434601,0.04206848,-0.92622375
1616,A,192675495784930,4.27713,-11.29628,-0.44763184,-1.8032532,0.87861633,-2.0843048
1616,A,192675515926531,1.1982269,-13.032349,0.33529663,-1.9077759,-0.37387085,-3.2557526
1616,A,192675536068133,-0.6168976,-14.573822,1.426712,0.17926025,0.62861633,-1.8790588
1616,A,192675556209734,-1.2251892,-15.687683,2.0272522,0.3519745,-0.16444397,-0.2629242
1616,A,192675576351336,-2.3168182,-14.824997,1.8861237,-0.48867798,-2.6829224,-1.3125
1616,A,192675596492937,-1.9567108,-11.752396,-2.9138489,-0.32885742,-0.8638611,-0.7297821
1616,A,192675616634539,-1.4985809,-11.570328,-8.545425,0.45773315,-0.59451294,-0.14405823
1616,A,192675636776140,-4.401535,-12.229599,-0.82437134,0.5480957,-0.0050354004,0.988739
1616,A,192675656917742,-5.1499634,-11.292206,4.2190704,-0.6316681,-3.8429565,1.1452637
1616,A,192675677059344,-3.281021,-8.266602,3.9409637,0.45924377,0.3751526,-1.0183105
1616,A,192675697200945,-2.5818634,-6.959091,-0.33511353,0.38508606,4.410202,-0.7197418
1616,A,192675717342547,-2.898407,-7.090149,-2.6835785,1.3072357,1.7765045,-0.35186768
1616,A,192675737484148,-4.0428314,-6.4682007,-1.4011841,-0.8522339,-2.4167023,0.5793915
1616,A,192675757625750,-4.873001,-4.600891,1.4778595,0.043762207,-1.1030731,1.4664307
1616,A,192675777767351,-5.430954,-3.3662262,2.472229,0.23464966,0.07531738,1.5504913
1616,A,192675797908953,-5.2434235,-3.4668884,0.7079315,0.24069214,1.1091919,0.877594
1616,A,192675818050555,-4.0952454,-4.3665466,1.175827,0.5495148,-0.31106567,0.9968872
1616,A,192675838192156,-2.571701,-5.056534,1.370163,0.9176636,-3.3113098,1.2961884
1616,A,192675858333758,-0.8800354,-4.511322,-0.04043579,0.87623596,-2.7097626,1.5368195
1616,A,192675878475359,2.8076477,-5.238022,-8.02684,2.1122742,2.7448578,0.5127411
1616,A,192675898616961,9.709869,-8.461807,-12.032684,-0.04458618,4.0577087,-0.31967163
1616,A,192675918758562,13.929779,-13.10321,2.5539093,-1.5400085,2.1201477,-1.864685
1616,A,192675938900164,14.166321,-17.786987,6.038574,-1.8417969,-0.3733673,-2.1861725
1616,A,192675959041765,11.489487,-16.363861,4.652603,-1.6810913,0.17066956,-3.298935
1616,A,192675979183367,5.555023,-9.836075,1.9554443,0.40219116,1.1230621,-1.2804871
1616,A,192675999324969,0.48791504,-5.74411,0.80119324,-0.098983765,-0.4736786,-0.7525177
1616,A,192676019466570,-1.0044708,-4.564438,1.8343964,-0.032211304,-1.624466,-0.95098877
1616,A,192676039608172,-6.062027,-11.441498,-6.306671,-0.28541565,-1.238617,-0.39556885
1616,A,192676059749773,-8.197983,-19.386353,-18.361221,0.5880432,-0.38168335,0.17572021
1616,A,192676079891375,-2.6641235,-17.011322,-8.151596,0.6313324,0.73168945,0.9676666
1616,A,192676100032976,-0.91548157,-12.071899,3.9635162,-0.02368164,-6.1996613,0.4892578
1616,A,192676120174578,-1.027298,-7.6073914,5.1572723,0.29222107,1.7578278,-0.18051147
1616,A,192676140316180,-1.583786,-4.2377625,2.3750305,0.88531494,4.760681,-0.58743286
1616,A,192676160457781,-1.8998871,-4.1109467,1.0479431,1.166214,-0.4247284,-0.04664612
1616,A,192676180599383,-1.452591,-8.511963,0.95018005,-0.59339905,-0.49705505,0.7685547
1616,A,192676200740984,-0.5614166,-14.993729,1.1577301,0.07115173,0.7548065,0.46905518
1616,A,192676220882586,-0.83569336,-16.449936,1.1899414,-0.4415741,1.2355804,0.46783447
1616,A,192676241024187,-1.5140381,-12.265274,1.0347137,-0.26679993,0.93751526,1.2427826
1616,A,192676261165789,-1.4564056,-7.9515533,0.6095886,0.35221863,-1.8766937,0.67381287
1616,A,192676281307390,-1.2922821,-6.0634003,0.12322998,1.1372223,-4.0063324,1.3841858
1616,A,192676301448992,-1.0691986,-6.3291473,-0.33996582,1.3288574,-2.5784302,1.4159851
1616,A,192676321590594,-0.899765,-7.7127686,-0.5595703,1.3043213,1.634552,0.6712799
1616,A,192676341732195,-0.5076904,-8.624588,-0.46740723,0.74009705,5.695984,0.25630188
1616,A,192676361873797,0.10072327,-9.015945,-0.091796875,-1.3416443,-0.025665283,-0.64193726
1616,A,192676382015398,0.8750763,-9.186844,0.30863953,-1.6425934,2.1641998,-1.5600739
1616,A,192676402157000,1.3329163,-8.832031,0.6413727,-2.0287323,0.2461853,-3.220047
1616,A,192676422298601,1.5331421,-7.98085,0.9007721,-0.47679138,0.21652222,-2.7154083
1616,A,192676442440203,1.2693939,-7.7375336,0.9763489,0.43148804,1.3757324,-0.72720337
1616,A,192676462581805,1.3632965,-8.439041,1.1574707,-0.26174927,-2.2214813,-0.76371765
1616,A,192676482723406,1.7394714,-9.216492,5.0695496,-0.2839203,-0.9998474,-0.838562
1616,A,192676502865008,1.3559113,-11.0976715,2.2617798,0.11262512,-0.9589386,-0.20352173
1616,A,192676523006609,2.3316345,-13.112717,-7.3421936,0.772995,0.017623901,0.50634766
1616,A,192676543148211,4.069153,-13.323486,-7.420532,-0.70578,-1.5735016,1.499176
1616,A,192676563289812,5.9320374,-13.316803,-2.2947083,1.2548676,-4.299942,-0.48812866
1616,A,192676583431414,8.390518,-12.87381,1.103363,-0.81755066,3.3837433,0.16549683
1616,A,192676603573015,9.721985,-10.395096,-3.0055695,2.8337402,5.483612,-0.83602905
1616,A,192676623714617,9.101212,-8.8307495,-5.072113,-0.82832336,-1.284317,-0.03010559
1616,A,192676643856219,6.16185,-11.898575,-2.1733093,-0.2502594,-4.5187073,0.5401001
1616,A,192676663997820,4.072754,-16.81894,0.99858093,-0.019195557,-0.056289673,2.0596008
1616,A,192676684139422,1.5039368,-18.750305,3.0907288,-0.064437866,2.0900116,1.8308716
1616,A,192676704281023,-2.6476898,-19.297638,2.103424,0.12106323,-0.1434784,0.60066223
1616,A,192676724422625,-5.0256042,-18.951355,2.966034,1.6168671,-5.3865967,0.6170654
1616,A,192676744564226,-6.7630463,-17.305557,3.8900757,1.7988892,-1.4730988,1.4367065
1616,A,192676764705828,-4.170532,-10.786377,-6.166031,1.272522,4.264801,0.7550354
1616,A,192676784847430,-3.5499573,-7.9694977,-6.947525,-0.6724243,3.8493347,0.45002747
1616,A,192676804989031,-5.554474,-9.01683,0.34169006,-0.1265564,-3.6463928,-0.26080322
1616,A,192676825130633,-3.3662567,-7.9640045,2.4682465,-0.49545288,3.0202484,-1.3556519
1616,A,192676845272234,-1.2479858,-7.775284,0.86564636,-2.142334,1.66745,-3.5252075
1616,A,192676865413836,1.6716614,-7.894745,-1.8468323,-0.0443573,0.34979248,-2.956787
1616,A,192676885555437,-0.41738892,-7.283371,-0.5750427,-0.77978516,-0.9073639,-0.11126709
1616,A,192676905697039,-3.6651917,-5.2708435,0.62683105,-0.56944275,-0.95635986,-1.0861664
1616,A,192676925838640,-5.1391144,-3.3479614,2.421997,-0.40585327,-0.20199585,-0.856308
1616,A,192676945980242,-5.1845856,-1.9343567,1.9695587,0.012145996,-0.93969727,-0.26435852
1616,A,192676966121844,-5.991516,-2.581314,-0.2849121,0.78530884,-0.15722656,0.38194275
1616,A,192676986263445,-5.841751,-4.6509705,0.07485962,0.118759155,-0.86654663,1.3029175
1616,A,192677006405047,-4.3828735,-6.066345,-0.27069092,1.1655731,-3.8243866,-0.38923645
1616,A,192677026546648,-2.6361694,-7.296692,-3.7433777,-1.0570831,3.8213043,-0.10922241
1616,A,192677046688250,5.891037,-10.325073,-19.483246,2.4394073,3.152649,-0.70581055
1616,A,192677066829851,19.189255,-10.02124,11.342438,-0.6860962,-0.90034485,0.0061798096
1616,A,192677086971453,7.487686,-19.338821,7.299179,-0.64741516,0.6322479,0.88404846
1616,A,192677107113055,14.67009,-17.74965,4.0819855,0.20811462,1.3662109,0.78730774
1616,A,192677127254656,9.362869,-9.493149,1.2287903,-0.138031,0.4143982,0.88349915
1616,A,192677147396258,3.9601288,-5.5114136,-0.72354126,0.043502808,-0.99087524,1.1641235
1616,A,192677167537859,0.8154297,-9.124283,4.413254,0.7311096,-4.7716827,1.3569183
1616,A,192677187679461,-3.412918,-19.386353,-12.295074,1.1273804,-3.4804077,1.5102844
1616,A,192677207821062,-1.0536652,-18.79573,-5.416397,2.211731,4.0899506,0.70544434
1616,A,192677227962664,-2.8381653,-9.034912,-2.9250793,-0.24591064,5.3365784,0.34217834
1616,A,192677248104265,-3.0547028,-2.9071655,-1.0567169,-0.6663971,-1.2395782,0.007461548
1616,A,192677268245867,-2.1494446,-1.7365265,1.3778229,-0.5161896,0.6877289,-1.2007599
1616,A,192677288387469,-3.309204,-3.3410797,2.2853394,-2.1240997,0.6750488,-2.9068756
1616,A,192677308529070,-4.6265717,-10.919708,2.1501312,-0.8462219,0.53718567,-3.5657806
1616,A,192677328670672,-6.1611633,-19.059616,1.0009308,0.7003174,0.80700684,-0.99757385
1616,A,192677348812273,-4.4951477,-17.722992,0.6098175,-0.8464966,-1.9327393,-0.7250519
1616,A,192677368953875,-2.6728058,-8.792465,0.4676056,-0.1723938,-0.4597168,-0.9801483
1616,A,192677389095476,-2.6767273,-5.2409515,0.25735474,0.040267944,-0.7548065,-0.42881775
1616,A,192677409237078,-2.940918,-4.526581,0.3359375,0.5994873,-0.49798584,0.33929443
1616,A,192677429378680,-1.1120453,-6.6993866,-0.2580719,0.28118896,0.007156372,1.408783
1616,A,192677449520281,-0.65605164,-9.023987,0.23860168,0.25439453,-5.7355804,0.40074158
1616,A,192677469661883,-0.6239624,-10.483795,1.6354523,-0.21484375,2.2758331,-0.4010315
1616,A,192677489803484,-0.19587708,-10.560318,2.712494,1.088501,6.050949,-0.70654297
1616,A,192677509945086,0.03265381,-9.668243,1.9515228,0.6505585,0.15716553,-0.06097412
1616,A,192677530086687,0.7896576,-8.078415,1.3653564,-0.71499634,-3.5561829,0.7661743
1616,A,192677550228289,1.9700775,-7.2621765,1.2055054,-0.22631836,-0.028045654,1.1439209
1616,A,192677570369890,2.2575226,-8.222382,1.1301117,0.07940674,1.3180847,0.7537842
1616,A,192677590511492,1.8776093,-9.986969,3.6367035,0.39701843,1.5726929,0.8150635
1616,A,192677610653094,2.562439,-11.22467,6.560074,0.7256012,-3.2156525,0.9226074
1616,A,192677630794695,3.7256012,-11.683807,-0.9078369,1.1867371,-5.2488556,1.6044922
1616,A,192677650936297,5.2112274,-12.129532,-3.1379395,2.004364,2.7065735,0.8238983
1616,A,192677671077898,6.593384,-11.991272,-5.31308,-0.58891296,5.4237976,0.5295563
1616,A,192677691219500,6.2532196,-11.605484,-4.965271,-1.129776,-0.9738922,-0.023727417
1616,A,192677711361101,4.731552,-11.429916,-2.8924866,1.0276031,-0.7364807,-0.31053162
1616,A,192677731502703,6.2624664,-11.7283325,-2.4365234,-2.0286865,2.2831116,-2.40094
1616,A,192677751644305,7.7313843,-11.806641,-2.9690094,-1.0479126,1.4937744,-3.5553284
1616,A,192677771785906,6.041641,-12.124191,-1.9049683,0.39112854,-0.05619812,-1.6411743
1616,A,192677791927508,4.3281403,-14.687851,0.051101685,-0.7988434,-1.4826202,-0.6922302
1616,A,192677812069109,2.853363,-16.469788,2.0261383,-0.11254883,-0.38038635,-0.9853821
1616,A,192677832210711,0.29360962,-17.43393,3.4235992,-0.08370972,-0.51823425,-0.7406616
1616,A,192677852352312,-3.662674,-17.514786,2.6565704,0.64671326,-0.710083,0.17642212
1616,A,192677872493914,-6.916275,-15.644974,-5.494583,0.7872162,-0.13006592,1.2139435
1616,A,192677892635515,-6.573929,-12.12236,-10.312027,-0.2555542,-3.2912292,0.8379364
1616,A,192677912777117,-4.077118,-9.446655,-0.1978302,0.3367157,-0.14050293,-0.17471313
1616,A,192677932918719,-3.0420685,-8.075699,4.5442047,0.19299316,4.5164185,-0.61898804
1616,A,192677953060320,-2.4580536,-7.218033,4.569092,1.6575012,0.9250946,-0.27885437
1616,A,192677973201922,-1.6803284,-7.30954,2.8422241,-1.5021362,-1.6786804,0.76327515
1616,A,192677993343523,-0.61660767,-7.610031,-1.2683105,-0.65937805,0.4736328,1.1837463
1616,A,192678013485125,-1.5689392,-7.667282,-2.4938354,0.11143494,1.0637817,1.1608887
1616,A,192678033626726,-3.345337,-6.3673096,0.1574707,0.40066528,0.7838745,0.9397125
1616,A,192678053768328,-4.197769,-4.7069244,1.8742676,0.9473877,-4.2013245,1.2627258
1616,A,192678073909930,-4.7423706,-4.0201416,1.9116821,1.144928,-3.936386,1.7363434
1616,A,192678094051531,-4.9817657,-4.389786,1.5604248,1.7635345,1.860672,0.8879242
1616,A,192678114193133,-4.745987,-5.1362762,0.80015564,0.6361084,7.0227814,0.13618469
1616,A,192678134334734,-3.9089813,-5.5892487,0.15046692,-1.4167633,0.21366882,-0.27999878
1616,A,192678154476336,-2.7180176,-6.4044647,-2.0122375,0.6315613,-0.5228729,-0.72969055
1616,A,192678174617937,6.7167664,-9.78746,-12.219498,-2.1971436,1.0259857,-2.4578247
1616,A,192678194759539,16.66806,-12.968567,3.4195557,-1.3218231,-0.015213013,-3.631607
1616,A,192678214901140,13.330399,-17.042603,9.517273,0.48371887,1.0881805,-1.5536194
1616,A,192678235042742,10.135361,-16.25705,1.8284149,-0.6164093,-1.3292542,-0.7269592
1616,A,192678255184344,7.5344086,-8.891251,1.1794739,-0.29278564,-1.4469604,-1.0282745
1616,A,192678275325945,3.886032,-3.9860382,2.230423,0.12164307,-0.7218933,-0.7054291
1616,A,192678295467547,1.4564514,-8.462219,4.573883,0.7575836,-0.72361755,0.00680542
1616,A,192678315609148,0.7471161,-16.695404,-3.0350342,0.3637085,-0.61431885,1.0839081
1616,A,192678335750750,-0.81903076,-19.330994,-5.7126465,0.1720581,-5.9349213,0.61672974
1616,A,192678355892351,-2.7698822,-7.79541,-10.747467,-0.06272888,2.345047,0.21803284
1616,A,192678376033953,-2.5253906,-4.1343384,-5.350891,1.2472229,4.639618,-0.5804291
1616,A,192678396175555,-3.377121,-5.3060455,0.89430237,1.2425537,0.14274597,-0.54577637
1616,A,192678416317156,-5.7756805,-9.426376,2.1456146,-0.16636658,2.371338,0.33444214
1616,A,192678436458758,-6.7217712,-15.1449585,1.7005005,-0.4192505,-0.38034058,0.8125
1616,A,192678456600359,-4.859497,-15.902466,0.25733948,-0.39485168,-1.4628754,1.4604187
1616,A,192678476741961,-3.1654663,-10.938141,-0.22669983,0.11407471,-0.7921295,1.3619843
1616,A,192678496883562,-2.913269,-6.995468,-0.5795746,1.044342,-4.261505,1.3365936
1616,A,192678517025164,-2.8229218,-5.1164856,-0.61209106,1.0882263,-3.0912628,1.899292
1616,A,192678537166765,-1.5215149,-6.555481,-0.90919495,1.6240234,2.3778229,0.8762512
1616,A,192678557308367,-0.6240692,-9.584183,-1.1770172,1.2962494,6.754715,0.059814453
1616,A,192678577449969,-0.16033936,-12.041031,-0.06387329,-1.5531158,1.404419,-1.134552
1616,A,192678597591570,0.5503082,-12.243271,1.3606262,-1.203125,0.67578125,-1.5631561
1616,A,192678617733172,2.1215057,-10.33876,2.3752136,-1.9070892,-1.0313568,-3.4699707
1616,A,192678637874773,3.3347778,-8.179977,2.9210205,-0.5098419,-0.1874237,-3.5138092
1616,A,192678658016375,3.07193,-7.213745,2.2838745,0.6792908,0.8436279,0.4822693
1616,A,192678678157976,2.3042297,-7.409561,1.8148346,-0.72991943,-1.2749329,-0.851532
1616,A,192678698299578,2.4248962,-8.053223,1.783081,-0.3254242,-2.3859406,-0.89756775
1616,A,192678718441180,2.3687897,-8.575882,1.7512512,0.17958069,-1.3027344,-0.12438965
1616,A,192678738582781,2.1691284,-9.060837,1.7670288,0.62350464,0.4165802,0.8151398
1616,A,192678758724383,2.1902466,-9.832794,1.6629181,-0.87538147,-5.539871,1.9085236
1616,A,192678778865984,3.4199524,-11.250381,0.6685791,1.6955719,-0.049545288,-0.8665161
1616,A,192678799007586,5.1743317,-12.452957,0.0084991455,-0.73205566,5.417984,-0.8375702
1616,A,192678819149187,5.1135254,-13.855576,-1.1652374,2.6332092,2.1431122,-0.9052582
1616,A,192678839290789,2.538559,-13.588104,-8.084076,-1.0064697,1.1244202,0.6096039
1616,A,192678859432390,6.539963,-10.37355,-9.7039795,-0.9816284,0.45484924,0.5771637
1616,A,192678879573992,7.0426636,-11.184586,-9.866409,-0.10935974,-0.41748047,0.7413025
1616,A,192678899715594,6.195816,-10.50383,-2.4550934,0.13241577,0.2892456,0.9573822
1616,A,192678919857195,6.6142426,-12.235901,-0.015563965,0.88705444,-4.571167,1.0874329
1616,A,192678939998797,5.935089,-15.656662,2.3961792,1.2939606,-4.581894,1.7275085
1616,A,192678960140398,3.906662,-16.739365,1.8983307,1.8526611,1.0323486,0.88974
1616,A,192678980282000,1.7510986,-16.615982,2.2350159,0.6183319,8.34816,0.3309021
1616,A,192679000423601,-2.458969,-16.66298,3.6283264,-1.7046509,-0.5166931,0.1767273
1616,A,192679020565203,-7.134964,-16.308548,5.422943,1.4287109,-3.765854,-0.4803009
1616,A,192679040706805,-7.382019,-12.089737,-2.1269531,-1.2948303,3.4072723,-2.0754242
1616,A,192679060848406,-2.6905975,-8.252792,-16.486801,-1.7853394,1.771164,-3.764618
1616,A,192679080990008,-3.1143951,-9.293137,-0.52659607,0.30967712,0.28967285,-1.9852295
1616,A,192679101131609,-5.275894,-9.385727,5.705658,-0.8667755,-1.4031525,-0.7875519
1616,A,192679121273211,-4.1983795,-8.00914,5.9264374,-0.49601746,-0.8187866,-0.7520752
1616,A,192679141414812,-3.2386627,-6.2931213,4.1415863,-0.014419556,-0.36836243,-0.83421326
1616,A,192679161556414,-0.7507324,-4.8566284,-1.616272,0.35882568,-1.0347137,-0.06854248
1616,A,192679181698015,-1.8635254,-5.0720367,-3.0990753,0.78125,0.43893433,1.1379547
1616,A,192679201839617,-3.4037476,-4.0732727,0.72073364,-0.3236847,-3.0312958,1.6246948
1616,A,192679221981219,-4.4227295,-4.097885,1.4416199,0.96177673,-1.8721771,-0.60697937
1616,A,192679242122820,-4.609009,-4.6125793,0.78842163,-0.110183716,4.4397125,-0.890152
1616,A,192679262264422,-4.4457397,-5.4140625,0.32858276,1.4467926,3.400772,-0.91308594
1616,A,192679282406023,-3.5834656,-6.4202576,-0.7142029,-0.58029175,-2.1452637,0.88978577
1616,A,192679302547625,-0.13168335,-8.935196,-6.197571,-0.91200256,-0.23770142,1.8021545
1616,A,192679322689226,11.903015,-13.686493,-12.648178,-0.45965576,0.5025177,1.4500427
1616,A,192679342830828,16.673203,-14.3076935,16.073898,0.22854614,-0.022491455,0.88449097
1616,A,192679362972430,9.636368,-18.722595,6.5204926,1.3424225,-5.33313,0.83377075
1616,A,192679383114031,9.424683,-14.132446,1.7787476,1.6428375,-2.9758759,1.4068451
1616,A,192679403255633,6.477997,-6.215805,2.3715515,1.8098907,4.1141815,0.7575531
1616,A,192679423397234,3.792389,-7.722992,4.5011597,-0.3134613,4.1009216,0.42681885
1616,A,192679443538836,3.7180786,-17.825562,-1.913559,-0.8309479,-0.55207825,0.3712616
1616,A,192679463680437,2.3953247,-18.14766,-9.109009,0.40567017,0.4115448,-0.6011658
1616,A,192679483822039,-3.9279785,-11.903854,-6.25885,-2.361786,1.6815491,-2.4097595
1616,A,192679503963640,-7.2734833,-3.7672424,-7.6904907,-1.0221863,-0.2839203,-3.413208
1616,A,192679524105242,-2.1572113,-1.6106415,2.280182,0.31228638,0.91044617,-2.4445038
1616,A,192679544246844,-2.9975128,-3.54628,2.507141,-0.34477234,-0.1443634,-0.8521271
1616,A,192679564388445,-5.353958,-12.461044,2.6946716,-0.13851929,-1.4611053,-0.991745
1616,A,192679584530047,-7.8531494,-19.386353,2.839569,-0.0152282715,-0.8747864,-0.6849518
1616,A,192679604671648,-5.859665,-16.245224,1.3677826,0.8228607,-0.79919434,0.15098572
1616,A,192679624806270,-3.1585693,-8.597488,0.5758667,0.16268921,-0.29353333,1.4324036
1616,A,192679644947871,-2.4682465,-4.4391174,-0.059631348,0.20448303,-6.074051,0.5840759
1616,A,192679665089473,-1.5827789,-3.105606,-0.95918274,-0.04875183,1.7360077,0.05455017
1616,A,192679685231075,-0.600296,-5.0744324,-1.5204163,1.0754852,5.367737,-1.0838165
1616,A,192679705372676,-0.63575745,-8.804062,-0.54615784,0.488266,1.1201172,-0.20111084
1616,A,192679725514278,-0.5661011,-11.198196,1.3430481,-1.2568054,-2.008667,0.93429565
1616,A,192679745655879,0.099609375,-11.884735,2.6277924,-0.3487854,-0.11593628,1.5367584
1616,A,192679765797481,1.0357513,-10.98291,2.489975,0.20501709,1.5045624,0.9647522
1616,A,192679785939082,2.2173767,-9.023117,1.8978271,0.7433319,-2.0504608,0.83555603
1616,A,192679806080684,2.1122742,-7.9247894,5.7049713,1.2449646,-4.781311,1.4361877
1616,A,192679826222285,1.53125,-9.004211,5.192627,1.4448547,-1.9552307,1.5371094
1616,A,192679846363887,2.3167114,-10.219223,-1.4606934,1.9767761,6.742218,0.5715637
1616,A,192679866505489,1.8447876,-10.315567,-4.8000793,-1.4947205,2.3231506,0.22047424
1616,A,192679886647090,2.143631,-10.637787,-6.5023804,0.39012146,-3.4629974,-0.35638428
1616,A,192679906788692,3.3774414,-11.193481,-4.219589,-1.5838013,3.6884003,-1.9194031
1616,A,192679926930293,4.2017517,-11.416504,-2.0668335,-1.7926941,0.27957153,-3.683792
1616,A,192679947071895,5.3996735,-11.552292,5.6654205,0.009841919,-0.76356506,-2.8155365
1616,A,192679967213496,7.4711914,-12.659821,5.682144,-0.024551392,0.43547058,-0.13192749
1616,A,192679987355098,12.314636,-13.127533,-3.9499664,-0.56222534,-1.2693634,-0.92063904
1616,A,192680007496700,11.395782,-12.263321,-5.5004272,0.015411377,-0.9757538,-0.8301239
1616,A,192680027638301,5.9206085,-12.234329,-1.5410461,0.16079712,-1.2562408,0.009155273
1616,A,192680047779903,3.0052032,-13.7691345,0.8875885,0.5637207,0.077545166,0.653595
1616,A,192680067921504,0.34951782,-17.113647,1.365387,-0.041107178,-4.2403107,1.6081848
1616,A,192680088063106,-5.129776,-19.153091,-1.3700867,1.739624,-1.6135406,-0.5375824
1616,A,192680108204707,-9.513992,-18.895706,-7.9964294,-0.736969,4.935501,-0.85687256
1616,A,192680128346309,-8.611053,-14.624664,-6.367996,1.8709564,3.1477203,-1.0741119
1616,A,192680148487910,-5.133896,-9.644257,0.46713257,-0.39170837,0.42111206,0.8326416
1616,A,192680168629512,-4.258667,-8.089935,2.7000122,-0.94680786,0.4588623,0.8710022
1616,A,192680188771114,-3.9435425,-7.4509735,1.9601898,-0.3235016,-0.26437378,1.1307068
1616,A,192680208912715,-2.8863525,-7.28273,0.24815369,-0.057357788,-0.17378235,1.0227814
1616,A,192680229054317,-2.092636,-6.9938965,-0.13957214,0.96629333,-4.125717,1.2042542
1616,A,192680249195918,-1.4187317,-6.091858,0.43460083,1.3640442,-4.1632385,1.8267517
1616,A,192680269337520,-1.808136,-5.374954,1.0266418,1.6397705,0.14657593,0.99453735
1616,A,192680289479121,-2.4606018,-4.4373016,1.5794525,1.4242859,7.524475,-0.016036987
1616,A,192680309620723,-2.8999023,-3.546585,1.4803619,-1.4468536,1.5976715,-0.8486023
1616,A,192680329762325,-3.5252838,-3.86409,0.68013,-0.36819458,-0.5469513,-1.0134888
1616,A,192680349903926,-4.241852,-4.8014984,0.25816345,-2.159439,0.90934753,-2.7671204
1616,A,192680370045528,-3.4116364,-5.125763,0.431427,-0.7714844,0.8406067,-3.4362793
1616,A,192680390187129,-2.1476135,-5.9375763,-0.114990234,0.3692627,0.20018005,-1.0461121
1616,A,192680410328731,6.2114105,-10.770523,-15.286697,-0.8422699,-1.2958069,-0.5806427
1616,A,192680430470332,14.568024,-13.117874,2.5759888,0.010787964,-1.1674957,-0.9815521
1616,A,192680450611934,9.969376,-18.123505,6.2029114,0.087646484,-1.1297455,-0.48434448
1616,A,192680470753535,10.447342,-16.943268,4.661865,0.6700134,-0.651886,0.2501831
1616,A,192680490895137,6.790283,-8.804138,2.8307953,-0.1000061,-0.84069824,1.295227
1616,A,192680511036739,4.830261,-4.4841156,0.6265106,1.5609589,-4.063263,-0.3649292
1616,A,192680531178340,3.0565796,-6.3444824,6.541214,-0.8447418,3.6703033,-0.2892456
1616,A,192680551319942,1.1156616,-17.436996,-11.970261,1.368576,2.3049316,-0.6682739
1616,A,192680571461543,-1.8584442,-19.386353,-13.121292,0.7101898,1.1807709,0.021240234
1616,A,192680591603145,-2.6778717,-12.45723,-2.6418457,-0.4441986,0.7960968,0.486557
1616,A,192680611744746,-2.8872375,-5.4436035,0.48146057,-0.46998596,0.39001465,1.2190247
1616,A,192680631886348,-3.1531982,-2.7819061,1.8505096,-0.7458954,0.5708771,0.9327698
1616,A,192680652027950,-2.9466553,-3.1924744,2.801834,-0.3719635,-0.88967896,1.1022034
1616,A,192680672169551,-3.4870758,-8.718277,2.7400513,0.904129,-4.9441376,1.2637787
1616,A,192680692311153,-5.342926,-15.910904,2.47081,1.3747864,-4.6754303,1.7643738
1616,A,192680712452754,-6.424057,-18.672165,1.6700134,1.4311676,-0.7523041,0.9089203
1616,A,192680732594356,-3.8757935,-10.8888855,0.56832886,2.440689,6.2862854,0.3244171
1616,A,192680752735957,-2.9668274,-6.5092316,-0.14616394,-0.6031647,4.3256836,-0.5435486
1616,A,192680772877559,-2.6612244,-4.7379913,-0.43658447,-1.4072418,3.3022766,-1.5221863
1616,A,192680793019160,-1.3782654,-5.61467,-1.223053,-1.8622131,-0.7014923,-2.9160614
1616,A,192680813160762,-1.3299255,-8.299576,-1.2259369,-0.90882874,0.2505188,-3.7957306
1616,A,192680833302364,-1.1530304,-10.294235,-0.6114807,0.6750488,2.1550446,-1.7599335
1616,A,192680853443965,-0.26062012,-10.688782,0.56692505,-0.06098938,-1.8248138,-0.9644165
1616,A,192680873585567,0.8986664,-9.70256,0.9361267,0.060791016,-1.3008118,-0.89390564
1616,A,192680893727168,1.5577087,-8.433105,1.3620148,0.09811401,-1.5209808,0.038375854
1616,A,192680913868770,1.9547119,-7.821289,1.2596283,0.49798584,-0.65808105,0.68055725
1616,A,192680934010371,2.858078,-7.8327484,1.2801514,-0.9136658,-5.068527,1.6152802
1616,A,192680954151973,3.124405,-8.784225,1.4210358,1.3136444,-3.8007965,0.07447815
1616,A,192680974293575,3.5975037,-10.235001,5.1627502,-0.38459778,4.396164,-0.23136902
1616,A,192680994435176,4.2943573,-11.61145,0.6924591,2.2038116,4.2606354,-1.0229797
1616,A,192681014576778,4.7306824,-12.095551,-1.3201904,-0.8321991,-0.52519226,-0.010192871
1616,A,192681034718379,5.3079224,-12.752014,-2.790268,-0.81495667,-1.0506897,0.8930969
1616,A,192681054859981,6.82135,-13.314972,-4.4863434,-0.31484985,1.0139618,1.4020691
1616,A,192681075001582,7.064087,-11.896698,-5.1147003,-0.037582397,1.7988892,0.9064789
1616,A,192681095143184,6.7427063,-11.039597,-5.676285,0.49195862,-2.6635132,1.0144043
1616,A,192681115284785,7.116043,-10.320175,-10.369125,1.3616028,-5.3816833,1.4388885
1616,A,192681135426387,6.4039154,-9.986053,-2.3971405,1.7506409,-2.3521118,1.576294
1616,A,192681155567989,6.002426,-13.521423,0.6372223,2.4135437,7.429291,0.46343994
1616,A,192681175709590,4.9869385,-17.544724,2.3443909,-1.4915466,4.0455627,-0.62475586
1616,A,192681195851192,2.1821442,-18.879364,1.2357178,0.26449585,-3.0277557,-0.8188019
1616,A,192681215992793,-1.5331726,-19.110748,2.1038818,-1.3506775,2.1159668,-1.9994354
1616,A,192681236134395,-5.6674805,-17.928238,4.5015717,-1.6256409,0.7194977,-3.9430542
1616,A,192681256275996,-6.9881744,-13.9544525,3.909439,0.114593506,0.38641357,-2.2889404
1616,A,192681276417598,-4.4490204,-8.636536,-5.1267395,-0.8291626,-1.2449799,0.07460022
1616,A,192681296559200,-2.4534607,-6.31398,-12.267319,-0.3107605,-0.62416077,-0.9392395
1616,A,192681316700801,-4.4183197,-8.114014,0.21577454,0.3538971,-1.1742096,-0.6945648
1616,A,192681336842403,-6.5210266,-9.383652,5.704468,0.6481018,-1.4624329,0.01939392
1616,A,192681356984004,-4.2994995,-7.9471283,2.6212769,0.5684662,0.3759613,0.9019165
